,timestamp_start,timestamp_end,acc.x,acc.y,acc.z,gyro.x,gyro.y,gyro.z,mag.x,mag.y,mag.z,stabilizer.pitch,stabilizer.roll,stabilizer.yaw
0,160982,160983,-0.12121307849884033,0.07834644615650177,1.01687753200531,10.158183097839355,-15.173585891723633,-3.703740358352661,-0.09749512374401093,1.1864407062530518,0.2384880781173706,2.7575855255126953,0.566399872303009,2.1896259784698486
1,160992,160993,-0.11769899725914001,0.12080203741788864,1.0156511068344116,3.846334218978882,-5.6012701988220215,-4.031282901763916,-0.10649467259645462,1.1954401731491089,0.22648866474628448,2.837719678878784,0.6935811042785645,2.15423583984375
2,161002,161003,-0.15923185646533966,-0.041822247207164764,1.1010034084320068,-2.238517999649048,1.9113003015518188,-4.519673824310303,-0.13049347698688507,1.1984400749206543,0.24148792028427124,2.733210802078247,0.6622333526611328,2.1068623065948486
3,161012,161013,-0.011519053019583225,-0.2643427848815918,0.9304314255714417,-5.510141849517822,1.28218412399292,-3.5962021350860596,-0.12149392068386078,1.1834408044815063,0.23248836398124695,2.5716001987457275,0.6717948317527771,2.0621683597564697
4,161022,161023,-0.04304490238428116,-0.292317271232605,0.9299296140670776,-6.504451274871826,0.3323861062526703,-4.998706817626953,-0.10799460113048553,1.1729413270950317,0.22198890149593353,2.7179641723632812,0.5561938881874084,2.027804136276245
5,161032,161033,-0.027084853500127792,-0.30801451206207275,0.8251280784606934,-5.538684844970703,1.6901075839996338,-4.302243232727051,-0.09749512374401093,1.177441120147705,0.22648866474628448,2.8405587673187256,0.4903489053249359,1.992087960243225
6,161042,161043,-0.03986141085624695,-0.22335799038410187,0.882157027721405,-3.446514129638672,3.472604274749756,-4.321505069732666,-0.113994300365448,1.1819409132003784,0.2189890444278717,2.9644477367401123,0.4554423391819,1.9603173732757568
7,161052,161053,-0.057564012706279755,-0.12268892675638199,0.9404953718185425,-1.290534496307373,7.34000301361084,-3.8657238483428955,-0.10949452221393585,1.177441120147705,0.23548822104930878,2.6606931686401367,0.2546628415584564,1.8943856954574585
8,161062,161063,0.1261289119720459,-0.27326929569244385,0.7914862036705017,1.5354583263397217,9.276328086853027,-3.003031015396118,-0.11249437183141708,1.1684415340423584,0.22048896551132202,2.590977430343628,0.16144663095474243,1.8559744358062744
9,161072,161073,0.06312128156423569,-0.16947340965270996,0.9835951924324036,7.3671979904174805,7.917288780212402,-3.062408208847046,-0.09299534559249878,1.1819409132003784,0.21298934519290924,2.8087868690490723,0.31615620851516724,1.8521589040756226
10,161082,161083,-0.025492969900369644,-0.05968884751200676,0.9320065379142761,11.69086742401123,4.97573709487915,-3.9028892517089844,-0.12449377030134201,1.1714414358139038,0.22648866474628448,2.273921012878418,0.48423051834106445,1.7896323204040527
11,161092,161093,0.005549882538616657,-0.03419305011630058,0.9565106630325317,11.760318756103516,7.130680084228516,-4.636377811431885,-0.113994300365448,1.1819409132003784,0.23098844289779663,2.0948498249053955,0.5291723012924194,1.7411315441131592
12,161102,161103,-0.08292648941278458,-0.15682353079319,0.8385268449783325,11.745221138000488,7.6232805252075195,-4.260525703430176,-0.11849407106637955,1.180440902709961,0.24148792028427124,2.1467134952545166,0.5758953094482422,1.7031536102294922
13,161112,161113,-0.11857706308364868,-0.2909945547580719,0.7453576922416687,11.02292537689209,2.997129440307617,-3.9857687950134277,-0.113994300365448,1.178941011428833,0.2189890444278717,2.1615662574768066,0.8129243850708008,1.6700197458267212
14,161122,161123,-0.0869634672999382,-0.09932272881269455,0.9448058605194092,6.1348161697387695,3.7862167358398438,-3.6056604385375977,-0.10949452221393585,1.1864407062530518,0.2384880781173706,2.193474292755127,0.9633340835571289,1.6368625164031982
15,161132,161133,0.012021525762975216,-0.1425815373659134,0.8625059723854065,2.0494234561920166,2.03315806388855,-4.909347057342529,-0.10799460113048553,1.1759412288665771,0.20698964595794678,2.251551628112793,1.0954140424728394,1.6104872226715088
16,161142,161143,-0.014915426261723042,-0.15690146386623383,0.8650466203689575,-4.87403678894043,4.143174171447754,-4.205521583557129,-0.09749512374401093,1.1714414358139038,0.23248836398124695,2.2211616039276123,0.9462175369262695,1.5590558052062988
17,161152,161153,-0.06778785586357117,-0.05225961282849312,0.8969656825065613,-8.448026657104492,6.834152698516846,-3.1573469638824463,-0.113994300365448,1.178941011428833,0.21598920226097107,2.233609676361084,0.5846742391586304,1.5116134881973267
18,161162,161163,-0.04513441026210785,-0.2072061449289322,0.8444504737854004,-8.604454040527344,7.833625793457031,-2.910466194152832,-0.11999399960041046,1.1879405975341797,0.21298934519290924,2.2048211097717285,0.5126400589942932,1.4864301681518555
19,161172,161173,-0.003826512023806572,-0.4569321572780609,0.8128927946090698,-6.0452704429626465,11.760526657104492,-2.6033217906951904,-0.11249437183141708,1.177441120147705,0.22048896551132202,1.8759353160858154,0.3733265697956085,1.428118348121643
20,161182,161183,0.0555872768163681,-0.6987134218215942,0.8063201904296875,1.3540970087051392,8.873629570007324,-1.1063718795776367,-0.13049347698688507,1.1954401731491089,0.2174891233444214,1.818571925163269,0.14544373750686646,1.4010454416275024
21,161192,161193,0.1483316570520401,-0.9845966696739197,0.9251809120178223,10.509084701538086,5.44458532333374,-0.4899132251739502,-0.12749361991882324,1.1954401731491089,0.2174891233444214,1.6696066856384277,0.31754711270332336,1.3968755006790161
22,161202,161203,0.027846112847328186,-0.607188880443573,0.9247779846191406,15.751588821411133,7.010155200958252,-1.578238844871521,-0.10799460113048553,1.1879405975341797,0.21598920226097107,1.7986911535263062,0.42875874042510986,1.4137779474258423
23,161212,161213,-0.18432258069515228,-0.15505392849445343,0.934079647064209,17.93195915222168,11.82873821258545,-2.0500285625457764,-0.10949452221393585,1.180440902709961,0.22648866474628448,1.634531021118164,0.7520612478256226,1.403052568435669
24,161222,161223,-0.10265443474054337,-0.03797222301363945,0.9275625348091125,15.798126220703125,11.417799949645996,-1.8493237495422363,-0.12149392068386078,1.2044397592544556,0.2174891233444214,1.5179415941238403,1.0155552625656128,1.3891786336898804
25,161232,161233,0.07115472108125687,-0.09557554870843887,0.7961803674697876,10.444416999816895,9.43868637084961,-1.592460036277771,-0.13049347698688507,1.1894404888153076,0.22348882257938385,1.4048222303390503,0.9691594839096069,1.3523894548416138
26,161242,161243,-0.05208778381347656,0.1534891277551651,0.9782041907310486,2.3072421550750732,11.471729278564453,-1.9956705570220947,-0.1229938492178917,1.2059396505355835,0.22198890149593353,1.2734962701797485,1.1828018426895142,1.345473289489746
27,161252,161253,-0.14714829623699188,0.1610971838235855,0.8726849555969238,-5.636564254760742,11.788013458251953,-2.0281646251678467,-0.12749361991882324,1.1984400749206543,0.2084895670413971,1.1621042490005493,1.1115951538085938,1.3157063722610474
28,161262,161263,-0.0812653973698616,-0.033410727977752686,0.7574595212936401,-8.755876541137695,8.249728202819824,-0.7717375755310059,-0.14249287545681,1.1954401731491089,0.2084895670413971,1.0118402242660522,1.1266547441482544,1.3014442920684814
29,161272,161273,-0.06990447640419006,-0.3162842094898224,0.8850045800209045,-9.908759117126465,3.2498648166656494,-0.015086961910128593,-0.11999399960041046,1.1909403800964355,0.20398980379104614,0.7409487962722778,0.8324117064476013,1.2408548593521118
30,161282,161283,-0.18540646135807037,-0.1632547676563263,0.9766356348991394,-7.157937049865723,-0.9341697692871094,0.009452193975448608,-0.12899354100227356,1.2149392366409302,0.20398980379104614,0.6472852826118469,0.670860230922699,1.2217364311218262
31,161292,161293,-0.21656246483325958,0.06028967350721359,0.8983707427978516,-1.3633378744125366,-4.116135597229004,0.3185242712497711,-0.14549271762371063,1.216439127922058,0.21148942410945892,0.5037500262260437,0.5692394971847534,1.1966135501861572
32,161302,161303,-0.21051239967346191,0.19430264830589294,1.1511226892471313,7.063114166259766,-7.688239097595215,0.3187614977359772,-0.12899354100227356,1.1999399662017822,0.21298934519290924,0.6704350709915161,0.6325559020042419,1.2261481285095215
33,161312,161313,-0.0066977269016206264,-0.25836852192878723,0.99431312084198,13.561424255371094,-14.542887687683105,0.08265172690153122,-0.12599369883537292,1.1909403800964355,0.2189890444278717,0.8667922019958496,0.7467650175094604,1.2487989664077759
34,161322,161323,-0.033272985368967056,-0.3577911853790283,1.0623482465744019,17.554576873779297,-15.79340648651123,-1.2384077310562134,-0.12149392068386078,1.207439661026001,0.21448926627635956,0.8825048804283142,1.0258820056915283,1.2605925798416138
35,161332,161333,-0.0162655096501112,-0.17188090085983276,1.0166670083999634,15.594334602355957,-15.398185729980469,-0.8627575039863586,-0.12149392068386078,1.1984400749206543,0.2174891233444214,0.9947521090507507,1.1432844400405884,1.2304021120071411
36,161342,161343,-0.10648443549871445,0.06954603642225266,1.0036336183547974,9.499266624450684,-11.855399131774902,-1.7237054109573364,-0.1229938492178917,1.193940281867981,0.21598920226097107,1.1170159578323364,1.2912554740905762,1.2132725715637207
37,161352,161353,-0.18781471252441406,0.16006556153297424,0.9851177930831909,2.2050585746765137,-4.950056076049805,-1.3146790266036987,-0.11549422144889832,1.1984400749206543,0.21448926627635956,1.2019071578979492,1.2101013660430908,1.1504439115524292
38,161362,161363,-0.16344955563545227,-0.03174503147602081,0.9547886252403259,-4.49691104888916,0.4902106523513794,-0.841126561164856,-0.12149392068386078,1.207439661026001,0.22648866474628448,1.2313190698623657,1.2852506637573242,1.1436057090759277
39,161372,161373,-0.11232281476259232,-0.8064186573028564,0.9767735600471497,-6.194681167602539,2.1324284076690674,0.3422934412956238,-0.11699414998292923,1.2119393348693848,0.2189890444278717,1.28205144405365,1.2534127235412598,1.1449655294418335
40,161382,161383,0.03766012564301491,-0.615243673324585,0.8575875163078308,-6.8808722496032715,1.9395486116409302,-0.34262633323669434,-0.1334933191537857,1.2044397592544556,0.22348882257938385,1.3007452487945557,1.391526699066162,1.1973024606704712
41,161392,161393,-0.09217231720685959,-0.003520800033584237,1.0928373336791992,-5.246891498565674,0.749591052532196,-0.8437780141830444,-0.11249437183141708,1.207439661026001,0.2084895670413971,1.1485795974731445,1.1096497774124146,1.1303493976593018
42,161402,161403,-0.07516924291849136,-0.358062744140625,1.0921517610549927,-3.412503957748413,-0.0012867568293586373,-0.22847840189933777,-0.1229938492178917,1.2119393348693848,0.2189890444278717,1.1034992933273315,1.081194281578064,1.1196606159210205
43,161412,161413,-0.06291177868843079,-0.5763775110244751,0.9703493714332581,-0.1132313683629036,-0.7523694634437561,-0.0978163480758667,-0.13049347698688507,1.192440390586853,0.20548972487449646,1.0369340181350708,1.068772554397583,1.1110265254974365
44,161422,161423,-0.09202058613300323,-0.6115454435348511,0.8955647349357605,4.321997165679932,-7.039438247680664,0.9363320469856262,-0.1334933191537857,1.2044397592544556,0.2084895670413971,0.9404348134994507,1.1883749961853027,1.1179254055023193
45,161432,161433,-0.067357636988163,-0.24593515694141388,0.8391644358634949,5.6601243019104,-11.413544654846191,0.5700914263725281,-0.13499325513839722,1.1999399662017822,0.20398980379104614,1.0270485877990723,1.0914720296859741,1.0973905324935913
46,161442,161443,-0.03614678606390953,-0.04838065057992935,0.9593067765235901,5.275563716888428,-15.095377922058105,-0.4084721803665161,-0.12149392068386078,1.192440390586853,0.21148942410945892,1.1678792238235474,1.292672038078308,1.1337673664093018
47,161452,161453,0.002119125332683325,-0.08460281789302826,0.8732869029045105,3.46230149269104,-16.39297866821289,-0.7070243954658508,-0.11999399960041046,1.1909403800964355,0.2099895030260086,1.370055913925171,1.333567500114441,1.132674217224121
48,161462,161463,-0.0013883501524105668,-0.02025047317147255,0.9287175536155701,-2.31504487991333,-12.477418899536133,-0.5421732068061829,-0.12149392068386078,1.1954401731491089,0.2174891233444214,1.5844476222991943,1.3396495580673218,1.1246392726898193
49,161472,161473,-0.09592412412166595,0.017842428758740425,1.0536326169967651,-7.0945916175842285,-6.541582107543945,-0.240767240524292,-0.1229938492178917,1.1999399662017822,0.20698964595794678,1.728920817375183,1.3197548389434814,1.1191706657409668
50,161482,161483,-0.058868177235126495,-0.1759791225194931,0.9966917037963867,-9.640819549560547,-3.9214518070220947,-0.4481566250324249,-0.12149392068386078,1.207439661026001,0.21448926627635956,1.8067305088043213,1.2175251245498657,1.110846996307373
51,161492,161493,0.04926136136054993,-0.31824082136154175,0.945426344871521,-9.786420822143555,-1.3176547288894653,0.09790108352899551,-0.12149392068386078,1.2104394435882568,0.20548972487449646,1.6507701873779297,1.2171783447265625,1.0935134887695312
52,161502,161503,-0.02152097597718239,-0.8156452178955078,1.0698236227035522,-9.922394752502441,-0.05891666188836098,0.5598296523094177,-0.1319933980703354,1.2119393348693848,0.21598920226097107,1.6133679151535034,1.0808087587356567,1.0824917554855347
53,161512,161513,-0.04340125620365143,-1.1039379835128784,1.032845139503479,-8.062047004699707,1.4639856815338135,0.6846744418144226,-0.12749361991882324,1.207439661026001,0.2084895670413971,1.502986192703247,0.9493547081947327,1.0659451484680176
54,161522,161523,-0.04697795957326889,-0.2461661994457245,0.9546054005622864,-4.541055679321289,-2.309518337249756,1.5614933967590332,-0.13049347698688507,1.2014398574829102,0.2174891233444214,1.5863672494888306,0.9118960499763489,1.094345211982727
55,161532,161533,-0.061330992728471756,-0.20933857560157776,1.0562517642974854,-1.0946581363677979,-2.754459857940674,1.4496078491210938,-0.1229938492178917,1.208939552307129,0.2099895030260086,1.6309713125228882,0.9229843020439148,1.1197725534439087
56,161542,161543,0.09287070482969284,-0.3154538571834564,0.8619638681411743,-0.21428310871124268,-3.3170597553253174,0.8044275045394897,-0.12149392068386078,1.2104394435882568,0.21148942410945892,1.7289880514144897,0.9067505598068237,1.1430240869522095
57,161552,161553,0.15056920051574707,-0.053029365837574005,0.9862651824951172,1.7768690586090088,-8.08849811553955,0.881155252456665,-0.11999399960041046,1.1969401836395264,0.2099895030260086,1.8059954643249512,0.8974514603614807,1.1564033031463623
58,161562,161563,0.13915498554706573,-0.0568227581679821,1.0699957609176636,0.5770883560180664,-10.753546714782715,-0.1659736931324005,-0.12449377030134201,1.207439661026001,0.19649016857147217,1.7006218433380127,0.8479143381118774,1.132401943206787
59,161572,161573,-0.016314608976244926,-0.034993726760149,1.0494569540023804,-1.7672221660614014,-10.014057159423828,0.24158631265163422,-0.10649467259645462,1.207439661026001,0.20248986780643463,1.5317784547805786,0.8531394004821777,1.0993413925170898
60,161582,161583,-0.05995471403002739,0.010517554357647896,0.9753848910331726,-3.9993834495544434,-8.77425479888916,0.28626227378845215,-0.12149392068386078,1.1984400749206543,0.21448926627635956,1.6676374673843384,0.8289279341697693,1.104506492614746
61,161592,161593,-0.20183342695236206,0.16742682456970215,1.0226315259933472,-5.681031703948975,-7.485591888427734,0.670296847820282,-0.1229938492178917,1.2029398679733276,0.22498874366283417,1.7362983226776123,0.7754861116409302,1.0974189043045044
62,161602,161603,-0.17932367324829102,0.09866918623447418,0.9599330425262451,-7.784459114074707,-6.448220252990723,0.4667574465274811,-0.1229938492178917,1.2209389209747314,0.20398980379104614,1.9601154327392578,0.7522627115249634,1.120020866394043
63,161612,161613,-0.007935562171041965,-1.057741641998291,0.7947880029678345,-7.19593620300293,-4.2363481521606445,0.6073719263076782,-0.1319933980703354,1.2059396505355835,0.20098994672298431,2.0269076824188232,0.6211584210395813,1.1174451112747192
64,161622,161623,-0.07710680365562439,-0.5035042762756348,1.0149072408676147,-4.614329814910889,-3.0670888423919678,-0.009070731699466705,-0.11699414998292923,1.2029398679733276,0.21298934519290924,2.1700439453125,0.45203614234924316,1.1245416402816772
65,161632,161633,0.005691753700375557,-0.06168382242321968,0.9540613293647766,-2.086698293685913,-0.8236727118492126,0.1370307356119156,-0.13499325513839722,1.1969401836395264,0.21598920226097107,2.2053933143615723,0.4585781395435333,1.1310081481933594
66,161642,161643,0.010005535557866096,-0.16423282027244568,0.9054609537124634,1.378433108329773,0.570764422416687,0.039313655346632004,-0.12149392068386078,1.1954401731491089,0.21448926627635956,2.2571144104003906,0.5207765102386475,1.1392279863357544
67,161652,161653,-0.09340178966522217,-0.0005293773137964308,1.1049103736877441,0.9251166582107544,4.739793300628662,-0.8016079664230347,-0.12899354100227356,1.2119393348693848,0.20698964595794678,1.9344167709350586,0.5361549258232117,1.1140559911727905
68,161662,161663,-0.1051127016544342,-0.003523067804053426,1.0162073373794556,1.3879367113113403,4.5662617683410645,-0.9284912943840027,-0.11699414998292923,1.208939552307129,0.2099895030260086,2.042846202850342,0.5667433738708496,1.1165337562561035
69,161672,161673,-0.040743496268987656,-0.055171605199575424,0.9348480701446533,-0.17382608354091644,3.7763309478759766,-0.8585227727890015,-0.1049947515130043,1.1999399662017822,0.21598920226097107,1.9751708507537842,0.7241539359092712,1.1102675199508667
70,161682,161683,-0.07214229553937912,-0.15658649802207947,0.9687385559082031,-0.7562652826309204,-0.2372959405183792,-1.1146942377090454,-0.11549422144889832,1.1984400749206543,0.22048896551132202,1.992861032485962,0.5737766623497009,1.0990382432937622
71,161692,161693,-0.026630746200680733,-0.34085798263549805,0.9061975479125977,-5.623152732849121,-1.302572250366211,-0.5105801820755005,-0.11999399960041046,1.2119393348693848,0.20698964595794678,1.9161458015441895,0.5493811964988708,1.0862661600112915
72,161702,161703,0.02359645441174507,-0.7801485657691956,0.9423031210899353,-6.983038425445557,-3.6988768577575684,-0.27869710326194763,-0.11699414998292923,1.2239388227462769,0.20698964595794678,1.855582594871521,0.45432355999946594,1.0753045082092285
73,161712,161713,-0.05178613215684891,-0.49596357345581055,1.0762050151824951,-7.621682643890381,-3.35595440864563,0.24588638544082642,-0.11699414998292923,1.2059396505355835,0.2099895030260086,1.7547359466552734,0.403564989566803,1.066486120223999
74,161722,161723,-0.05598157271742821,-0.08733578026294708,1.02740478515625,-4.518118858337402,-4.896498203277588,0.5378207564353943,-0.11699414998292923,1.2179391384124756,0.21598920226097107,1.9015181064605713,0.4280170202255249,1.0758600234985352
75,161732,161733,-0.047444943338632584,-0.1309698075056076,0.982515275478363,-2.627747058868408,-6.089477062225342,-0.06108853220939636,-0.12149392068386078,1.216439127922058,0.22048896551132202,1.9844582080841064,0.3485085070133209,1.0808998346328735
76,161742,161743,0.16175758838653564,-0.12068640440702438,0.9444591999053955,-1.5530765056610107,-6.232594013214111,-0.653947114944458,-0.1319933980703354,1.2029398679733276,0.20098994672298431,2.0704336166381836,0.3473205864429474,1.0849679708480835
77,161752,161753,0.1857074648141861,-0.23377522826194763,1.0233159065246582,-1.1189814805984497,-5.242014408111572,-0.5638265013694763,-0.1334933191537857,1.207439661026001,0.20248986780643463,2.162790298461914,0.2945277690887451,1.0865039825439453
78,161762,161763,0.0191362127661705,-0.2159566730260849,1.1013987064361572,-1.8697106838226318,-1.5859994888305664,-0.748930811882019,-0.12749361991882324,1.207439661026001,0.22048896551132202,2.0712063312530518,0.2659304440021515,1.0810415744781494
79,161772,161773,-0.14963458478450775,-0.06438849866390228,1.0553029775619507,-2.21086049079895,2.4367010593414307,0.06536267697811127,-0.11549422144889832,1.2134393453598022,0.2174891233444214,2.106764316558838,0.30329835414886475,1.0749698877334595
80,161782,161783,-0.24641302227973938,0.03136210888624191,0.984775185585022,-3.540247678756714,5.655954837799072,-0.4392619729042053,-0.09899504482746124,1.2149392366409302,0.2189890444278717,2.0421557426452637,0.33617740869522095,1.071372628211975
81,161792,161793,-0.11938194185495377,-0.08278646320104599,0.9636087417602539,-6.120876312255859,8.534448623657227,-0.3759477734565735,-0.12899354100227356,1.2179391384124756,0.21298934519290924,2.0747365951538086,0.2548397481441498,1.0634198188781738
82,161802,161803,0.024806037545204163,-0.7809059023857117,0.981673002243042,-6.063429832458496,8.836273193359375,0.41143524646759033,-0.11999399960041046,1.2209389209747314,0.21298934519290924,1.9485809803009033,0.13408447802066803,1.056265950202942
83,161812,161813,0.06279180198907852,-0.36707618832588196,1.0174049139022827,-3.5530428886413574,6.278130054473877,0.680979311466217,-0.11999399960041046,1.2149392366409302,0.20098994672298431,1.7526748180389404,0.09311509877443314,1.0602617263793945
84,161822,161823,0.03022472746670246,-0.4591085612773895,1.0405457019805908,-2.928347110748291,3.7632663249969482,0.7703385949134827,-0.11999399960041046,1.2029398679733276,0.19799008965492249,1.7543035745620728,0.024660512804985046,1.0677586793899536
85,161832,161833,0.0026320035103708506,-0.4758104085922241,0.98081374168396,-1.1926953792572021,0.5047502517700195,0.38233426213264465,-0.11249437183141708,1.1954401731491089,0.21448926627635956,1.558560848236084,-0.02241842821240425,1.0741490125656128
86,161842,161843,-0.010755246505141258,-0.22696295380592346,1.062955379486084,0.0818323865532875,-1.2236673831939697,-0.08999794721603394,-0.11099445074796677,1.2119393348693848,0.2189890444278717,1.509236454963684,-0.03425026312470436,1.078997015953064
87,161852,161853,-0.03148462623357773,-0.15955929458141327,1.0695117712020874,0.9441779255867004,-2.656002998352051,-0.1429440677165985,-0.10949452221393585,1.2104394435882568,0.21148942410945892,1.5862518548965454,-0.0985390767455101,1.0783655643463135
88,161862,161863,-0.0348077155649662,-0.16100677847862244,0.9866684079170227,2.4054479598999023,-4.819004058837891,0.32156476378440857,-0.12749361991882324,1.1954401731491089,0.21448926627635956,1.674211859703064,-0.08252660930156708,1.077763557434082
89,161872,161873,-0.05059666559100151,-0.07548687607049942,0.9768586158752441,3.234600782394409,-4.533372402191162,0.6677807569503784,-0.12449377030134201,1.2104394435882568,0.2174891233444214,1.632222294807434,-0.049384407699108124,1.0857065916061401
90,161882,161883,0.0284188874065876,-0.0962672233581543,0.8826058506965637,2.1978917121887207,-3.262420654296875,0.15064546465873718,-0.12599369883537292,1.2209389209747314,0.2099895030260086,1.7135776281356812,-0.006937555503100157,1.0897738933563232
91,161892,161893,0.0654374212026596,-0.039039671421051025,0.9748528599739075,0.2334403246641159,-1.391784429550171,-0.05030842870473862,-0.10349482297897339,1.216439127922058,0.2174891233444214,1.6539825201034546,0.09009338170289993,1.0963267087936401
92,161902,161903,-0.05086410790681839,0.04683221876621246,0.9806262850761414,-1.9988585710525513,3.3339879512786865,-0.7086427807807922,-0.10799460113048553,1.2179391384124756,0.21298934519290924,1.7123547792434692,0.08071350306272507,1.0945733785629272
93,161912,161913,-0.09536395967006683,-0.08528830111026764,1.0132367610931396,-2.258574962615967,6.305840492248535,0.08209117501974106,-0.12599369883537292,1.2179391384124756,0.2099895030260086,1.688937783241272,0.04181518405675888,1.089665174484253
94,161922,161923,-0.11852364242076874,-0.16600853204727173,1.0089292526245117,-2.4398722648620605,7.588443756103516,0.2138247936964035,-0.11999399960041046,1.2239388227462769,0.2099895030260086,1.6561760902404785,-0.002744840458035469,1.0902836322784424
95,161932,161933,-0.14507994055747986,-0.17086923122406006,1.0451849699020386,-2.6046741008758545,7.964286804199219,-0.7515293955802917,-0.1049947515130043,1.2179391384124756,0.21598920226097107,1.590054988861084,0.09488876163959503,1.0899606943130493
96,161942,161943,-0.13380642235279083,-0.0574880950152874,0.995184600353241,-3.446974039077759,7.197917461395264,-0.7353227734565735,-0.11999399960041046,1.2209389209747314,0.21298934519290924,1.4923765659332275,0.04228397086262703,1.078518033027649
97,161952,161953,0.004898227751255035,-0.12807025015354156,0.8850789070129395,-2.8320252895355225,4.446072101593018,-0.568691074848175,-0.11999399960041046,1.2149392366409302,0.2189890444278717,1.405714750289917,0.039269015192985535,1.0700352191925049
98,161962,161963,0.04148480296134949,-0.25497856736183167,0.8827089667320251,-2.323169469833374,2.7012510299682617,0.021610695868730545,-0.11999399960041046,1.208939552307129,0.2099895030260086,1.3399262428283691,0.04277294874191284,1.0671613216400146
99,161972,161973,0.08047722280025482,-0.24719539284706116,0.9299503564834595,-3.1342244148254395,0.8143729567527771,-0.4403468370437622,-0.11549422144889832,1.2134393453598022,0.2174891233444214,1.316779613494873,-0.015873456373810768,1.067411184310913
100,161982,161983,-0.0960676446557045,-0.08893425017595291,1.1086702346801758,-5.286293983459473,0.8157726526260376,-0.912682056427002,-0.12149392068386078,1.2254387140274048,0.2084895670413971,1.3240227699279785,-0.08864674717187881,1.0610408782958984
101,161992,161993,-0.11436831951141357,-0.1053014025092125,0.9778502583503723,-4.316264629364014,0.22583484649658203,-0.059203218668699265,-0.10799460113048553,1.2179391384124756,0.21298934519290924,1.3592146635055542,-0.029776955023407936,1.0536587238311768
102,162002,162003,-0.06289198994636536,-0.022754784673452377,0.9539852142333984,-4.0259480476379395,1.8695249557495117,-0.4659043550491333,-0.12449377030134201,1.2134393453598022,0.2084895670413971,1.2922111749649048,-0.11577682197093964,1.054593801498413
103,162012,162013,0.03997553139925003,-0.37412410974502563,0.9910338521003723,-2.4544553756713867,1.6509380340576172,-0.40340277552604675,-0.12599369883537292,1.2179391384124756,0.2099895030260086,1.2447586059570312,-0.20673412084579468,1.0512174367904663
104,162022,162023,0.042070697993040085,-0.08759453147649765,1.119337797164917,-1.5959105491638184,1.1606025695800781,-1.3680307865142822,-0.12149392068386078,1.2284384965896606,0.2084895670413971,1.1753191947937012,-0.2077181339263916,1.0527424812316895
105,162032,162033,0.08502700179815292,-0.03424239903688431,1.0372390747070312,-0.5909014344215393,-0.663287878036499,-1.0757075548171997,-0.12899354100227356,1.2209389209747314,0.2189890444278717,1.0845686197280884,-0.2594805657863617,1.0441370010375977
106,162042,162043,0.02597648650407791,-0.04412705451250076,0.9554701447486877,-0.39868786931037903,-1.0999433994293213,-1.0855458974838257,-0.12449377030134201,1.2134393453598022,0.20548972487449646,1.1292390823364258,-0.284700870513916,1.0292866230010986
107,162052,162053,-0.03428090736269951,-0.03330376744270325,0.9552015066146851,0.8453013300895691,0.6716986894607544,-0.9416947960853577,-0.12449377030134201,1.231438398361206,0.20548972487449646,1.1763373613357544,-0.29605263471603394,1.0136135816574097
108,162062,162063,-0.08628649264574051,0.030809614807367325,1.1203413009643555,0.6041756272315979,2.8895490169525146,-1.2460596561431885,-0.1319933980703354,1.2299385070800781,0.21298934519290924,1.203461766242981,-0.29252830147743225,1.000483512878418
109,162072,162073,-0.0640183687210083,-0.11569850146770477,1.0205092430114746,-0.32372501492500305,4.880738735198975,-1.493315577507019,-0.12599369883537292,1.2239388227462769,0.20698964595794678,1.1870924234390259,-0.2834200859069824,0.9894859194755554
110,162082,162083,-0.0536331944167614,-0.06845162808895111,1.1004890203475952,-0.19310425221920013,6.742929935455322,-1.064283013343811,-0.11999399960041046,1.2269386053085327,0.21298934519290924,1.1346707344055176,-0.29031702876091003,0.975989818572998
111,162092,162093,-0.00487296050414443,-0.06223473325371742,1.0031991004943848,0.18359212577342987,7.350937843322754,-0.958224892616272,-0.12149392068386078,1.216439127922058,0.2084895670413971,1.0404410362243652,-0.29531723260879517,0.9671636819839478
112,162102,162103,-0.04319952055811882,-0.3158038258552551,1.001141905784607,1.4451998472213745,6.724370002746582,-1.4107718467712402,-0.11099445074796677,1.2149392366409302,0.20698964595794678,0.9120585918426514,-0.2980238199234009,0.9599582552909851
113,162112,162113,0.04532996565103531,-0.21043628454208374,0.9872018098831177,2.222578287124634,4.048424243927002,-1.592289924621582,-0.11249437183141708,1.216439127922058,0.2084895670413971,0.7774977087974548,-0.2943888306617737,0.9510857462882996
114,162122,162123,0.09018294513225555,-0.020959114655852318,1.0503430366516113,2.889981508255005,0.43042007088661194,-2.199836492538452,-0.1229938492178917,1.2179391384124756,0.21598920226097107,0.6929666996002197,-0.27854257822036743,0.9401434659957886
115,162132,162133,0.12695904076099396,-0.03224978223443031,0.9664463996887207,2.3890180587768555,-2.3624706268310547,-2.331887722015381,-0.1229938492178917,1.2119393348693848,0.20098994672298431,0.6806505918502808,-0.24395088851451874,0.9197272062301636
116,162142,162143,-0.03258558735251427,-0.017533503472805023,0.9756782650947571,1.3120402097702026,-4.32338809967041,-1.7530386447906494,-0.12449377030134201,1.2344383001327515,0.19649016857147217,0.6678583025932312,-0.2813456058502197,0.8914772272109985
117,162152,162153,-0.006622458342462778,0.07314670085906982,1.026475429534912,0.6932399272918701,-2.4756276607513428,-2.035573720932007,-0.12149392068386078,1.2134393453598022,0.20248986780643463,0.6935561895370483,-0.25975334644317627,0.8744746446609497
118,162162,162163,-0.03435470163822174,-0.07389670610427856,1.0648754835128784,-1.1842104196548462,-0.3405172526836395,-1.8702527284622192,-0.113994300365448,1.2269386053085327,0.21598920226097107,0.7599598169326782,-0.253917932510376,0.8511298894882202
119,162172,162173,-0.0347585491836071,-0.26531994342803955,1.038569688796997,-1.3811761140823364,2.5254781246185303,-1.986337423324585,-0.11849407106637955,1.2194390296936035,0.21148942410945892,0.8713685274124146,-0.20312239229679108,0.8284603953361511
120,162182,162183,-0.05414983257651329,-0.07385464012622833,1.0713742971420288,-1.0244508981704712,4.508838653564453,-1.911207675933838,-0.12599369883537292,1.2119393348693848,0.21298934519290924,0.7928822040557861,-0.28913402557373047,0.8084510564804077
121,162192,162193,-0.040137406438589096,-0.0336461067199707,0.9774834513664246,-0.3134017288684845,6.788025856018066,-1.6151752471923828,-0.12449377030134201,1.207439661026001,0.20248986780643463,0.7376299500465393,-0.29839667677879333,0.7887098789215088
122,162202,162203,-0.06352728605270386,0.01882987469434738,1.0739020109176636,3.2950685024261475,6.3675360679626465,-0.9442641735076904,-0.12599369883537292,1.2209389209747314,0.2099895030260086,0.6434179544448853,-0.2958504557609558,0.7767289876937866
123,162212,162213,0.012617061845958233,-0.1802462339401245,1.0070558786392212,4.751556396484375,4.9032087326049805,-1.557540774345398,-0.12749361991882324,1.2224388122558594,0.2084895670413971,0.5549418926239014,-0.23720616102218628,0.7720863819122314
124,162222,162223,0.017303429543972015,-0.12913915514945984,1.0116193294525146,5.742460250854492,2.3541221618652344,-1.417840838432312,-0.13049347698688507,1.207439661026001,0.21148942410945892,0.4984069764614105,-0.1575131118297577,0.7617033123970032
125,162232,162233,-0.03624149411916733,-0.07866188138723373,0.9763975739479065,2.86510968208313,1.2858723402023315,-1.2536330223083496,-0.12599369883537292,1.2029398679733276,0.2099895030260086,0.46827012300491333,-0.07309214025735855,0.7504020929336548
126,162242,162243,-0.004505631048232317,-0.10178086906671524,0.9329087138175964,0.6829292178153992,-0.24683961272239685,-1.5161877870559692,-0.1229938492178917,1.2029398679733276,0.19799008965492249,0.469555139541626,-0.030054042115807533,0.7378768920898438
127,162252,162253,-0.08910500258207321,-0.01725747622549534,0.996651291847229,-1.0627518892288208,-0.5095219016075134,-1.4852749109268188,-0.11849407106637955,1.2104394435882568,0.199490025639534,0.4810492992401123,-0.09986404329538345,0.7122942805290222
128,162262,162263,0.00590050732716918,-0.08473382890224457,0.985738217830658,-3.3573460578918457,0.3688843846321106,-1.2946785688400269,-0.11999399960041046,1.2149392366409302,0.20398980379104614,0.49560078978538513,-0.12092747539281845,0.6956156492233276
129,162272,162273,-0.08440514653921127,-0.1550827920436859,1.1205085515975952,-4.321974754333496,1.2039061784744263,-0.92839515209198,-0.1229938492178917,1.2179391384124756,0.20098994672298431,0.5095373392105103,-0.10220092535018921,0.6880717873573303
130,162282,162283,-0.030129261314868927,-0.21133458614349365,0.9289580583572388,-3.6050097942352295,2.049814462661743,-0.2578130066394806,-0.11699414998292923,1.208939552307129,0.20098994672298431,0.512464702129364,-0.1669415533542633,0.6753608584403992
131,162292,162293,-0.05618199706077576,-0.05337624251842499,0.9775805473327637,-0.637958288192749,2.938594341278076,-0.16275569796562195,-0.11549422144889832,1.2134393453598022,0.20548972487449646,0.4220672845840454,-0.21663038432598114,0.6740731000900269
132,162302,162303,0.018183114007115364,-0.054326847195625305,0.9084283113479614,2.138235092163086,2.1446385383605957,-0.49318185448646545,-0.11999399960041046,1.2179391384124756,0.20398980379104614,0.3102545738220215,-0.22508086264133453,0.678117036819458
133,162312,162313,0.020412718877196312,-0.18039759993553162,0.9658546447753906,4.537418842315674,0.7657729983329773,-1.2723742723464966,-0.1229938492178917,1.2149392366409302,0.20098994672298431,0.15300016105175018,-0.18766549229621887,0.6870805025100708
134,162322,162323,-0.033998943865299225,-0.6469205617904663,0.9961009621620178,5.197237491607666,-1.8091373443603516,-1.2426753044128418,-0.13049347698688507,1.207439661026001,0.20548972487449646,0.14315366744995117,-0.1197650134563446,0.6785855293273926
135,162332,162333,0.0343334823846817,-0.3758683204650879,0.9989857077598572,3.981001853942871,-3.111863613128662,-1.8603320121765137,-0.12149392068386078,1.2014398574829102,0.2084895670413971,-0.004783932119607925,0.031967442482709885,0.6955508589744568
136,162342,162343,-0.05992100015282631,0.008033869788050652,1.0624017715454102,0.5157701969146729,-6.423135280609131,-1.1359856128692627,-0.1229938492178917,1.1969401836395264,0.19799008965492249,0.09583751857280731,0.07865866273641586,0.6754071712493896
137,162352,162353,0.02530493400990963,-0.41487348079681396,0.9098024368286133,-2.157642364501953,-8.46336555480957,-1.079107642173767,-0.11849407106637955,1.192440390586853,0.2084895670413971,0.23850961029529572,0.07492923736572266,0.6550659537315369
138,162362,162363,-0.01767682656645775,-0.1579264998435974,1.0307273864746094,-3.867969512939453,-8.687332153320312,-1.5181362628936768,-0.10349482297897339,1.2014398574829102,0.1904904693365097,0.3822132349014282,0.025643164291977882,0.6346367597579956
139,162372,162373,0.025889702141284943,-0.10397317260503769,0.8798019886016846,-6.212259292602539,-7.037613391876221,-1.001593828201294,-0.11699414998292923,1.2119393348693848,0.19799008965492249,0.45898669958114624,-0.05402058735489845,0.6138960719108582
140,162382,162383,0.13945110142230988,-0.4360714852809906,0.8111562728881836,-8.083584785461426,-2.8198506832122803,-0.8474389910697937,-0.12749361991882324,1.1954401731491089,0.21148942410945892,0.37981781363487244,-0.0915265679359436,0.6184598207473755
141,162392,162393,0.031103160232305527,-0.32849377393722534,0.9921734929084778,-5.140197277069092,-1.0667415857315063,-0.7703942656517029,-0.12599369883537292,1.208939552307129,0.2099895030260086,0.49066635966300964,-0.07649940997362137,0.6229506731033325
142,162402,162403,-0.03372342884540558,-0.010043100453913212,0.9071683287620544,-3.3283064365386963,0.1493697315454483,-0.49752065539360046,-0.12449377030134201,1.1984400749206543,0.21148942410945892,0.4766025245189667,-0.16902583837509155,0.6099909543991089
143,162412,162413,-0.014523071236908436,0.11151539534330368,0.9728661775588989,-1.4818509817123413,-0.19254282116889954,-0.6423576474189758,-0.11549422144889832,1.2224388122558594,0.20548972487449646,0.4705113172531128,-0.23784054815769196,0.5967689752578735
144,162422,162423,0.04573141783475876,-0.1222418025135994,0.8922042846679688,1.3937028646469116,-1.4597676992416382,-1.258663296699524,-0.13499325513839722,1.2179391384124756,0.19799008965492249,0.44076576828956604,-0.28574323654174805,0.5865638852119446
145,162432,162433,0.2121509164571762,-0.24985451996326447,0.9050259590148926,4.026034355163574,-3.3533661365509033,-0.9619143009185791,-0.12449377030134201,1.2134393453598022,0.20548972487449646,0.4357418119907379,-0.27920839190483093,0.5780381560325623
146,162442,162443,0.20684927701950073,-0.5287149548530579,1.0197433233261108,4.294957637786865,-4.636368751525879,-1.566246509552002,-0.12449377030134201,1.2044397592544556,0.199490025639534,0.48598846793174744,-0.21694619953632355,0.5743134021759033
147,162452,162453,0.03375767543911934,-0.35851871967315674,0.9902714490890503,2.570340633392334,-5.000674247741699,-1.9044992923736572,-0.113994300365448,1.2029398679733276,0.2099895030260086,0.5817418694496155,-0.157020702958107,0.5604529976844788
148,162462,162463,-0.16754217445850372,-0.1690472662448883,1.1609896421432495,1.2704555988311768,-6.167762279510498,-0.9426138401031494,-0.1229938492178917,1.1999399662017822,0.20698964595794678,0.6247634887695312,-0.18900437653064728,0.5345469117164612
149,162472,162473,-0.09094556421041489,0.05230610445141792,1.1035237312316895,-1.489730715751648,-1.7123010158538818,-1.6554172039031982,-0.12599369883537292,1.2059396505355835,0.21598920226097107,0.7369211912155151,-0.1703551709651947,0.522986888885498
150,162482,162483,-0.0761435329914093,0.15968981385231018,1.0661427974700928,-2.7771084308624268,1.9793585538864136,-1.8719102144241333,-0.12449377030134201,1.2104394435882568,0.21448926627635956,0.7463408708572388,-0.2732827961444855,0.4932103455066681
151,162492,162493,0.1369398683309555,-0.37683239579200745,1.0488172769546509,-3.0993595123291016,4.8441481590271,-0.9753672480583191,-0.11249437183141708,1.207439661026001,0.21448926627635956,0.6984029412269592,-0.32742756605148315,0.4736447334289551
152,162502,162503,0.003152088727802038,-0.06775031238794327,0.982018768787384,-0.5464352965354919,6.4571733474731445,-0.6186979413032532,-0.10949452221393585,1.2044397592544556,0.2084895670413971,0.6290698647499084,-0.3729249835014343,0.46463677287101746
153,162512,162513,0.004499408416450024,0.15236639976501465,0.9344757199287415,5.077817916870117,7.132175922393799,-0.7234800457954407,-0.11849407106637955,1.2014398574829102,0.2084895670413971,0.5370482206344604,-0.3726838231086731,0.46422278881073
154,162522,162523,-0.12159678339958191,0.3845783472061157,0.9506286978721619,6.380059719085693,5.766208648681641,-0.6324780583381653,-0.12749361991882324,1.2044397592544556,0.21148942410945892,0.43276846408843994,-0.2943234145641327,0.4659208059310913
155,162532,162533,-0.1899690479040146,0.24772508442401886,1.0547152757644653,10.524442672729492,0.7801163196563721,-1.1287572383880615,-0.10949452221393585,1.2134393453598022,0.2084895670413971,0.3505663275718689,-0.1818883717060089,0.46989724040031433
156,162542,162543,-0.15646754205226898,0.2590184807777405,1.150201439857483,9.778335571289062,1.3538172245025635,-1.8224328756332397,-0.10799460113048553,1.208939552307129,0.21298934519290924,0.32426926493644714,-0.02114791050553322,0.47037312388420105
157,162552,162553,-0.046483274549245834,-0.0016733629163354635,0.8634852766990662,7.109708309173584,-5.80010986328125,-2.2847087383270264,-0.1229938492178917,1.2239388227462769,0.20698964595794678,0.292877733707428,-0.0820968896150589,0.43433964252471924
158,162562,162563,-0.016810579225420952,-0.07360374182462692,0.936786949634552,3.9585447311401367,-7.870358467102051,-1.4566930532455444,-0.12149392068386078,1.2014398574829102,0.20248986780643463,0.3913443982601166,0.03840486705303192,0.41548821330070496
159,162572,162573,0.018740227445960045,-0.050510916858911514,0.9429873824119568,-0.8411985635757446,-6.902151584625244,-1.06357741355896,-0.11699414998292923,1.2149392366409302,0.20398980379104614,0.39216625690460205,0.02768806554377079,0.3986014425754547
160,162582,162583,-0.08234347403049469,0.06204208731651306,0.9817671179771423,-3.4281578063964844,-6.357903003692627,-0.9235076308250427,-0.11549422144889832,1.2014398574829102,0.21148942410945892,0.4892929494380951,0.025536227971315384,0.3856239914894104
161,162592,162593,0.0314704105257988,-0.18720678985118866,0.945758044719696,-5.042143821716309,-3.395325183868408,-0.03611726313829422,-0.113994300365448,1.2209389209747314,0.21598920226097107,0.6101890802383423,-0.02167193777859211,0.37104886770248413
162,162602,162603,-0.010183262638747692,-0.34046176075935364,0.9423494935035706,-3.815960645675659,-0.2746419608592987,0.1321200579404831,-0.12749361991882324,1.2044397592544556,0.1904904693365097,0.6592212915420532,-0.098667211830616,0.3624928295612335
163,162612,162613,-0.05581141635775566,-0.07264979928731918,1.003037691116333,-1.4509271383285522,3.378438949584961,0.42629459500312805,-0.12899354100227356,1.2059396505355835,0.2099895030260086,0.3046128451824188,-0.01035416778177023,0.3952156603336334
164,162622,162623,0.03627782687544823,-0.5599958300590515,0.9578802585601807,1.7653331756591797,5.22613000869751,0.15613502264022827,-0.11699414998292923,1.2239388227462769,0.20098994672298431,0.1928378939628601,-0.03046533651649952,0.40113651752471924
165,162632,162633,-0.0006938917795196176,-0.431128591299057,0.9632607698440552,4.132365703582764,2.577523946762085,-0.19369575381278992,-0.11699414998292923,1.2119393348693848,0.20698964595794678,0.21505747735500336,0.003723462577909231,0.4008437991142273
166,162642,162643,-0.11711388826370239,-0.6799997687339783,1.1072652339935303,4.088351726531982,-1.9076478481292725,-0.5791158080101013,-0.113994300365448,1.208939552307129,0.20698964595794678,0.16226457059383392,0.07588796317577362,0.4060661196708679
167,162652,162653,-0.07152798771858215,-0.47712886333465576,1.0084667205810547,5.373585224151611,-6.698922157287598,-0.21641311049461365,-0.113994300365448,1.2119393348693848,0.20098994672298431,0.26769542694091797,0.15338370203971863,0.4016841948032379
168,162662,162663,-0.13876572251319885,-0.13430461287498474,0.9740879535675049,3.330399990081787,-9.534052848815918,-1.2103493213653564,-0.10949452221393585,1.2194390296936035,0.21448926627635956,0.4357703924179077,0.17668724060058594,0.38505616784095764
169,162672,162673,-0.03032202459871769,0.010794740170240402,1.0160855054855347,0.08230806142091751,-10.391183853149414,-0.5985250473022461,-0.10949452221393585,1.2044397592544556,0.18749062716960907,0.6250371336936951,0.23397579789161682,0.37002065777778625
170,162682,162683,0.04751008003950119,-0.1372632533311844,0.9251334071159363,-3.3037142753601074,-9.437631607055664,-0.5430374145507812,-0.11099445074796677,1.2059396505355835,0.2099895030260086,0.5896301865577698,0.22773821651935577,0.3664929270744324
171,162692,162693,-0.024129746481776237,-0.0025709085166454315,1.0603901147842407,-4.948026657104492,-5.665907382965088,-1.4054977893829346,-0.11249437183141708,1.216439127922058,0.21448926627635956,0.6698947548866272,0.09741109609603882,0.3495482802391052
172,162702,162703,0.07071252167224884,-0.0856604278087616,1.098781943321228,-7.137490272521973,-1.8703044652938843,-0.47748756408691406,-0.11999399960041046,1.2209389209747314,0.21598920226097107,0.7829599380493164,0.021973194554448128,0.33632248640060425
173,162712,162713,-0.04276777058839798,-0.6042563915252686,1.0251343250274658,-5.255486011505127,0.5440754294395447,5.791441799374297e-05,-0.12599369883537292,1.2119393348693848,0.21298934519290924,0.8369055390357971,-0.08211784064769745,0.33158326148986816
174,162722,162723,0.021760864183306694,-0.6755951642990112,0.9389775395393372,-1.6849794387817383,2.8328158855438232,0.40570053458213806,-0.11249437183141708,1.2134393453598022,0.22048896551132202,0.8497422933578491,-0.08334047347307205,0.3368319272994995
175,162732,162733,-0.025844037532806396,-0.14862476289272308,1.0247430801391602,1.8032127618789673,4.274651050567627,0.37600448727607727,-0.11999399960041046,1.2269386053085327,0.2099895030260086,0.8268049955368042,-0.1011308804154396,0.3401552736759186
176,162742,162743,-0.01248225849121809,-0.08747689425945282,0.9524860382080078,4.367155075073242,3.9529736042022705,-0.0488973967730999,-0.1049947515130043,1.2239388227462769,0.21298934519290924,0.7803587913513184,-0.0639997199177742,0.34511134028434753
177,162752,162753,0.04113982245326042,-0.08238416910171509,0.9561404585838318,7.529703140258789,2.1680245399475098,-0.5304168462753296,-0.11549422144889832,1.2224388122558594,0.21148942410945892,0.7247335910797119,0.012222709134221077,0.3471145033836365
178,162762,162763,-0.12309378385543823,-0.051540348678827286,1.0956542491912842,7.1422600746154785,1.8195010423660278,-0.7930346727371216,-0.11849407106637955,1.2284384965896606,0.19349032640457153,0.617371141910553,-0.012348145246505737,0.33741214871406555
179,162772,162773,-0.02397799864411354,-0.027299389243125916,0.9950956702232361,6.636312007904053,-0.31452369689941406,-1.321390986442566,-0.12149392068386078,1.2104394435882568,0.22048896551132202,0.6002495288848877,0.10995154082775116,0.3346939980983734
180,162782,162783,0.030080677941441536,-0.08857530355453491,0.8945304751396179,3.8292853832244873,-1.785413146018982,-1.9147841930389404,-0.113994300365448,1.2209389209747314,0.20398980379104614,0.6911807060241699,0.21779191493988037,0.32524436712265015
181,162792,162793,-0.007942075841128826,-0.1174316331744194,0.948447048664093,0.8102293014526367,-2.2205092906951904,-1.062332272529602,-0.11549422144889832,1.216439127922058,0.20248986780643463,0.7355247735977173,0.27744877338409424,0.3063533306121826
182,162802,162803,-0.08752349764108658,-0.11188055574893951,1.0659677982330322,-2.4572062492370605,-1.274303674697876,-0.6233813762664795,-0.11549422144889832,1.2224388122558594,0.20248986780643463,0.8053916096687317,0.2259206622838974,0.290224552154541
183,162812,162813,0.031290460377931595,-0.12560045719146729,1.1320773363113403,-5.672599792480469,0.48839956521987915,-0.40296539664268494,-0.10349482297897339,1.2254387140274048,0.21148942410945892,0.7843450903892517,0.12878981232643127,0.276710569858551
184,162822,162823,0.03866345062851906,-0.3006663918495178,1.009324550628662,-5.544083118438721,0.6146348714828491,0.29288724064826965,-0.1229938492178917,1.2149392366409302,0.21598920226097107,0.7927027344703674,0.12362942844629288,0.2731297016143799
185,162832,162833,-0.07984092086553574,-0.20216378569602966,1.079147458076477,-3.4904403686523438,2.452559232711792,0.28654128313064575,-0.113994300365448,1.2419378757476807,0.20698964595794678,0.791985034942627,0.043872423470020294,0.2764238715171814
186,162842,162843,-0.034837253391742706,0.000439237046521157,1.0642067193984985,-0.8097013235092163,3.7493064403533936,0.676298201084137,-0.1229938492178917,1.2239388227462769,0.19199039041996002,0.7573251724243164,0.003464098321273923,0.2810434103012085
187,162852,162853,-0.09369874000549316,0.11211499571800232,1.1457372903823853,2.5473415851593018,4.660091876983643,-0.1360144317150116,-0.1229938492178917,1.2239388227462769,0.19199039041996002,0.698432445526123,0.004973732400685549,0.28484269976615906
188,162862,162863,-0.046352509409189224,0.04246801137924194,0.9919771552085876,4.504350185394287,3.7388241291046143,0.08652730286121368,-0.12899354100227356,1.2239388227462769,0.21298934519290924,0.6236929893493652,0.05077095702290535,0.28504765033721924
189,162872,162873,-0.044206734746694565,0.07748576253652573,1.0221757888793945,5.772512912750244,3.8545303344726562,0.23537810146808624,-0.12899354100227356,1.2239388227462769,0.21298934519290924,0.5443041324615479,0.12304406613111496,0.28924188017845154
190,162882,162883,-0.0003886368067469448,-0.24061979353427887,0.947536289691925,6.260554790496826,1.7631614208221436,0.5741821527481079,-0.1229938492178917,1.2149392366409302,0.20398980379104614,0.4764750897884369,0.14549925923347473,0.2887416183948517
191,162892,162893,-0.010720920749008656,-0.07895023375749588,0.9774630069732666,4.911421298980713,0.4715724289417267,0.4651668965816498,-0.12899354100227356,1.232938289642334,0.20698964595794678,0.5269851088523865,0.25410255789756775,0.29774171113967896
192,162902,162903,0.0035493671894073486,-0.16415147483348846,0.997009813785553,2.770453929901123,0.4806064963340759,0.7160353064537048,-0.12449377030134201,1.2254387140274048,0.2174891233444214,0.5284935832023621,0.33829525113105774,0.30261746048927307
193,162912,162913,-0.03521250933408737,-0.2618301510810852,1.0576198101043701,-0.678485095500946,0.5174339413642883,0.14070220291614532,-0.12449377030134201,1.231438398361206,0.20248986780643463,0.5423738956451416,0.3880886137485504,0.3075592517852783
194,162922,162923,0.08963803946971893,-0.23305806517601013,0.9485709071159363,-5.3381028175354,0.13092352449893951,-0.5022047758102417,-0.1229938492178917,1.2269386053085327,0.2099895030260086,0.6164523363113403,0.3788071274757385,0.309818297624588
195,162932,162933,0.09146136790513992,-0.17556801438331604,1.028063416481018,-7.81790018081665,0.013029593974351883,0.8171831965446472,-0.1229938492178917,1.2299385070800781,0.2099895030260086,0.5387884974479675,0.292167067527771,0.30570149421691895
196,162942,162943,-0.045340396463871,-0.13662974536418915,1.0366281270980835,-8.765002250671387,0.8104820251464844,0.21213681995868683,-0.13049347698688507,1.2194390296936035,0.21148942410945892,0.5531628131866455,0.1720266342163086,0.3133021295070648
197,162952,162953,-0.18716402351856232,0.00980508141219616,1.0012058019638062,-6.220338821411133,2.9954559803009033,0.6016055941581726,-0.11849407106637955,1.2374380826950073,0.21448926627635956,0.5538948774337769,0.1149885356426239,0.3195120096206665
198,162962,162963,-0.013403646647930145,-0.05434153974056244,0.9842513203620911,-3.3177545070648193,3.6329469680786133,0.9444006681442261,-0.1229938492178917,1.232938289642334,0.21298934519290924,0.5163933038711548,0.09195182472467422,0.32459792494773865
199,162972,162973,-0.15337857604026794,0.19596430659294128,1.1222280263900757,0.5471445918083191,3.2395756244659424,1.4768928289413452,-0.11849407106637955,1.2404379844665527,0.2084895670413971,0.4535813629627228,-0.10603772848844528,0.3264909088611603
200,162982,162983,0.022811679169535637,-0.057856686413288116,1.0203584432601929,3.196047782897949,3.4638254642486572,0.2840806841850281,-0.13049347698688507,1.2344383001327515,0.20548972487449646,0.4585666060447693,-0.09425098448991776,0.33882665634155273
201,162992,162993,-0.006035460624843836,-0.04508363455533981,1.144910454750061,7.021498203277588,2.401235818862915,0.8179468512535095,-0.11999399960041046,1.2389379739761353,0.2189890444278717,0.393416166305542,-0.04138896241784096,0.3430348336696625
202,163002,163003,-0.03859563544392586,-0.020709948614239693,1.0580661296844482,8.642949104309082,2.273848056793213,0.12826207280158997,-0.13049347698688507,1.2254387140274048,0.2084895670413971,0.4231884777545929,0.07725886255502701,0.34933361411094666
203,163012,163013,-0.00972928386181593,-0.053733859211206436,1.0342018604278564,7.549676895141602,1.4998109340667725,-0.24116821587085724,-0.12899354100227356,1.2299385070800781,0.21298934519290924,0.30145424604415894,0.22142963111400604,0.350176066160202
204,163022,163023,0.01815909333527088,0.007425373420119286,1.109687089920044,4.562837600708008,1.1413542032241821,-0.46543362736701965,-0.13799309730529785,1.2239388227462769,0.2189890444278717,0.2561343014240265,0.33949652314186096,0.3512687683105469
205,163032,163033,0.034812573343515396,-0.1507786363363266,0.9645276069641113,-0.7249371409416199,-0.768954336643219,-0.20140032470226288,-0.13499325513839722,1.2239388227462769,0.20098994672298431,0.2011927217245102,0.3987993597984314,0.35118481516838074
206,163042,163043,-0.07253242284059525,0.01576077565550804,1.0282784700393677,-6.56350564956665,-2.6603524684906006,-0.2944810390472412,-0.12899354100227356,1.2179391384124756,0.20398980379104614,0.20417475700378418,0.3796541094779968,0.3483338952064514
207,163052,163053,0.003065991448238492,-0.11441302299499512,0.9700150489807129,-10.2943754196167,-2.728433132171631,0.02890554815530777,-0.1229938492178917,1.2209389209747314,0.20398980379104614,0.24890592694282532,0.27334490418434143,0.34339576959609985
208,163062,163063,0.08600210398435593,-0.1274348646402359,1.053881049156189,-11.094935417175293,-1.2436379194259644,1.1767545938491821,-0.11099445074796677,1.232938289642334,0.21298934519290924,0.29211708903312683,0.10886330902576447,0.3415210247039795
209,163072,163073,0.11120519042015076,-0.1100325956940651,1.132025122642517,-8.494095802307129,0.4483373463153839,1.280825138092041,-0.11999399960041046,1.2149392366409302,0.19799008965492249,0.30935144424438477,-0.07122941315174103,0.3470954895019531
210,163082,163083,-0.01619313471019268,-0.05540769174695015,0.9860644340515137,-4.388359069824219,1.4135334491729736,0.8452112078666687,-0.11549422144889832,1.2134393453598022,0.2084895670413971,0.305209219455719,-0.06064509227871895,0.3676987588405609
211,163092,163093,0.04224808141589165,-0.1847667545080185,1.0162750482559204,0.9366374611854553,3.8030831813812256,1.259948492050171,-0.1319933980703354,1.2179391384124756,0.19799008965492249,0.2956753075122833,-0.06353259831666946,0.3808484375476837
212,163102,163103,-0.023656044155359268,-0.0499725379049778,1.0381908416748047,3.474437713623047,5.5616865158081055,0.33692726492881775,-0.11699414998292923,1.2059396505355835,0.2099895030260086,0.2516718804836273,0.019024886190891266,0.39776504039764404
213,163112,163113,-0.009898900054395199,0.058884527534246445,1.0454164743423462,4.344837188720703,5.916062831878662,-0.23718789219856262,-0.1229938492178917,1.208939552307129,0.21298934519290924,0.23300495743751526,0.06786689907312393,0.4048432409763336
214,163122,163123,-0.04678632691502571,0.08439035713672638,1.0923633575439453,4.492870807647705,5.6754584312438965,-0.28028568625450134,-0.12599369883537292,1.2119393348693848,0.20398980379104614,0.13224011659622192,-0.07942233234643936,0.396414190530777
215,163132,163133,-0.049123212695121765,-0.18243935704231262,0.9992316365242004,3.775932788848877,3.072352886199951,-0.15007571876049042,-0.11849407106637955,1.2104394435882568,0.2084895670413971,0.10591472685337067,-0.005201422143727541,0.40014323592185974
216,163142,163143,-0.19202567636966705,-0.13233035802841187,0.9329903721809387,1.8025107383728027,0.15659409761428833,-0.3938728868961334,-0.10949452221393585,1.2044397592544556,0.22348882257938385,0.031512048095464706,0.0508749894797802,0.4005920886993408
217,163152,163153,-0.11885033547878265,0.025402674451470375,1.0009063482284546,-2.3570797443389893,1.3268027305603027,-0.4566195607185364,-0.12599369883537292,1.2149392366409302,0.21598920226097107,0.018139587715268135,0.21716108918190002,0.4057779312133789
218,163162,163163,-0.0840940773487091,-0.35944199562072754,1.073982834815979,-4.821711540222168,1.4932969808578491,-0.76470547914505,-0.12599369883537292,1.2119393348693848,0.20698964595794678,-0.005392528139054775,0.02905135042965412,0.38549450039863586
219,163172,163173,0.03779415041208267,-0.22083166241645813,0.9968188405036926,-6.631831169128418,0.9421432614326477,0.07690632343292236,-0.12749361991882324,1.1954401731491089,0.2084895670413971,-0.022193264216184616,-0.04388875886797905,0.37725600600242615
220,163182,163183,-0.005474017467349768,-0.33730629086494446,1.0181013345718384,-5.379798412322998,-0.5136223435401917,0.5417616963386536,-0.12899354100227356,1.2119393348693848,0.20398980379104614,0.040312301367521286,-0.14586475491523743,0.37592047452926636
221,163192,163193,-0.045826394110918045,-0.406368225812912,1.002219319343567,-2.951442003250122,-0.9651321768760681,-0.10484013706445694,-0.12149392068386078,1.207439661026001,0.199490025639534,-0.014402518980205059,-0.08396055549383163,0.3913174271583557
222,163202,163203,0.008404159918427467,-0.5146586298942566,0.9726702570915222,0.5441915392875671,-2.207200288772583,-1.078014612197876,-0.11849407106637955,1.216439127922058,0.19649016857147217,0.013828353025019169,-0.1258009672164917,0.3899787962436676
223,163212,163213,0.04156264290213585,-0.292159765958786,0.9893444180488586,4.027414798736572,-0.7952703237533569,-1.0534813404083252,-0.10199490189552307,1.2059396505355835,0.21298934519290924,0.13846053183078766,0.02750866860151291,0.39387574791908264
224,163222,163223,-0.005711079575121403,-0.22823570668697357,0.9690764546394348,3.3872108459472656,1.7481498718261719,-1.7107118368148804,-0.12149392068386078,1.2134393453598022,0.20548972487449646,0.07718838006258011,0.019004985690116882,0.3739565312862396
225,163232,163233,-0.047045860439538956,0.00542782386764884,1.0607997179031372,0.6875196099281311,3.788982629776001,-1.3979651927947998,-0.11999399960041046,1.208939552307129,0.2189890444278717,0.03918328881263733,0.06119959056377411,0.35746192932128906
226,163242,163243,-0.07203906774520874,0.014980247244238853,1.0248773097991943,-2.1583187580108643,4.88891077041626,-1.6311821937561035,-0.12749361991882324,1.207439661026001,0.21448926627635956,-0.02402210235595703,0.058741599321365356,0.3415413796901703
227,163252,163253,0.014411350712180138,-0.30821797251701355,0.9449860453605652,-3.549576759338379,5.117456436157227,-1.4913541078567505,-0.11849407106637955,1.2134393453598022,0.20548972487449646,-0.09941317141056061,0.01827847771346569,0.32423505187034607
228,163262,163263,0.018241561949253082,-0.9297206997871399,0.9282262325286865,-4.674242973327637,1.3823020458221436,-1.9073617458343506,-0.12599369883537292,1.2179391384124756,0.2099895030260086,-0.17210951447486877,-0.04662320390343666,0.3070535957813263
229,163272,163273,-0.01012004166841507,-0.6065751910209656,0.947502613067627,-4.08571195602417,-1.996962308883667,-1.8528048992156982,-0.12449377030134201,1.2254387140274048,0.2084895670413971,-0.17383283376693726,-0.12353342026472092,0.2843514680862427
230,163282,163283,-0.04966358840465546,-0.13697433471679688,1.0224117040634155,-2.26358962059021,-3.7506041526794434,-1.2308076620101929,-0.12149392068386078,1.2104394435882568,0.2084895670413971,-0.12266302853822708,-0.184431254863739,0.26496317982673645
231,163292,163293,0.020490724593400955,0.08819901198148727,1.0672377347946167,0.1620069295167923,-4.707785606384277,-1.5962363481521606,-0.10949452221393585,1.2134393453598022,0.20548972487449646,-0.04761572554707527,-0.21469712257385254,0.24892260134220123
232,163302,163303,-0.022286592051386833,0.00032199008273892105,1.0323151350021362,3.0288991928100586,-5.08444356918335,-1.8306562900543213,-0.11699414998292923,1.2059396505355835,0.20398980379104614,0.03241787850856781,-0.20581787824630737,0.2325541079044342
233,163312,163313,0.010193942114710808,-0.10680413991212845,0.921466588973999,4.417455673217773,-4.27846622467041,-2.436981678009033,-0.113994300365448,1.2179391384124756,0.20398980379104614,0.10682011395692825,-0.0884842574596405,0.2211586982011795
234,163322,163323,-0.021179916337132454,0.07577905058860779,1.1105341911315918,3.9464542865753174,-1.9617260694503784,-2.162501335144043,-0.11999399960041046,1.2029398679733276,0.20098994672298431,0.011896727606654167,-0.0273674875497818,0.20189854502677917
235,163332,163333,-0.11035320907831192,-0.35311728715896606,1.041448712348938,2.6650521755218506,0.6459983587265015,-3.3969833850860596,-0.10649467259645462,1.2104394435882568,0.20548972487449646,-0.04042845591902733,0.028882784768939018,0.18581147491931915
236,163342,163343,0.03325960412621498,-0.5362079739570618,0.8527400493621826,0.01734396070241928,1.416905164718628,-3.1691067218780518,-0.113994300365448,1.2149392366409302,0.21298934519290924,-0.047535140067338943,0.06260570883750916,0.15645307302474976
237,163352,163353,-0.00508425198495388,-0.08529966324567795,0.9498459696769714,-3.6763882637023926,-0.10832542926073074,-2.9261507987976074,-0.11099445074796677,1.208939552307129,0.2099895030260086,0.011926522478461266,-0.01735859364271164,0.11415962874889374
238,163362,163363,-0.05638229474425316,0.05298968404531479,1.0960323810577393,-5.823647975921631,0.33489933609962463,-2.2673463821411133,-0.11999399960041046,1.2209389209747314,0.19499024748802185,0.09015195071697235,-0.008035916835069656,0.08882591873407364
239,163372,163373,0.030570995062589645,0.0913945883512497,0.9762823581695557,-4.388814449310303,-0.22858603298664093,-2.110466957092285,-0.12449377030134201,1.2044397592544556,0.21148942410945892,0.09025345742702484,0.03969072550535202,0.0757647380232811
240,163382,163383,-0.02985207922756672,0.02160271443426609,1.0571963787078857,-3.6422646045684814,1.3788378238677979,-2.9584848880767822,-0.113994300365448,1.2209389209747314,0.19199039041996002,0.017696037888526917,-0.046174511313438416,0.051728375256061554
241,163392,163393,-0.05024237930774689,-0.35737571120262146,1.0615676641464233,-3.228118896484375,1.5309138298034668,-2.7502284049987793,-0.12449377030134201,1.2104394435882568,0.199490025639534,0.05705343931913376,-0.18650579452514648,0.01391112245619297
242,163402,163403,-0.13334263861179352,-0.7845450043678284,1.1194857358932495,-1.132240653038025,2.552870035171509,-2.582425832748413,-0.11699414998292923,1.2149392366409302,0.19199039041996002,0.025057561695575714,-0.17290575802326202,-0.007617246359586716
243,163412,163413,-0.07983008027076721,-0.4941090941429138,0.971068263053894,2.2035586833953857,2.626750946044922,-2.2246644496917725,-0.11699414998292923,1.2119393348693848,0.19799008965492249,-0.08772724866867065,-0.34000256657600403,-0.04830135032534599
244,163422,163423,-0.021268330514431,-0.05582524091005325,0.9563117623329163,5.6482253074646,1.0175200700759888,-1.6124666929244995,-0.12599369883537292,1.2149392366409302,0.20398980379104614,-0.1312258392572403,-0.3019770681858063,-0.06876529008150101
245,163432,163433,-0.06283964961767197,0.056272994726896286,1.0454524755477905,7.634586811065674,-0.3213711082935333,-1.9265601634979248,-0.113994300365448,1.2149392366409302,0.20698964595794678,-0.13856180012226105,-0.21099455654621124,-0.08063679188489914
246,163442,163443,0.043580926954746246,-0.2448132485151291,0.9016295671463013,8.84719181060791,-2.377962350845337,-2.888669729232788,-0.12149392068386078,1.2254387140274048,0.19649016857147217,-0.048560261726379395,-0.08556746691465378,-0.09662380069494247
247,163452,163453,0.04449912905693054,-0.3270784616470337,0.8469402194023132,8.337615013122559,-3.4977519512176514,-3.0492806434631348,-0.10949452221393585,1.2044397592544556,0.20548972487449646,-0.0009926859056577086,-0.010998752899467945,-0.12847931683063507
248,163462,163463,0.024850299581885338,-0.2658604085445404,0.9978852272033691,4.221168518066406,-2.9676449298858643,-3.0105979442596436,-0.10799460113048553,1.2119393348693848,0.20398980379104614,0.06378548592329025,0.12578946352005005,-0.1576191633939743
249,163472,163473,0.014453834854066372,-0.052487872540950775,0.9062551259994507,-0.7625839114189148,-0.7279157638549805,-3.3212552070617676,-0.11099445074796677,1.2269386053085327,0.2099895030260086,0.11960015445947647,0.057571154087781906,-0.20278625190258026
250,163482,163483,-0.06908558309078217,0.11140841990709305,1.0659372806549072,-4.278168678283691,1.326060175895691,-3.5301194190979004,-0.11249437183141708,1.2254387140274048,0.21148942410945892,-0.002474959008395672,0.05555616691708565,-0.23277851939201355
251,163492,163493,-0.040662214159965515,0.01222536712884903,1.0214765071868896,-4.999471187591553,-0.04881858080625534,-3.1136527061462402,-0.11249437183141708,1.231438398361206,0.20548972487449646,-0.0887322723865509,-0.0056337276473641396,-0.27025026082992554
252,163502,163503,-0.009213851764798164,-0.04736738279461861,0.962334156036377,-2.4085123538970947,-2.541804313659668,-2.427391767501831,-0.11699414998292923,1.2269386053085327,0.2189890444278717,-0.06825599074363708,-0.07532738149166107,-0.30270662903785706
253,163512,163513,-0.062014177441596985,0.07942546904087067,1.0702871084213257,0.9055082201957703,-4.298666000366211,-1.7075085639953613,-0.11549422144889832,1.2344383001327515,0.21148942410945892,-0.016009576618671417,-0.10605417937040329,-0.326178640127182
254,163522,163523,-0.008259328082203865,-0.006745601072907448,0.94050133228302,2.9099502563476562,-6.611326694488525,-2.44793701171875,-0.11849407106637955,1.2254387140274048,0.21148942410945892,0.05716031417250633,-0.015089660882949829,-0.3341519236564636
255,163532,163533,-0.010152648203074932,-0.05278574302792549,0.9243968725204468,4.294076442718506,-7.96226167678833,-1.4461028575897217,-0.10799460113048553,1.2359381914138794,0.19799008965492249,0.16351184248924255,-0.03643111512064934,-0.36300379037857056
256,163542,163543,-0.048396963626146317,-0.3142969608306885,1.05924391746521,4.227640628814697,-4.5248637199401855,-1.7249515056610107,-0.1229938492178917,1.2269386053085327,0.2099895030260086,0.2995288670063019,0.04081964120268822,-0.3768876791000366
257,163552,163553,-0.04668259248137474,-0.4205296039581299,1.0050290822982788,4.987020969390869,-1.1728293895721436,-1.650992512702942,-0.11849407106637955,1.231438398361206,0.20248986780643463,0.3832465410232544,0.1159508228302002,-0.39052459597587585
258,163562,163563,-0.04569244384765625,-0.06280126422643661,0.9886019229888916,3.801243305206299,2.736065149307251,-2.228511333465576,-0.1229938492178917,1.2359381914138794,0.2099895030260086,0.26417019963264465,0.13039863109588623,-0.4094734191894531
259,163572,163573,0.09180263429880142,-0.16755446791648865,0.889465868473053,2.178910732269287,4.630661964416504,-1.8851163387298584,-0.1319933980703354,1.2299385070800781,0.22498874366283417,0.23441466689109802,0.195616215467453,-0.4289505183696747
260,163582,163583,0.039702314883470535,-0.15411049127578735,0.9812370538711548,-0.2712765634059906,3.6234161853790283,-1.0756611824035645,-0.11549422144889832,1.2374380826950073,0.21148942410945892,0.1705211102962494,0.23016180098056793,-0.443065345287323
261,163592,163593,-0.07105351984500885,-0.0747150108218193,1.0852484703063965,-1.903320550918579,1.0100836753845215,-0.9209873676300049,-0.12899354100227356,1.232938289642334,0.20698964595794678,0.1123838722705841,0.22677336633205414,-0.456091046333313
262,163602,163603,-0.015040452592074871,-0.28907209634780884,1.0398788452148438,-1.7665245532989502,0.9140570163726807,-1.5214241743087769,-0.11849407106637955,1.2404379844665527,0.2084895670413971,0.02441025711596012,0.1947118043899536,-0.46441084146499634
263,163612,163613,-0.03144017979502678,-0.036530543118715286,0.9705995917320251,-1.2716920375823975,-1.964802622795105,-1.1774966716766357,-0.113994300365448,1.2389379739761353,0.2189890444278717,0.22851495444774628,0.23450876772403717,-0.4732820987701416
264,163622,163623,-0.1443711817264557,0.05021865665912628,1.0829240083694458,-1.0444968938827515,-3.8241941928863525,-0.8831211924552917,-0.13649317622184753,1.231438398361206,0.21448926627635956,0.258190393447876,0.21045567095279694,-0.488128662109375
265,163632,163633,-0.010457834228873253,-0.09761013835668564,1.0323749780654907,0.7509877681732178,-4.40691614151001,-0.3782675862312317,-0.12449377030134201,1.2284384965896606,0.21148942410945892,0.03241399675607681,0.25879284739494324,-0.4975031614303589
266,163642,163643,-0.060665179044008255,-0.11055242270231247,1.0853760242462158,-1.0875515937805176,-4.5188727378845215,-0.8136128783226013,-0.13499325513839722,1.2389379739761353,0.21298934519290924,0.25920379161834717,0.18436788022518158,-0.5051833987236023
267,163652,163653,-0.04586107283830643,-0.09910213202238083,1.0337787866592407,-0.5078184604644775,-4.011228084564209,-0.19745683670043945,-0.12599369883537292,1.232938289642334,0.20098994672298431,0.32749250531196594,0.09328731149435043,-0.5162888765335083
268,163662,163663,-0.0903097540140152,0.02054060623049736,1.1195656061172485,-0.8888291120529175,0.0822312980890274,-0.7783606052398682,-0.12149392068386078,1.2284384965896606,0.2174891233444214,0.3900197446346283,0.22548867762088776,-0.5134347081184387
269,163672,163673,0.04432963952422142,0.017979668453335762,1.0766289234161377,-1.5841164588928223,2.628779649734497,-1.499179482460022,-0.1334933191537857,1.216439127922058,0.2294885218143463,0.38019242882728577,0.12886224687099457,-0.5248034000396729
270,163682,163683,-0.10328098386526108,-0.04492802917957306,1.0322694778442383,-1.6824142932891846,2.931874990463257,-1.6795347929000854,-0.12749361991882324,1.2194390296936035,0.2174891233444214,0.40571707487106323,0.10266496241092682,-0.5380809307098389
271,163692,163693,-0.007845754735171795,0.005183438304811716,1.0887655019760132,-0.8611955046653748,5.479308605194092,-1.1583367586135864,-0.11999399960041046,1.2269386053085327,0.2099895030260086,0.3475869596004486,0.07824244350194931,-0.5553831458091736
272,163702,163703,-0.06592723727226257,0.008089587092399597,1.0593719482421875,0.626811683177948,6.240138053894043,-1.073624610900879,-0.13049347698688507,1.2344383001327515,0.21148942410945892,0.1908683329820633,0.06922505050897598,-0.568229079246521
273,163712,163713,0.036330971866846085,-0.03228440508246422,0.9848968982696533,1.9094481468200684,6.815922737121582,-1.1357519626617432,-0.13949301838874817,1.2284384965896606,0.21448926627635956,0.09117915481328964,0.07390798628330231,-0.5799313187599182
274,163722,163723,-0.010659371502697468,-0.008954300545156002,1.0236351490020752,2.7525787353515625,4.470869541168213,-0.8897092342376709,-0.12149392068386078,1.2224388122558594,0.20248986780643463,0.056195203214883804,0.10105432569980621,-0.5907472372055054
275,163732,163733,-0.06304305046796799,-0.1433853805065155,1.1687904596328735,3.306567907333374,0.6780032515525818,-0.6008716821670532,-0.13799309730529785,1.2239388227462769,0.21298934519290924,-0.005740624852478504,0.14464575052261353,-0.598884642124176
276,163742,163743,0.028745675459504128,-0.23957459628582,0.8929840922355652,0.5685027241706848,-2.3829498291015625,-1.217089295387268,-0.11849407106637955,1.2134393453598022,0.21448926627635956,-0.0075228093191981316,0.1950242817401886,-0.605243444442749
277,163752,163753,-0.07273004949092865,0.047915976494550705,1.1224642992019653,0.7687239050865173,-3.5342578887939453,-1.338236927986145,-0.12449377030134201,1.216439127922058,0.21148942410945892,0.03245324268937111,0.20334173738956451,-0.6186981201171875
278,163762,163763,-0.0619267076253891,-0.015520510263741016,0.9999002814292908,-0.2930496037006378,-4.264136791229248,-1.2556730508804321,-0.12449377030134201,1.2014398574829102,0.2084895670413971,0.025452693924307823,0.13927054405212402,-0.6367275714874268
279,163772,163773,-0.0215610358864069,0.015464052557945251,1.0389114618301392,-0.9323256015777588,-4.192068576812744,-1.3547929525375366,-0.12899354100227356,1.2149392366409302,0.2099895030260086,0.03271019086241722,0.1310226321220398,-0.6487221717834473
280,163782,163783,0.011622567661106586,-0.16498467326164246,0.9302133321762085,-1.6269240379333496,-3.3852710723876953,-1.417431354522705,-0.13049347698688507,1.231438398361206,0.21148942410945892,0.17795026302337646,0.253970205783844,-0.6558433771133423
281,163792,163793,-0.05708560720086098,-0.22343754768371582,1.0288310050964355,-3.0577731132507324,-1.2568334341049194,-0.8423523306846619,-0.11549422144889832,1.207439661026001,0.20248986780643463,0.3119589686393738,0.15264669060707092,-0.6704253554344177
282,163802,163803,0.07863749563694,-0.230984628200531,1.054697036743164,-2.597926139831543,2.085547924041748,-1.2527612447738647,-0.1334933191537857,1.2134393453598022,0.2084895670413971,0.3456243872642517,0.1789703369140625,-0.6792712807655334
283,163812,163813,0.13813093304634094,-0.1192093938589096,0.9305559992790222,-2.21353816986084,4.900040626525879,-0.5115760564804077,-0.12599369883537292,1.2059396505355835,0.21298934519290924,0.3313748836517334,0.1344190090894699,-0.6936101317405701
284,163822,163823,0.17630411684513092,0.01906019262969494,0.9686810374259949,-1.1924232244491577,5.58502197265625,-1.4881542921066284,-0.11699414998292923,1.1969401836395264,0.21598920226097107,0.2714022696018219,0.10269739478826523,-0.7032650709152222
285,163832,163833,0.043295226991176605,-0.007997543551027775,0.9624351859092712,-0.9721289277076721,4.737159729003906,-1.5767290592193604,-0.11849407106637955,1.2134393453598022,0.2084895670413971,0.17879720032215118,0.07884939014911652,-0.716481626033783
286,163842,163843,-0.08523052930831909,-0.09011051803827286,1.124656081199646,-1.0246273279190063,3.042339563369751,-1.2926673889160156,-0.11699414998292923,1.2179391384124756,0.20398980379104614,0.09571824222803116,0.05679195746779442,-0.7327184677124023
287,163852,163853,-0.029865693300962448,-0.2914969325065613,0.9510467052459717,1.4464406967163086,2.3653926849365234,-0.8219184875488281,-0.1334933191537857,1.2284384965896606,0.2084895670413971,0.0431959368288517,0.04152853414416313,-0.746475100517273
288,163862,163863,-0.01629122719168663,-0.11404633522033691,0.9019002914428711,1.6995859146118164,0.011767081916332245,-0.5400701761245728,-0.11249437183141708,1.2284384965896606,0.199490025639534,0.01287001557648182,0.05985776707530022,-0.7553025484085083
289,163872,163873,-0.07451983541250229,-0.011869295500218868,1.0591282844543457,1.2427387237548828,-1.8092875480651855,-0.6033045649528503,-0.11849407106637955,1.2284384965896606,0.21148942410945892,0.020217906683683395,0.08425217866897583,-0.7615374326705933
290,163882,163883,-0.03869907185435295,-0.0017190243816003203,1.0184553861618042,0.7399789094924927,-3.3455023765563965,-0.7678196430206299,-0.12449377030134201,1.2404379844665527,0.21148942410945892,0.05529435724020004,0.10214081406593323,-0.7685717344284058
291,163892,163893,-0.005087036639451981,-0.030365949496626854,0.9981205463409424,-1.3671506643295288,-3.5104267597198486,-0.456927627325058,-0.11849407106637955,1.216439127922058,0.21448926627635956,0.10428251326084137,0.10928912460803986,-0.7755248546600342
292,163902,163903,0.016601307317614555,-0.06149565801024437,0.9676401019096375,-2.754680633544922,-2.3383052349090576,0.07209953665733337,-0.11699414998292923,1.2179391384124756,0.21298934519290924,0.14951935410499573,0.08045000582933426,-0.7806661128997803
293,163912,163913,-0.09875699132680893,-0.047696858644485474,1.012711763381958,-3.1968400478363037,0.004050248768180609,0.45192596316337585,-0.11249437183141708,1.2224388122558594,0.2174891233444214,0.16561125218868256,0.02902456372976303,-0.7796952128410339
294,163922,163923,-0.05850391089916229,0.03010391816496849,1.0816266536712646,-1.5920308828353882,1.7856709957122803,0.4581667482852936,-0.12599369883537292,1.2119393348693848,0.2189890444278717,0.14594994485378265,-0.023593200370669365,-0.7753897309303284
295,163932,163933,0.03627763316035271,-0.07105537503957748,0.9129279851913452,-1.2656676769256592,3.485987663269043,0.5991120934486389,-0.11999399960041046,1.2119393348693848,0.2099895030260086,-0.033853013068437576,-0.05380526930093765,-0.7728583812713623
296,163942,163943,-0.035641033202409744,-0.02344568446278572,1.0209370851516724,0.8006450533866882,2.567702531814575,1.3312923908233643,-0.1229938492178917,1.2179391384124756,0.21298934519290924,0.05304800346493721,0.0669083297252655,-0.7634576559066772
297,163952,163953,0.015667889267206192,0.006486047990620136,0.9589517116546631,0.298930823802948,1.7122150659561157,0.8069930672645569,-0.12899354100227356,1.2179391384124756,0.2099895030260086,0.006597020197659731,0.06686628609895706,-0.7523131966590881
298,163962,163963,-0.11727963387966156,-0.05203813686966896,1.0163650512695312,0.8567892909049988,-0.1611798256635666,0.6727660298347473,-0.12149392068386078,1.2104394435882568,0.21148942410945892,-0.02272552251815796,-0.07600126415491104,-0.7478446960449219
299,163972,163973,-0.07050711661577225,-0.06391199678182602,1.018158197402954,0.7467371225357056,1.5507080554962158,-0.15699100494384766,-0.11549422144889832,1.2224388122558594,0.199490025639534,-0.030722936615347862,-0.060409098863601685,-0.7395778298377991
300,163982,163983,0.05073157325387001,-0.012881064787507057,1.006445288658142,2.274935245513916,0.942240297794342,0.6394411325454712,-0.11549422144889832,1.216439127922058,0.2084895670413971,-0.06077263131737709,-0.049273621290922165,-0.7399482727050781
301,163992,163993,-0.15042316913604736,0.14599642157554626,1.0645729303359985,1.5735915899276733,-0.7481729388237,0.2003180831670761,-0.12449377030134201,1.2134393453598022,0.2084895670413971,-0.07243407517671585,0.12538667023181915,-0.7292826175689697
302,164002,164003,-0.12462259083986282,-0.2658916711807251,0.9487170577049255,1.5826687812805176,-1.706292748451233,-0.49161142110824585,-0.13799309730529785,1.2179391384124756,0.21298934519290924,-0.05643082037568092,0.07585915923118591,-0.7292829751968384
303,164012,164013,-0.05317750945687294,-0.17713218927383423,1.080260992050171,1.9095450639724731,-1.1248688697814941,0.6572792530059814,-0.11849407106637955,1.216439127922058,0.199490025639534,-0.02613733522593975,0.09731364250183105,-0.7315529584884644
304,164022,164023,-0.03943467140197754,-0.08453211188316345,1.0911986827850342,1.369550347328186,-0.8601147532463074,-0.5954874753952026,-0.12149392068386078,1.231438398361206,0.199490025639534,0.00016137862985488027,0.12226255238056183,-0.725364625453949
305,164032,164033,-0.00963918212801218,-0.12547935545444489,1.0045878887176514,-0.2321113497018814,-0.2489267885684967,-1.0567710399627686,-0.11999399960041046,1.2119393348693848,0.20698964595794678,0.022083977237343788,0.1352430284023285,-0.7295571565628052
306,164042,164043,-0.0472896583378315,0.07531291991472244,1.0835487842559814,-1.9039459228515625,0.13907651603221893,-0.18056130409240723,-0.11699414998292923,1.2149392366409302,0.20698964595794678,0.03363027051091194,0.12259883433580399,-0.7403825521469116
307,164052,164053,0.05845790356397629,-0.11794029921293259,0.8573489189147949,-0.753181517124176,-1.545496940612793,-0.27386924624443054,-0.1229938492178917,1.2179391384124756,0.20398980379104614,0.04093227908015251,0.09262310713529587,-0.7439132928848267
308,164062,164063,0.19264096021652222,0.027703529223799706,0.9398036003112793,-1.527408480644226,1.6673213243484497,-0.7886696457862854,-0.12599369883537292,1.2059396505355835,0.20098994672298431,0.07547570765018463,0.07808330655097961,-0.7465595006942749
309,164072,164073,0.17814901471138,0.0694974958896637,1.036956787109375,-0.4474010765552521,-0.5512798428535461,-0.7631950974464417,-0.11999399960041046,1.2179391384124756,0.19499024748802185,-0.08252101391553879,0.1216612309217453,-0.7544017434120178
310,164082,164083,0.018656998872756958,-0.00597061961889267,1.0509023666381836,0.20604871213436127,-2.7779195308685303,-1.1946407556533813,-0.11549422144889832,1.2194390296936035,0.19349032640457153,-0.13522984087467194,0.10436888039112091,-0.7627201080322266
311,164092,164093,-0.05606342852115631,-0.17754705250263214,0.9062507748603821,0.36363485455513,-4.853850364685059,-1.5446513891220093,-0.11249437183141708,1.2134393453598022,0.18749062716960907,-0.15664955973625183,0.0962132066488266,-0.7755180597305298
312,164102,164103,-0.15634682774543762,-0.16375377774238586,1.0394439697265625,-0.156338632106781,-6.960030555725098,-2.4275012016296387,-0.13499325513839722,1.2119393348693848,0.19799008965492249,-0.1498192548751831,0.0869617834687233,-0.7924771904945374
313,164112,164113,-0.09484043717384338,-0.3370963931083679,0.9871829152107239,-0.42089664936065674,-8.762777328491211,-1.8935136795043945,-0.11999399960041046,1.2029398679733276,0.20098994672298431,0.028438420966267586,0.004075214732438326,-0.8174525499343872
314,164122,164123,-0.1026618555188179,-0.07354939728975296,1.0247889757156372,-2.0546083450317383,-6.979351997375488,-1.9456557035446167,-0.10799460113048553,1.2029398679733276,0.20698964595794678,-0.18912476301193237,0.05997293442487717,-0.8370109796524048
315,164132,164133,-0.07764353603124619,0.05317637696862221,1.050896167755127,-3.000272512435913,-5.0559892654418945,-1.2159559726715088,-0.12449377030134201,1.216439127922058,0.2084895670413971,-0.04593464359641075,0.019810030236840248,-0.855606198310852
316,164142,164143,-0.011329500935971737,0.05663338303565979,0.9924218058586121,-3.104297637939453,-6.219630241394043,-0.4638468623161316,-0.11099445074796677,1.2149392366409302,0.20398980379104614,0.07592736184597015,-0.03143885359168053,-0.8687760829925537
317,164152,164153,0.018039770424365997,0.12409515678882599,1.0735225677490234,-1.6881656646728516,-7.209652423858643,-0.410425066947937,-0.113994300365448,1.2029398679733276,0.21298934519290924,0.2154569923877716,-0.08189793676137924,-0.875603199005127
318,164162,164163,-0.002244386123493314,0.1482873260974884,1.1375384330749512,0.84742671251297,-8.018990516662598,-0.4747343361377716,-0.11249437183141708,1.2224388122558594,0.2084895670413971,0.2976509928703308,-0.03431776165962219,-0.8750901222229004
319,164172,164173,0.03876518830657005,-0.06329624354839325,0.917708158493042,1.7250927686691284,-7.5725555419921875,-1.6848911046981812,-0.11099445074796677,1.2119393348693848,0.21298934519290924,0.45936354994773865,-0.02355736494064331,-0.878407895565033
320,164182,164183,-0.07087987661361694,-0.2463351935148239,0.9465294480323792,1.056442379951477,-5.7614030838012695,-1.5545010566711426,-0.11249437183141708,1.2104394435882568,0.20248986780643463,0.39918938279151917,-0.0015599083853885531,-0.892562747001648
321,164192,164193,-0.06776919960975647,-0.08325078338384628,1.0199984312057495,-0.6013645529747009,-3.3073301315307617,-0.5075129866600037,-0.11099445074796677,1.2179391384124756,0.21298934519290924,0.5101374387741089,0.005887050647288561,-0.9068057537078857
322,164202,164203,0.05802902579307556,-0.07663445919752121,0.9473748207092285,-1.8817698955535889,-0.526932418346405,-0.6047758460044861,-0.11549422144889832,1.2194390296936035,0.21148942410945892,0.5746803283691406,-0.013552236370742321,-0.9118276238441467
323,164212,164213,-0.026701150462031364,0.03559207543730736,1.0767490863800049,-2.094879150390625,1.3218902349472046,-0.1377096176147461,-0.12599369883537292,1.2239388227462769,0.2099895030260086,0.5914314985275269,0.01654050685465336,-0.9179933667182922
324,164222,164223,-0.004804916214197874,-0.15338125824928284,0.9389882683753967,-3.331113815307617,3.6784615516662598,-0.35874783992767334,-0.11099445074796677,1.232938289642334,0.21298934519290924,0.5743076801300049,-0.03060925379395485,-0.9200626015663147
325,164232,164233,0.08870331943035126,-0.1625315248966217,0.9125357270240784,-3.608046054840088,2.827028751373291,-0.33876198530197144,-0.13499325513839722,1.2269386053085327,0.21598920226097107,0.5982550382614136,-0.1586775928735733,-0.9227457046508789
326,164242,164243,0.021081842482089996,0.0587470717728138,1.0755212306976318,-3.2804932594299316,3.250215768814087,-0.3761955499649048,-0.11249437183141708,1.2284384965896606,0.2174891233444214,0.5617329478263855,-0.21289557218551636,-0.9251611232757568
327,164252,164253,0.0019517159089446068,-0.17323531210422516,0.9411470293998718,-1.5740820169448853,2.6393349170684814,-0.7174872159957886,-0.11249437183141708,1.2134393453598022,0.20548972487449646,0.522098958492279,-0.2619587779045105,-0.9280747175216675
328,164262,164263,-0.18311649560928345,-0.08932918310165405,0.9538872241973877,1.448271632194519,-0.943364143371582,-0.2997044324874878,-0.12749361991882324,1.2134393453598022,0.2084895670413971,0.5019229054450989,-0.06878834217786789,-0.940353512763977
329,164272,164273,-0.13375501334667206,0.020770272240042686,1.0608242750167847,2.4294183254241943,1.2254434823989868,-0.7498109340667725,-0.13799309730529785,1.232938289642334,0.22198890149593353,0.5202401876449585,-0.054379697889089584,-0.9460847973823547
330,164282,164283,-0.153238445520401,-0.08921918272972107,0.9666643738746643,2.5772905349731445,-1.6701771020889282,-1.3286093473434448,-0.1334933191537857,1.2224388122558594,0.2084895670413971,0.5203549265861511,-0.02498452179133892,-0.9554194211959839
331,164292,164293,-0.09203105419874191,-0.14066679775714874,1.0226925611495972,0.5059176683425903,-0.09494669735431671,-0.602524995803833,-0.11999399960041046,1.208939552307129,0.19199039041996002,0.5469594597816467,0.0024857555981725454,-0.9686630368232727
332,164302,164303,-0.03597346693277359,-0.06349087506532669,0.979293704032898,-2.295092821121216,0.5663254857063293,-0.654285728931427,-0.11099445074796677,1.2209389209747314,0.2189890444278717,0.5477514863014221,-0.0036532171070575714,-0.9751710295677185
333,164312,164313,0.032902151346206665,-0.10990950465202332,0.87209552526474,-5.125743865966797,0.40280288457870483,-0.8270004987716675,-0.11099445074796677,1.2239388227462769,0.20398980379104614,0.5306175351142883,-0.05696358159184456,-0.9804392457008362
334,164322,164323,0.1391310840845108,-0.023361915722489357,1.0307326316833496,-7.184993743896484,5.913278579711914,-0.6860357522964478,-0.113994300365448,1.2269386053085327,0.20698964595794678,0.5012703537940979,-0.08473018556833267,-0.9879383444786072
335,164332,164333,0.0793304368853569,-0.05503447726368904,0.9623803496360779,-5.564260482788086,1.1030527353286743,-0.4529912769794464,-0.10349482297897339,1.2194390296936035,0.21448926627635956,0.414021760225296,-0.21294042468070984,-0.9900215864181519
336,164342,164343,0.11323310434818268,-0.034848328679800034,1.006862759590149,-5.3477373123168945,2.3879926204681396,0.020977865904569626,-0.11699414998292923,1.2209389209747314,0.20398980379104614,0.45486316084861755,-0.31425562500953674,-0.9922509789466858
337,164352,164353,0.03878457471728325,-0.018525375053286552,1.0467666387557983,-2.4161415100097656,0.3208466172218323,0.42677438259124756,-0.11549422144889832,1.2254387140274048,0.2084895670413971,0.3536064326763153,-0.3975675702095032,-0.9889469742774963
338,164362,164363,0.008484689518809319,-0.05193034186959267,0.9330933094024658,0.3584911823272705,-0.0099794315174222,0.05991416424512863,-0.11849407106637955,1.2224388122558594,0.20548972487449646,0.35681667923927307,-0.43391430377960205,-0.9855538606643677
339,164372,164373,-0.13894391059875488,-0.17414820194244385,1.0437136888504028,3.843353033065796,-3.107245683670044,0.585771918296814,-0.11849407106637955,1.2224388122558594,0.20248986780643463,0.370981901884079,-0.3532395660877228,-0.9890792965888977
340,164382,164383,-0.21737809479236603,-0.3546231687068939,1.0731565952301025,6.318545341491699,-3.740414619445801,0.17372511327266693,-0.11849407106637955,1.2284384965896606,0.21448926627635956,0.35261642932891846,-0.29091018438339233,-0.9830999374389648
341,164392,164393,0.006715446710586548,-0.3815136253833771,0.9343692064285278,4.69422721862793,2.381808042526245,-0.2324392944574356,-0.11549422144889832,1.231438398361206,0.20248986780643463,0.4093368351459503,-0.19510947167873383,-0.9830292463302612
342,164402,164403,-0.14702513813972473,-0.1391022652387619,1.0549944639205933,3.938347816467285,-0.2926100194454193,-1.0519143342971802,-0.1319933980703354,1.232938289642334,0.2099895030260086,0.4588457942008972,-0.12128464877605438,-0.9881110191345215
343,164412,164413,-0.07331632077693939,0.018663328140974045,1.0537673234939575,0.23617668449878693,2.8278443813323975,-0.17787519097328186,-0.12749361991882324,1.2254387140274048,0.2084895670413971,0.4560863971710205,-0.1390448361635208,-0.994047224521637
344,164422,164423,0.03853344917297363,0.03763333335518837,0.9281938672065735,-3.788435220718384,3.4564449787139893,0.04100245237350464,-0.10949452221393585,1.2254387140274048,0.2174891233444214,0.41010409593582153,-0.1432809680700302,-0.9949429035186768
345,164432,164433,0.00649280147626996,0.18096818029880524,1.1041679382324219,-5.470122814178467,4.864328861236572,0.371622771024704,-0.12899354100227356,1.2239388227462769,0.20398980379104614,0.3517530858516693,-0.20822454988956451,-0.9917784333229065
346,164442,164443,0.06050927937030792,0.1486317664384842,1.0452935695648193,-5.746952056884766,2.6410388946533203,0.18790295720100403,-0.1229938492178917,1.232938289642334,0.2189890444278717,0.4221608340740204,-0.22848883271217346,-0.9949734807014465
347,164452,164453,0.012482727877795696,0.11854515224695206,1.002780556678772,-3.3593320846557617,-0.1819002479314804,0.05696452781558037,-0.12749361991882324,1.2254387140274048,0.21148942410945892,0.3780040442943573,-0.25304466485977173,-0.994261622428894
348,164462,164463,-0.07942792773246765,0.05366169661283493,1.0498324632644653,-0.9746401309967041,-0.8528696894645691,0.896806538105011,-0.1319933980703354,1.2299385070800781,0.20098994672298431,0.30298471450805664,-0.312046617269516,-0.9878824353218079
349,164472,164473,-0.04582935571670532,0.030782539397478104,1.0756807327270508,0.5575745701789856,-0.6750985383987427,1.1152217388153076,-0.12899354100227356,1.2179391384124756,0.20098994672298431,0.3817157447338104,-0.2627226710319519,-0.9890293478965759
350,164482,164483,0.015113362111151218,-0.18034206330776215,0.9577210545539856,0.9335824847221375,-0.35233691334724426,0.9628026485443115,-0.12899354100227356,1.2299385070800781,0.20698964595794678,0.3831890821456909,-0.33476847410202026,-0.9749689102172852
351,164492,164493,0.03806191682815552,-0.15945033729076385,1.0320276021957397,1.2548530101776123,2.419565200805664,1.1630569696426392,-0.11249437183141708,1.216439127922058,0.20248986780643463,0.30117323994636536,-0.3935290277004242,-0.9591729044914246
352,164502,164503,0.13726215064525604,-0.5963270664215088,1.1259115934371948,2.781841993331909,5.418214321136475,0.5167009234428406,-0.11699414998292923,1.2269386053085327,0.20698964595794678,0.2485826462507248,-0.3721459209918976,-0.9451379179954529
353,164512,164513,0.09668277204036713,-0.8711177706718445,0.954242467880249,3.755497455596924,2.0761678218841553,0.599662184715271,-0.13049347698688507,1.2194390296936035,0.21148942410945892,0.16467903554439545,-0.3219454884529114,-0.937106192111969
354,164522,164523,0.006087412592023611,-0.14476662874221802,0.9966127872467041,3.4494543075561523,0.9304125308990479,0.41991281509399414,-0.12149392068386078,1.2224388122558594,0.21148942410945892,0.18749919533729553,-0.26420530676841736,-0.9331124424934387
355,164532,164533,0.049988698214292526,0.08921867609024048,1.0617703199386597,2.218165159225464,1.2963738441467285,1.565899133682251,-0.12149392068386078,1.2134393453598022,0.20248986780643463,0.16073355078697205,-0.21272435784339905,-0.9272732734680176
356,164542,164543,-0.04894457012414932,-0.08749835938215256,1.0551824569702148,1.046484351158142,-1.5278851985931396,1.3848092555999756,-0.1229938492178917,1.2239388227462769,0.19799008965492249,0.14702437818050385,-0.1769784688949585,-0.9130150079727173
357,164552,164553,-0.11567482352256775,-0.5173724293708801,0.8958187103271484,0.20041599869728088,-5.196524620056152,1.9961013793945312,-0.13049347698688507,1.2284384965896606,0.21148942410945892,0.3131445050239563,-0.16138659417629242,-0.9068287014961243
358,164562,164563,-0.12621060013771057,-0.35763195157051086,0.9470500349998474,0.7285929918289185,-2.705390691757202,1.1409119367599487,-0.13649317622184753,1.2224388122558594,0.2174891233444214,0.23043736815452576,-0.08815408498048782,-0.8822369575500488
359,164572,164573,-0.1176581159234047,-0.15411996841430664,1.0956511497497559,-1.450745701789856,-0.20154009759426117,0.9830489158630371,-0.12149392068386078,1.2224388122558594,0.2084895670413971,0.19536039233207703,-0.08866064995527267,-0.8668502569198608
360,164582,164583,-0.054144538938999176,0.00756319472566247,1.081316590309143,-2.3423712253570557,1.1767385005950928,1.503564476966858,-0.11999399960041046,1.2299385070800781,0.21598920226097107,0.1952705681324005,-0.18957653641700745,-0.8560841679573059
361,164592,164593,-0.0028558047488331795,0.05773482844233513,1.0140175819396973,-3.198331117630005,2.300701379776001,2.6081361770629883,-0.1229938492178917,1.2239388227462769,0.19799008965492249,0.31431639194488525,-0.08643242716789246,-0.8500697016716003
362,164602,164603,0.03151993453502655,-0.07146298885345459,0.9207530617713928,-2.7266314029693604,2.8012802600860596,1.993388056755066,-0.12149392068386078,1.2284384965896606,0.21148942410945892,0.2670491635799408,-0.1448734700679779,-0.8235395550727844
363,164612,164613,-0.03136899322271347,-0.016005944460630417,1.0661567449569702,-1.4305994510650635,2.5240767002105713,2.7444190979003906,-0.11099445074796677,1.232938289642334,0.20098994672298431,0.364117294549942,-0.05547526851296425,-0.8104904294013977
364,164622,164623,-0.09353244304656982,-0.003899427130818367,1.1146894693374634,-1.9907275438308716,2.683560609817505,2.0113723278045654,-0.11549422144889832,1.2194390296936035,0.2084895670413971,0.38796156644821167,-0.025327330455183983,-0.7886396646499634
365,164632,164633,-0.048228874802589417,-0.11312756687402725,0.9779571294784546,-2.54069185256958,3.7974443435668945,1.3524751663208008,-0.11699414998292923,1.2179391384124756,0.19799008965492249,0.4047156274318695,-0.0713578313589096,-0.7689977288246155
366,164642,164643,-0.04434094578027725,-0.05103319138288498,0.9791610240936279,-4.234129905700684,5.182783603668213,1.3414459228515625,-0.11699414998292923,1.2269386053085327,0.2189890444278717,0.3244484066963196,-0.129609152674675,-0.7514932155609131
367,164652,164653,0.028780492022633553,-0.01856311410665512,0.9701207280158997,-4.705520153045654,7.963436603546143,2.838557481765747,-0.12899354100227356,1.2209389209747314,0.21598920226097107,0.21078239381313324,-0.21380534768104553,-0.7356653809547424
368,164662,164663,0.05124209448695183,-0.058029741048812866,1.0459911823272705,-4.60059118270874,11.761134147644043,3.0761115550994873,-0.13799309730529785,1.2269386053085327,0.20398980379104614,0.059899862855672836,-0.3014955222606659,-0.7083518505096436
369,164672,164673,-0.004904643632471561,-0.016476526856422424,1.0718666315078735,-1.6126368045806885,5.011017322540283,3.0913496017456055,-0.1334933191537857,1.231438398361206,0.21448926627635956,-0.13213400542736053,-0.455830842256546,-0.673973560333252
370,164682,164683,0.002486714394763112,-0.04480798915028572,0.9604028463363647,1.262096643447876,1.8351801633834839,2.706228256225586,-0.1319933980703354,1.2209389209747314,0.2099895030260086,-0.1636606901884079,-0.41344428062438965,-0.6454719305038452
371,164692,164693,0.019584428519010544,-0.06379617005586624,0.9408760070800781,3.2769134044647217,-0.7402281165122986,2.621567726135254,-0.1319933980703354,1.2239388227462769,0.21298934519290924,-0.2121981382369995,-0.3988725244998932,-0.6177284717559814
372,164702,164703,-0.010686413384974003,-0.006833246909081936,1.0057071447372437,4.28923225402832,-3.207648754119873,3.0857176780700684,-0.1334933191537857,1.2224388122558594,0.2084895670413971,-0.2134014219045639,-0.42282620072364807,-0.592970073223114
373,164712,164713,-0.02537216804921627,-0.0001491343864472583,1.0057601928710938,4.382707595825195,-4.074407577514648,2.750798463821411,-0.12149392068386078,1.2194390296936035,0.199490025639534,-0.16745874285697937,-0.35175853967666626,-0.5652749538421631
374,164722,164723,-0.001075115753337741,-0.002664850791916251,0.9592000842094421,4.7813825607299805,-0.5126254558563232,2.7239460945129395,-0.12749361991882324,1.2254387140274048,0.2084895670413971,-0.10670818388462067,-0.41191551089286804,-0.5391246676445007
375,164732,164733,0.042659081518650055,-0.04655399173498154,0.9529159069061279,4.255320072174072,-0.2767843008041382,3.036041021347046,-0.13049347698688507,1.2284384965896606,0.199490025639534,-0.08712369203567505,-0.24807459115982056,-0.5077712535858154
376,164742,164743,-0.03563530370593071,0.0049680438823997974,1.0797003507614136,4.782871723175049,0.8022069334983826,3.108719825744629,-0.13049347698688507,1.2194390296936035,0.20248986780643463,-0.08283668011426926,-0.17467312514781952,-0.47772976756095886
377,164752,164753,-0.07939770817756653,-0.21963606774806976,1.0155315399169922,1.3894809484481812,1.1291389465332031,2.5888829231262207,-0.13499325513839722,1.2269386053085327,0.2189890444278717,-0.09771012514829636,-0.10379771888256073,-0.44728922843933105
378,164762,164763,-0.0611276812851429,-0.32695940136909485,1.0505173206329346,2.2940728664398193,-1.7614251375198364,3.1224863529205322,-0.12899354100227356,1.2299385070800781,0.20698964595794678,-0.12946049869060516,-0.14962105453014374,-0.42233145236968994
379,164772,164773,-0.2170499861240387,-0.013970065861940384,1.053633689880371,1.5182936191558838,-0.18028713762760162,3.2570602893829346,-0.13049347698688507,1.2344383001327515,0.22048896551132202,-0.14212845265865326,-0.11704465001821518,-0.3904392421245575
380,164782,164783,-0.12060953676700592,0.2212793529033661,0.9891344904899597,-1.878834843635559,3.2554969787597656,2.7643866539001465,-0.12449377030134201,1.2254387140274048,0.2174891233444214,-0.16918973624706268,-0.16751930117607117,-0.360095739364624
381,164792,164793,-0.08806680142879486,-0.3489862084388733,1.083227515220642,-0.6268730759620667,1.8852020502090454,3.840261697769165,-0.12449377030134201,1.2374380826950073,0.2084895670413971,-0.23173083364963531,-0.19706223905086517,-0.33055469393730164
382,164802,164803,-6.429996574297547e-05,-0.5067760348320007,0.976260244846344,1.7234655618667603,-0.4324624240398407,2.813687801361084,-0.11549422144889832,1.2404379844665527,0.19649016857147217,-0.27437135577201843,-0.20300135016441345,-0.2940341532230377
383,164812,164813,-0.04441552981734276,-0.1662367284297943,1.0710479021072388,3.877009391784668,-2.754739999771118,2.2126994132995605,-0.11999399960041046,1.2299385070800781,0.20698964595794678,-0.2771952748298645,-0.17321914434432983,-0.26262399554252625
384,164822,164823,-0.0075150723569095135,-0.04129066318273544,0.9787746667861938,5.257991790771484,-3.7498321533203125,2.204983949661255,-0.11999399960041046,1.2179391384124756,0.21298934519290924,-0.24131393432617188,-0.033825602382421494,-0.23076006770133972
385,164832,164833,0.018028615042567253,-0.025660108774900436,0.9755792617797852,5.469217777252197,-5.473921298980713,2.1801834106445312,-0.12149392068386078,1.2254387140274048,0.2084895670413971,-0.17333321273326874,-0.018632352352142334,-0.21025876700878143
386,164842,164843,-0.11269266903400421,0.09608634561300278,1.1372480392456055,3.071018934249878,-4.117476940155029,3.0208780765533447,-0.12599369883537292,1.2239388227462769,0.2189890444278717,-0.14777298271656036,0.000960084144026041,-0.18992182612419128
387,164852,164853,-0.08899569511413574,-0.07553835958242416,1.12122642993927,2.868809223175049,-4.140530109405518,2.264594316482544,-0.12599369883537292,1.2359381914138794,0.2099895030260086,-0.06454233825206757,-0.007424701936542988,-0.16731064021587372
388,164862,164863,0.027738871052861214,-0.5092021226882935,0.96527099609375,0.6415179967880249,-2.668015718460083,2.294828176498413,-0.11699414998292923,1.2179391384124756,0.20698964595794678,0.009045353159308434,0.04549707472324371,-0.14369310438632965
389,164872,164873,-0.03158171474933624,-0.11858034878969193,1.0328584909439087,-0.9308842420578003,-1.0918117761611938,2.519103765487671,-0.11699414998292923,1.2179391384124756,0.20698964595794678,0.05671178549528122,0.06617185473442078,-0.11964201927185059
390,164882,164883,-0.07765397429466248,-0.24302197992801666,0.9989334940910339,-1.696988821029663,-2.9683310985565186,1.926451563835144,-0.11699414998292923,1.2119393348693848,0.19799008965492249,0.06928850710391998,0.06055522710084915,-0.09332408756017685
391,164892,164893,-0.040416229516267776,-0.42216238379478455,1.035605549812317,-2.2567436695098877,4.694489002227783,2.5335607528686523,-0.12449377030134201,1.2254387140274048,0.21148942410945892,0.07830683887004852,0.037536658346652985,-0.07359308004379272
392,164902,164903,-0.04014572128653526,-0.15403172373771667,1.003509521484375,-0.8796384930610657,5.431075572967529,2.3328537940979004,-0.12149392068386078,1.2254387140274048,0.21448926627635956,-0.004373622126877308,0.00761875044554472,-0.049239382147789
393,164912,164913,-0.0742141455411911,-0.1634649634361267,1.0908836126327515,0.3295973837375641,3.7606711387634277,2.936321496963501,-0.13499325513839722,1.2269386053085327,0.21298934519290924,-0.10325422883033752,-0.004914978053420782,-0.023569125682115555
394,164922,164923,-0.05520232394337654,-0.04465961828827858,1.047157883644104,2.64258074760437,3.571300983428955,3.0170247554779053,-0.11999399960041046,1.2209389209747314,0.20698964595794678,-0.04451950266957283,0.0053682210855185986,0.004252644255757332
395,164932,164933,-0.02103574201464653,-0.07668609917163849,1.0097509622573853,5.549960136413574,2.1198043823242188,2.523345708847046,-0.13499325513839722,1.2179391384124756,0.2099895030260086,-0.11224325746297836,0.05134231597185135,0.034786030650138855
396,164942,164943,0.03080291859805584,-0.05504169315099716,1.0607162714004517,5.491604804992676,3.108262300491333,2.9012033939361572,-0.12749361991882324,1.2014398574829102,0.199490025639534,-0.1503964513540268,0.002899514976888895,0.05657079815864563
397,164952,164953,-0.046991605311632156,-0.4281059205532074,1.052932858467102,4.619436740875244,-0.8340305089950562,2.0317201614379883,-0.10949452221393585,1.2104394435882568,0.21148942410945892,-0.18061856925487518,0.10416234284639359,0.08642535656690598
398,164962,164963,-0.027792375534772873,-0.4120158553123474,0.9554659128189087,3.714048147201538,-3.640716552734375,1.86864173412323,-0.12599369883537292,1.2149392366409302,0.21298934519290924,-0.15918239951133728,0.1873815655708313,0.109832763671875
399,164972,164973,0.06881219148635864,-0.27816101908683777,0.9696998000144958,1.7476636171340942,-3.9733617305755615,1.8789079189300537,-0.12749361991882324,1.2104394435882568,0.199490025639534,-0.0947028174996376,0.2535476088523865,0.13029813766479492
400,164982,164983,0.027032049372792244,-0.3910209536552429,0.9880943894386292,-1.1055275201797485,-4.2845869064331055,1.2346343994140625,-0.11849407106637955,1.216439127922058,0.2084895670413971,-0.022534266114234924,0.20999781787395477,0.14330711960792542
401,164992,164993,-0.100764699280262,-0.029528219252824783,1.0104297399520874,-1.5576260089874268,-5.873620510101318,1.2082560062408447,-0.11999399960041046,1.2149392366409302,0.2099895030260086,0.03889503702521324,0.13060910999774933,0.15223081409931183
402,165002,165003,-0.19492198526859283,0.1637822389602661,0.9161348938941956,-1.4552162885665894,-2.562223434448242,1.3231825828552246,-0.11849407106637955,1.216439127922058,0.2084895670413971,0.024054475128650665,0.11808039993047714,0.1641535758972168
403,165012,165013,-0.1752605438232422,0.24336965382099152,1.0358543395996094,-2.5918824672698975,4.229205131530762,0.9052562117576599,-0.11999399960041046,1.208939552307129,0.22198890149593353,0.024031367152929306,0.0980263277888298,0.1778986155986786
404,165022,165023,-0.026391061022877693,-0.09070596843957901,0.9007903337478638,-1.2398215532302856,8.91480541229248,0.00710153765976429,-0.11249437183141708,1.2194390296936035,0.21448926627635956,-0.05273137986660004,0.06737583875656128,0.18602138757705688
405,165032,165033,0.0364779494702816,-0.13140684366226196,0.9598869681358337,3.1771481037139893,5.961986064910889,0.6250464916229248,-0.12149392068386078,1.2194390296936035,0.199490025639534,-0.17937801778316498,0.13848866522312164,0.19207806885242462
406,165042,165043,0.05600357428193092,-0.10635507106781006,0.9760817885398865,6.751769542694092,1.1454787254333496,0.3186517655849457,-0.11549422144889832,1.2284384965896606,0.199490025639534,-0.2596128284931183,0.19904480874538422,0.20015335083007812
407,165052,165053,-0.07770020514726639,-0.11462416499853134,1.0104604959487915,8.440031051635742,-3.7895491123199463,-0.5697948932647705,-0.10799460113048553,1.2029398679733276,0.21298934519290924,-0.2692891061306,0.3108409345149994,0.20737479627132416
408,165062,165063,-0.0879199430346489,-0.323159784078598,0.8701349496841431,7.221740245819092,-9.897637367248535,-1.1836841106414795,-0.11849407106637955,1.2104394435882568,0.21148942410945892,-0.21107006072998047,0.4392409026622772,0.20748823881149292
409,165072,165073,-0.14489859342575073,-0.7037264704704285,0.9935976266860962,1.029125690460205,-9.324494361877441,-0.5970639586448669,-0.11249437183141708,1.207439661026001,0.19349032640457153,-0.0817074328660965,0.5301530957221985,0.2005389779806137
410,165082,165083,-0.0818164050579071,-0.15688802301883698,1.0369921922683716,-6.094278812408447,-3.775797128677368,-1.4224168062210083,-0.12149392068386078,1.2104394435882568,0.20548972487449646,0.042090047150850296,0.45740705728530884,0.1896694004535675
411,165092,165093,0.013669183477759361,-0.05448948219418526,0.9356588125228882,-10.196752548217773,-4.179680824279785,-0.08813399076461792,-0.11549422144889832,1.2194390296936035,0.2084895670413971,0.10084007680416107,0.3512444794178009,0.17498241364955902
412,165102,165103,0.042257845401763916,-0.46763738989830017,0.9631280303001404,-10.322509765625,1.513026475906372,-0.5724200010299683,-0.12899354100227356,1.2119393348693848,0.20698964595794678,0.1525997370481491,0.18629957735538483,0.1706070750951767
413,165112,165113,0.16819806396961212,-0.45163482427597046,1.041736364364624,-7.175761699676514,2.734849452972412,-0.3141475319862366,-0.11849407106637955,1.216439127922058,0.21148942410945892,0.14876864850521088,0.03449534252285957,0.16230769455432892
414,165122,165123,0.10881355404853821,-0.8790270686149597,1.050403118133545,-3.575955867767334,1.7767475843429565,-0.7293160557746887,-0.11849407106637955,1.2194390296936035,0.22048896551132202,0.11960995942354202,0.07127845287322998,0.1616666615009308
415,165132,165133,-0.062423475086688995,-0.9078273177146912,1.0558137893676758,0.3506777882575989,0.8703897595405579,-0.9293866753578186,-0.1319933980703354,1.2239388227462769,0.19199039041996002,0.08492140471935272,0.02204124815762043,0.1515503227710724
416,165142,165143,-0.04682329669594765,-0.4171425402164459,0.9743174314498901,6.149874687194824,4.472480773925781,-1.4272462129592896,-0.11849407106637955,1.2104394435882568,0.21148942410945892,0.04695754870772362,0.043957266956567764,0.1393757164478302
417,165152,165153,-0.1525922566652298,0.11524006724357605,0.9956068396568298,8.448397636413574,5.320245265960693,-1.753868579864502,-0.12899354100227356,1.2179391384124756,0.20098994672298431,-0.032511964440345764,0.22213269770145416,0.12758465111255646
418,165162,165163,-0.10674795508384705,0.2936214506626129,0.9939282536506653,9.38478946685791,4.478241920471191,-1.8156254291534424,-0.11699414998292923,1.2029398679733276,0.20698964595794678,-0.13567091524600983,0.28668212890625,0.10824216902256012
419,165172,165173,-0.05585569143295288,0.17603017389774323,1.105786681175232,5.546696662902832,4.312404155731201,-2.944103479385376,-0.10649467259645462,1.2014398574829102,0.19349032640457153,-0.21866387128829956,0.3547185957431793,0.08710657805204391
420,165182,165183,-0.004630305804312229,-0.2316252738237381,0.9105345010757446,2.6430976390838623,-2.2288575172424316,-4.262150287628174,-0.12749361991882324,1.2224388122558594,0.20548972487449646,-0.27300065755844116,0.4451743960380554,0.060187797993421555
421,165192,165193,-0.0015144736971706152,-0.08956604450941086,0.9670751690864563,-2.516660213470459,-6.871612548828125,-3.9603664875030518,-0.11999399960041046,1.2149392366409302,0.19499024748802185,-0.22510580718517303,0.4031170904636383,0.01808459684252739
422,165202,165203,-0.11135384440422058,-0.20557625591754913,0.9778228402137756,-7.810443878173828,-11.681540489196777,-3.4985756874084473,-0.13049347698688507,1.2134393453598022,0.21148942410945892,-0.10484252870082855,0.42482709884643555,-0.017484026029706
423,165212,165213,-0.011895121075212955,-0.30289605259895325,0.9115679860115051,-9.31928825378418,-10.696033477783203,-3.8757119178771973,-0.11849407106637955,1.2194390296936035,0.199490025639534,0.07713591307401657,0.2935100197792053,-0.05185197666287422
424,165222,165223,-0.05927969887852669,0.02271352894604206,1.1045053005218506,-11.155019760131836,-6.806925296783447,-3.5416464805603027,-0.11999399960041046,1.2119393348693848,0.20698964595794678,0.23502840101718903,0.20553341507911682,-0.08640377223491669
425,165232,165233,-0.0656575933098793,0.005044877529144287,1.0018553733825684,-9.888401985168457,-0.8718510866165161,-3.585756301879883,-0.12149392068386078,1.2134393453598022,0.21448926627635956,0.31734952330589294,0.02317439764738083,-0.12313251942396164
426,165242,165243,-0.011468803510069847,-0.06157798692584038,0.9871155023574829,-4.9041523933410645,5.0823140144348145,-2.4243414402008057,-0.11699414998292923,1.2179391384124756,0.20398980379104614,0.24609796702861786,0.017708901315927505,-0.15857471525669098
427,165252,165253,0.0670456737279892,-0.18984857201576233,1.0239437818527222,-1.8837521076202393,14.78483772277832,-2.21134614944458,-0.1229938492178917,1.2119393348693848,0.20698964595794678,0.17410406470298767,-0.07283268868923187,-0.18700407445430756
428,165262,165263,0.053805816918611526,-0.1272764950990677,1.0992721319198608,2.0838851928710938,12.622941017150879,-1.9865343570709229,-0.12599369883537292,1.2239388227462769,0.2099895030260086,0.015204998664557934,-0.02282397262752056,-0.2121797800064087
429,165272,165273,0.15379904210567474,-0.20845043659210205,0.9443351030349731,7.594302654266357,7.048556804656982,-1.8975048065185547,-0.12749361991882324,1.2254387140274048,0.2174891233444214,-0.12770940363407135,0.02235916256904602,-0.23730593919754028
430,165282,165283,0.06328734010457993,-0.2086559385061264,1.0565146207809448,7.701272964477539,0.8746575117111206,-2.2772586345672607,-0.12599369883537292,1.2149392366409302,0.2189890444278717,-0.1342577487230301,0.1342889368534088,-0.25833821296691895
431,165292,165293,-0.0158030167222023,-0.23665277659893036,0.9976426959037781,4.470585823059082,-3.473045587539673,-3.638624906539917,-0.12599369883537292,1.2149392366409302,0.20698964595794678,-0.13536910712718964,0.24308829009532928,-0.2838746905326843
432,165302,165303,0.010704834014177322,-0.20044898986816406,0.8578319549560547,0.4272225499153137,-8.981796264648438,-3.257141351699829,-0.11249437183141708,1.2014398574829102,0.199490025639534,-0.0814334899187088,0.2968505918979645,-0.31711849570274353
433,165312,165313,-0.055334385484457016,0.0026421842630952597,1.0056657791137695,-3.9742939472198486,-5.043275833129883,-3.18035626411438,-0.11849407106637955,1.192440390586853,0.2174891233444214,0.0219392292201519,0.28215286135673523,-0.347194641828537
434,165322,165323,-0.05988386645913124,-0.07800576090812683,0.977512001991272,-8.2951078414917,-3.0366392135620117,-3.1793668270111084,-0.11099445074796677,1.2179391384124756,0.21598920226097107,0.08644533157348633,0.19953553378582,-0.37834614515304565
435,165332,165333,0.08945811539888382,-0.6646340489387512,0.9641245603561401,-11.049211502075195,2.247684955596924,-3.8952226638793945,-0.113994300365448,1.2269386053085327,0.19799008965492249,0.059521593153476715,0.05056052654981613,-0.4158197343349457
436,165342,165343,0.029777515679597855,-1.2472671270370483,1.0273140668869019,-8.740165710449219,0.9855625629425049,-2.279081106185913,-0.11849407106637955,1.2134393453598022,0.21148942410945892,0.05445626750588417,-0.13100402057170868,-0.452243447303772
437,165352,165353,-0.0462484173476696,-0.5029076933860779,0.9991359114646912,-3.9418866634368896,2.1829545497894287,-2.245948076248169,-0.11699414998292923,1.2179391384124756,0.2099895030260086,0.050748392939567566,-0.1265811175107956,-0.47476518154144287
438,165362,165363,-0.06580302864313126,-0.028620170429348946,0.9667615294456482,1.497714877128601,1.871335744857788,-2.4290378093719482,-0.11849407106637955,1.2194390296936035,0.19349032640457153,0.03006245568394661,-0.12181577831506729,-0.4976084530353546
439,165372,165373,0.10476092994213104,-0.11970973759889603,1.0212644338607788,5.315181732177734,2.7825472354888916,-2.2871756553649902,-0.113994300365448,1.2119393348693848,0.21298934519290924,0.0157462228089571,-0.10899756103754044,-0.5225645899772644
440,165382,165383,0.09975062310695648,-0.3790073096752167,1.0782556533813477,6.315903186798096,-2.175746440887451,-1.4981107711791992,-0.1229938492178917,1.2149392366409302,0.20698964595794678,-0.00688554160296917,-0.0375031903386116,-0.5470779538154602
441,165392,165393,-0.04805358499288559,-1.2509580850601196,1.050018310546875,6.778841018676758,-3.950284004211426,-2.119509220123291,-0.10949452221393585,1.216439127922058,0.2084895670413971,0.016264112666249275,0.045125704258680344,-0.5667998194694519
442,165402,165403,-0.04827839508652687,-1.14046049118042,0.907282292842865,4.981079578399658,-2.937251091003418,-2.749868631362915,-0.1229938492178917,1.2119393348693848,0.19499024748802185,0.04541473090648651,0.1225234717130661,-0.590355396270752
443,165412,165413,-0.12696872651576996,-0.08911481499671936,1.0035704374313354,1.5783541202545166,-1.2679297924041748,-3.2466511726379395,-0.11699414998292923,1.2059396505355835,0.21298934519290924,0.053787555545568466,0.10575501620769501,-0.6179143786430359
444,165422,165423,-0.22683113813400269,0.028913455083966255,0.973354160785675,-4.012100696563721,0.7790144681930542,-2.7335174083709717,-0.12599369883537292,1.2209389209747314,0.21598920226097107,0.035056162625551224,0.10967487096786499,-0.6462576389312744
445,165432,165433,-0.09477370232343674,-0.32627519965171814,0.9808346033096313,-7.737112522125244,6.138031005859375,-3.111255407333374,-0.13049347698688507,1.216439127922058,0.2084895670413971,-0.0027014275547116995,-0.034965526312589645,-0.6729212999343872
446,165442,165443,0.024484820663928986,-0.301927775144577,1.0295604467391968,-7.573948383331299,8.8616943359375,-2.0398454666137695,-0.1334933191537857,1.2224388122558594,0.2084895670413971,-0.08032374829053879,-0.08768103271722794,-0.7007313370704651
447,165452,165453,-0.018245737999677658,-0.2272493988275528,1.1208325624465942,-3.6976587772369385,4.634731769561768,-1.508836269378662,-0.12749361991882324,1.2494374513626099,0.2174891233444214,-0.1634015589952469,-0.20603452622890472,-0.7209423184394836
448,165462,165463,0.056597571820020676,-0.2398473620414734,1.0179535150527954,0.4172768294811249,-0.2750515341758728,-0.7604940533638,-0.12599369883537292,1.232938289642334,0.20698964595794678,-0.19376841187477112,-0.19386497139930725,-0.7335278987884521
449,165472,165473,0.03233451396226883,-0.039795953780412674,1.0766761302947998,4.127511501312256,-6.415974140167236,-1.1095932722091675,-0.13049347698688507,1.2224388122558594,0.19349032640457153,-0.08481032401323318,-0.18772028386592865,-0.7409017086029053
450,165482,165483,-0.00788132008165121,-0.011124187149107456,0.9898554086685181,4.872665882110596,-4.214269638061523,-1.5060324668884277,-0.11549422144889832,1.231438398361206,0.21448926627635956,0.031492672860622406,-0.05387558043003082,-0.7502360343933105
451,165492,165493,0.052474237978458405,-0.8208399415016174,0.8957597613334656,5.051644802093506,-7.023001670837402,-2.2108144760131836,-0.113994300365448,1.2059396505355835,0.20098994672298431,0.13524413108825684,0.02486308291554451,-0.7641944289207458
452,165502,165503,0.050492171198129654,-0.4403541088104248,0.9646328091621399,2.493582010269165,-6.460201740264893,-1.712631344795227,-0.10949452221393585,1.207439661026001,0.2084895670413971,0.17361503839492798,0.023882132023572922,-0.7863448858261108
453,165512,165513,-0.03530259430408478,-0.04793422296643257,0.943334698677063,-0.554634690284729,0.03254346176981926,-3.2111282348632812,-0.11249437183141708,1.2194390296936035,0.20548972487449646,0.24093791842460632,0.054724421352148056,-0.8069202303886414
454,165522,165523,-0.02879289537668228,-0.16867727041244507,0.9848307967185974,-1.270738959312439,5.315891742706299,-2.0537991523742676,-0.12599369883537292,1.2239388227462769,0.20698964595794678,0.07313521951436996,0.04167811572551727,-0.8358973860740662
455,165532,165533,0.02221342734992504,-0.12819337844848633,0.9531071186065674,-3.8369085788726807,6.693753242492676,-2.096575975418091,-0.13649317622184753,1.2344383001327515,0.21448926627635956,-0.01759413070976734,0.007581884041428566,-0.8561684489250183
456,165542,165543,-0.07517103850841522,-0.4987107515335083,1.06332266330719,-2.841686248779297,3.566897392272949,-1.395086407661438,-0.12449377030134201,1.231438398361206,0.21148942410945892,-0.05153388902544975,0.0070919254794716835,-0.8786835074424744
457,165552,165553,-0.05519203841686249,-0.26507341861724854,1.0549043416976929,-1.545065999031067,1.439440369606018,-1.4664969444274902,-0.12149392068386078,1.2284384965896606,0.20248986780643463,-0.11268652230501175,-0.056394074112176895,-0.8973914980888367
458,165562,165563,-0.049416135996580124,-0.049981340765953064,1.0006552934646606,-1.138885259628296,-0.7124744057655334,-1.8463832139968872,-0.12899354100227356,1.2359381914138794,0.21598920226097107,-0.06159621849656105,-0.027722129598259926,-0.9117236137390137
459,165572,165573,-0.14049497246742249,0.007916578091681004,0.9535861611366272,1.5131120681762695,-6.650123119354248,-1.91251540184021,-0.12749361991882324,1.2254387140274048,0.2174891233444214,-0.04650241509079933,-0.056881133466959,-0.9285650253295898
460,165582,165583,-0.06625635921955109,0.04768437519669533,1.0218803882598877,0.14427928626537323,-5.281059741973877,-1.203264832496643,-0.12899354100227356,1.2149392366409302,0.2099895030260086,0.03468215838074684,0.018944207578897476,-0.9455177783966064
461,165592,165593,-0.0743488147854805,-0.09242065995931625,1.0726304054260254,-1.0163158178329468,-4.717538356781006,-1.825203537940979,-0.12599369883537292,1.2299385070800781,0.20698964595794678,0.11886385828256607,0.009553761221468449,-0.9574188590049744
462,165602,165603,-0.04274798557162285,-0.916633665561676,1.0033589601516724,-2.576478958129883,-2.7613272666931152,-1.9711557626724243,-0.12899354100227356,1.2269386053085327,0.2099895030260086,0.05612201988697052,0.04969300702214241,-0.9739920496940613
463,165612,165613,0.001822829362936318,-0.5954388380050659,1.0014245510101318,-2.841282606124878,-0.47522225975990295,-1.7318795919418335,-0.12449377030134201,1.231438398361206,0.199490025639534,0.044433195143938065,-0.0035049892030656338,-0.9923237562179565
464,165622,165623,0.03374289348721504,-0.021929239854216576,1.1028811931610107,-3.2440826892852783,5.311045169830322,-1.2455439567565918,-0.12149392068386078,1.2254387140274048,0.21148942410945892,0.07291623950004578,0.006714882329106331,-1.009063959121704
465,165632,165633,0.01981642283499241,-0.032634638249874115,0.9897170066833496,-3.4390010833740234,0.11874236911535263,-2.2076468467712402,-0.12749361991882324,1.2284384965896606,0.2174891233444214,0.04432500898838043,-0.05789782851934433,-1.0264452695846558
466,165642,165643,-0.005937853362411261,-0.02982144244015217,0.9952401518821716,-3.033818244934082,-2.6995596885681152,-1.7105135917663574,-0.10649467259645462,1.2224388122558594,0.21148942410945892,0.19948120415210724,-0.05661644786596298,-1.0467615127563477
467,165652,165653,-0.04706185683608055,-0.02077428251504898,1.0044078826904297,-4.0079240798950195,-4.5057525634765625,-1.379433274269104,-0.12149392068386078,1.231438398361206,0.20548972487449646,0.0930938795208931,0.013686979189515114,-1.0620523691177368
468,165662,165663,0.08186189085245132,-0.054255690425634384,0.9920832514762878,-4.382602214813232,0.7563742399215698,-1.8220710754394531,-0.11849407106637955,1.2284384965896606,0.21148942410945892,0.22395062446594238,-0.1418439894914627,-1.0745121240615845
469,165672,165673,0.36127522587776184,-0.3356839716434479,0.9260690212249756,-5.675448894500732,5.938126087188721,-0.9047828912734985,-0.12599369883537292,1.2299385070800781,0.2099895030260086,0.22882704436779022,-0.0829937532544136,-1.089827299118042
470,165682,165683,0.25925716757774353,-0.19236597418785095,1.0621529817581177,-3.6026313304901123,1.430921196937561,-0.25967490673065186,-0.11999399960041046,1.2239388227462769,0.22498874366283417,0.17438840866088867,-0.182928666472435,-1.1013298034667969
