,timestamp_start,timestamp_end,acc.x,acc.y,acc.z,gyro.x,gyro.y,gyro.z,mag.x,mag.y,mag.z,stabilizer.pitch,stabilizer.roll,stabilizer.yaw
0,112038,112041,-0.28920668363571167,-0.07173135876655579,1.0865212678909302,-17.806062698364258,-62.04931640625,-2.2487430572509766,-0.5744712948799133,-0.9224538803100586,-0.32848358154296875,-1.7785305976867676,1.5786875486373901,-1.1333073377609253
1,112048,112051,-0.3248125910758972,-0.31730741262435913,1.1175264120101929,-28.94748878479004,-55.9814453125,-3.6758358478546143,-0.5714713931083679,-0.9314534068107605,-0.3254837095737457,-1.3346905708312988,1.2215759754180908,-1.2659351825714111
2,112058,112061,-0.27558302879333496,-0.05299926549196243,1.123817801475525,-35.95345687866211,-45.20421600341797,-2.5271449089050293,-0.554972231388092,-0.911954402923584,-0.32698363065719604,-0.591184139251709,0.7900853157043457,-1.2769261598587036
3,112068,112071,-0.11780969053506851,0.02969604730606079,1.1304184198379517,-36.45935821533203,-35.962520599365234,-3.2183022499084473,-0.5579720735549927,-0.9269536137580872,-0.33598318696022034,-0.2415667623281479,0.5064817667007446,-1.3067179918289185
4,112078,112081,-0.1446782797574997,0.007942864671349525,1.149268388748169,-34.08229064941406,-26.78004264831543,-4.981980323791504,-0.5519723892211914,-0.9149542450904846,-0.32698363065719604,-0.2358534336090088,0.28885701298713684,-1.4014313220977783
5,112088,112091,-0.1371183842420578,0.017341092228889465,1.158347487449646,-26.548364639282227,-19.505517959594727,-7.02161169052124,-0.5579720735549927,-0.9269536137580872,-0.3119843900203705,0.23725882172584534,-0.0009689713479019701,-1.4006788730621338
6,112098,112101,-0.10967278480529785,-0.10440265387296677,1.1691969633102417,-15.798933029174805,-15.347749710083008,-9.98875904083252,-0.5639718174934387,-0.9299534559249878,-0.32998350262641907,0.06034478545188904,-0.0814068540930748,-1.5392521619796753
7,112108,112111,-0.02785848081111908,-0.08758170902729034,1.1335819959640503,-8.818133354187012,-15.294767379760742,-12.171513557434082,-0.562471866607666,-0.9314534068107605,-0.32848358154296875,0.4712461531162262,-0.10298457741737366,-1.6341737508773804
8,112118,112121,-0.2660932242870331,0.060012441128492355,1.1240785121917725,-1.0021024942398071,-18.758325576782227,-13.32810115814209,-0.5459727048873901,-0.911954402923584,-0.31798410415649414,0.6125799417495728,-0.19989223778247833,-1.7406244277954102
9,112128,112131,-0.1324196755886078,0.1492084413766861,1.187204360961914,4.155642986297607,-20.025814056396484,-15.313350677490234,-0.5534723401069641,-0.9344532489776611,-0.33448326587677,0.6985476613044739,-0.186691552400589,-1.8863062858581543
10,112138,112141,-0.23865608870983124,0.020364366471767426,1.227853775024414,6.788114070892334,-23.916980743408203,-17.1232852935791,-0.5594720244407654,-0.9224538803100586,-0.3254837095737457,0.8974010944366455,-0.14558202028274536,-2.0542850494384766
11,112148,112151,-0.1896596997976303,0.0367564857006073,1.3035577535629272,7.933877944946289,-26.58036231994629,-17.784420013427734,-0.5564721822738647,-0.9164541363716125,-0.3224838674068451,1.0620592832565308,-0.04656003415584564,-2.2273964881896973
12,112158,112161,-0.030973874032497406,-0.04172636196017265,1.3475250005722046,6.963561058044434,-26.854839324951172,-19.471050262451172,-0.5429728627204895,-0.9179540872573853,-0.3209839463233948,1.3546065092086792,-0.04033861681818962,-2.3834228515625
13,112168,112171,0.020518559962511063,-0.2223629355430603,1.2630292177200317,5.379117012023926,-27.24110221862793,-21.710445404052734,-0.5579720735549927,-0.9179540872573853,-0.3119843900203705,1.7269567251205444,0.03171045705676079,-2.602759838104248
14,112178,112181,-0.06872368603944778,-0.1279025673866272,1.2376477718353271,5.7802510261535645,-25.52179718017578,-23.49078369140625,-0.5654717087745667,-0.8924553394317627,-0.3134843111038208,1.9506257772445679,0.11001265794038773,-2.830369234085083
15,112188,112191,-0.08280354738235474,0.009690919890999794,1.220741629600525,7.126843452453613,-18.704177856445312,-23.991121292114258,-0.5579720735549927,-0.896955132484436,-0.3239837884902954,2.434558629989624,0.22161294519901276,-3.0919623374938965
16,112198,112201,-0.060612499713897705,0.05683206394314766,1.2005796432495117,10.223943710327148,-12.631389617919922,-24.392742156982422,-0.5639718174934387,-0.9029548168182373,-0.30898454785346985,2.508035659790039,0.3395423889160156,-3.3494410514831543
17,112208,112211,0.01932627521455288,-0.015228520147502422,1.0944318771362305,15.29817008972168,-8.447590827941895,-24.337356567382812,-0.5579720735549927,-0.8879556059837341,-0.31798410415649414,2.6996543407440186,0.5341657996177673,-3.6377546787261963
18,112218,112221,-0.14599910378456116,-0.050567783415317535,1.1518913507461548,22.749608993530273,-3.0736708641052246,-24.155517578125,-0.56997150182724,-0.8909554481506348,-0.29998499155044556,2.694385528564453,0.829308032989502,-3.940861940383911
19,112228,112231,-0.1264338344335556,-0.040353160351514816,1.1548258066177368,30.030986785888672,0.6726781725883484,-25.562421798706055,-0.56997150182724,-0.8909554481506348,-0.29998499155044556,3.1214616298675537,1.0755834579467773,-4.184084415435791
20,112238,112241,-0.05997524783015251,-0.04354720935225487,1.2107369899749756,34.08575439453125,-2.3791985511779785,-24.618953704833984,-0.56997150182724,-0.8909554481506348,-0.29998499155044556,3.297581672668457,1.4296443462371826,-4.458329200744629
21,112248,112251,-0.08694921433925629,0.0035679442808032036,1.3036555051803589,34.63459396362305,-7.133235931396484,-22.467233657836914,-0.5849707126617432,-0.8939552903175354,-0.3119843900203705,3.5720841884613037,2.002567768096924,-4.880783557891846
22,112258,112261,-0.3779412508010864,-0.08886286616325378,1.2194067239761353,26.10957145690918,-7.365141868591309,-17.222198486328125,-0.5819708704948425,-0.8879556059837341,-0.29998499155044556,3.805049180984497,2.505225896835327,-5.23356819152832
23,112268,112271,-0.32724666595458984,-0.07344844192266464,1.1079118251800537,8.839872360229492,-3.88201642036438,-11.355021476745605,-0.5819708704948425,-0.8849557638168335,-0.3059847056865692,4.073812484741211,2.8448569774627686,-5.493698596954346
24,112278,112281,-0.6758587956428528,0.09395259618759155,1.197941780090332,-18.191879272460938,2.8719029426574707,-6.276774883270264,-0.5729713439941406,-0.8789560198783875,-0.29998499155044556,4.626651287078857,2.0676491260528564,-4.796602725982666
25,112288,112291,-0.9912604093551636,0.09450279921293259,1.2660447359085083,-45.32265853881836,12.982532501220703,-6.620707035064697,-0.5834708213806152,-0.8744562864303589,-0.29848507046699524,3.9450721740722656,2.2083027362823486,-5.419832229614258
26,112298,112301,-0.3167528808116913,-0.11290858685970306,1.1007804870605469,-67.88180541992188,25.966737747192383,-0.45360636711120605,-0.5984700918197632,-0.8804559707641602,-0.29848507046699524,3.835409164428711,1.4283658266067505,-5.210872650146484
27,112308,112311,-0.16679500043392181,-0.007623158395290375,1.1028528213500977,-81.96485900878906,35.9953498840332,1.3916915655136108,-0.5864706635475159,-0.850457489490509,-0.2864856719970703,3.713547706604004,0.8977387547492981,-5.388616561889648
28,112318,112321,-0.35854434967041016,-0.009767764247953892,1.149968147277832,-79.64898681640625,47.85074234008789,5.474521636962891,-0.5954701900482178,-0.8384580612182617,-0.2744862735271454,3.1041877269744873,0.43126365542411804,-5.771705627441406
29,112328,112331,-0.17693357169628143,-0.046066395938396454,1.197208285331726,-66.03085327148438,56.42789077758789,10.161361694335938,-0.5849707126617432,-0.836958110332489,-0.26998651027679443,2.253728151321411,-0.5448581576347351,-5.537440776824951
30,112338,112341,-0.09362959116697311,-0.02654145658016205,1.0186392068862915,-47.14134216308594,61.45063400268555,12.705106735229492,-0.6104694604873657,-0.8174591064453125,-0.2564871609210968,1.3224397897720337,-1.1630198955535889,-5.463054180145264
31,112348,112351,-0.041999589651823044,-0.41655418276786804,0.8815906047821045,-22.473312377929688,59.90414810180664,14.871116638183594,-0.6149692535400391,-0.8039597868919373,-0.2549872398376465,0.4859216809272766,-1.2821046113967896,-5.581475734710693
32,112358,112361,-0.09421564638614655,-0.09276548773050308,0.943695604801178,2.5689022541046143,49.38135528564453,15.922669410705566,-0.6254687309265137,-0.8084595799446106,-0.25348731875419617,-0.17498397827148438,-1.3708646297454834,-5.463801860809326
33,112368,112371,-0.07782567292451859,0.016712281852960587,1.0637353658676147,21.94623565673828,30.09974479675293,13.779706001281738,-0.6404679417610168,-0.80545973777771,-0.2474876195192337,-0.46872735023498535,-1.228380799293518,-5.339847087860107
34,112378,112381,-0.0996059998869896,-0.09121076762676239,0.9955501556396484,30.73589324951172,4.946755886077881,13.541447639465332,-0.6359682083129883,-0.8099594712257385,-0.25198739767074585,-0.74543696641922,-0.8348263502120972,-5.291259765625
35,112388,112391,-0.42518043518066406,-0.2025383710861206,0.9745882749557495,31.52903938293457,-20.023473739624023,14.189634323120117,-0.6284685730934143,-0.8294585347175598,-0.2564871609210968,-0.6284683346748352,-0.5890541672706604,-5.098840236663818
36,112398,112401,-0.41791996359825134,-0.13469454646110535,0.9898267388343811,22.61334228515625,-46.01608657836914,15.097018241882324,-0.6374680995941162,-0.8234587907791138,-0.25048747658729553,-0.373617559671402,-0.6534069180488586,-4.761909484863281
37,112408,112411,-0.6425011157989502,-0.7139316201210022,0.9320324659347534,5.130802631378174,-64.7049331665039,16.02784538269043,-0.6149692535400391,-0.8219588994979858,-0.2639867961406708,0.6490499377250671,-0.19364239275455475,-4.808262825012207
38,112418,112421,-1.144320011138916,-0.5398650169372559,0.9724183678627014,-18.480045318603516,-73.50969696044922,18.880815505981445,-0.6089695692062378,-0.8189590573310852,-0.28198590874671936,1.222359538078308,-0.5316942930221558,-4.486177921295166
39,112428,112431,-1.343767762184143,-0.10886383056640625,0.981631338596344,-38.13786315917969,-69.11641693115234,17.22057342529297,-0.6059696674346924,-0.8189590573310852,-0.26098695397377014,2.372542142868042,-1.066827416419983,-4.240432262420654
40,112438,112441,-0.4955700635910034,-0.21568714082241058,0.9722738265991211,-52.01169967651367,-52.478553771972656,15.62961196899414,-0.5864706635475159,-0.8174591064453125,-0.2654867172241211,2.4193973541259766,-1.1402491331100464,-4.155167579650879
41,112448,112451,-0.6609798073768616,-0.006337935104966164,1.0241895914077759,-57.38819122314453,-28.845882415771484,14.389978408813477,-0.5969701409339905,-0.797960102558136,-0.24898754060268402,2.838588237762451,-1.9376708269119263,-3.8797311782836914
42,112458,112461,-0.2838856875896454,0.0015978646697476506,1.0286976099014282,-53.095802307128906,-0.6155329346656799,11.146903038024902,-0.6044697761535645,-0.790460467338562,-0.2564871609210968,2.882507801055908,-2.5455563068389893,-3.705033779144287
43,112468,112471,-0.07956919819116592,0.0002805131080094725,1.000366449356079,-37.58894729614258,25.268674850463867,10.534564018249512,-0.5864706635475159,-0.7814609408378601,-0.24148792028427124,2.4159421920776367,-2.856870412826538,-3.6164164543151855
44,112478,112481,-0.13322189450263977,-0.2257142961025238,0.8941320180892944,-16.298002243041992,47.20108413696289,10.990957260131836,-0.6089695692062378,-0.7679615616798401,-0.25198739767074585,1.9244791269302368,-3.2991466522216797,-3.421211004257202
45,112488,112491,-0.19179435074329376,-0.4066357910633087,0.8931372165679932,10.095245361328125,60.24458312988281,10.442365646362305,-0.6149692535400391,-0.782960832118988,-0.227988600730896,1.3313615322113037,-3.0211539268493652,-3.4985828399658203
46,112498,112501,-0.59450364112854,-0.11020518839359283,0.9151797890663147,32.85417938232422,62.19142150878906,9.505290031433105,-0.6209689378738403,-0.7799609899520874,-0.2459876984357834,0.6041918396949768,-2.7919304370880127,-3.402698516845703
47,112508,112511,-0.4893309473991394,-0.3741668164730072,0.8860287070274353,43.528411865234375,49.18982696533203,6.52119779586792,-0.6194689869880676,-0.7874606251716614,-0.2474876195192337,-0.16944605112075806,-2.334493398666382,-3.3049426078796387
48,112518,112521,-0.24952849745750427,-0.3550770580768585,0.854340672492981,42.97272491455078,25.478654861450195,1.6054586172103882,-0.6254687309265137,-0.7934603095054626,-0.24448777735233307,-0.3455164134502411,-1.9648898839950562,-3.3233251571655273
49,112528,112531,-0.5345045328140259,-0.18637222051620483,0.8520702123641968,36.01308059692383,-5.951079845428467,-0.9935252666473389,-0.6284685730934143,-0.7844607830047607,-0.24448777735233307,-0.5114086866378784,-1.4613415002822876,-3.348181962966919
50,112538,112541,-0.7378194332122803,-0.31332463026046753,0.8917263746261597,26.321733474731445,-31.99418067932129,-3.06585693359375,-0.6269686222076416,-0.797960102558136,-0.2459876984357834,-0.36069121956825256,-1.0299535989761353,-3.3888001441955566
51,112548,112551,-0.1585988700389862,-0.27082347869873047,0.92310631275177,15.801125526428223,-53.20553970336914,-5.218857765197754,-0.6269686222076416,-0.8159592151641846,-0.2639867961406708,0.290564626455307,-0.7889655232429504,-3.523280620574951
52,112558,112561,-0.31885647773742676,-0.20270605385303497,0.8950175642967224,6.917667865753174,-61.294532775878906,-6.259246349334717,-0.5954701900482178,-0.8114594221115112,-0.2654867172241211,1.1863492727279663,-1.1514509916305542,-3.5427160263061523
53,112568,112571,-1.1764103174209595,-0.1729232221841812,0.9136234521865845,0.09572330117225647,-59.535858154296875,-6.183821201324463,-0.6149692535400391,-0.7949602603912354,-0.2639867961406708,1.2161120176315308,-1.3319636583328247,-3.3222410678863525
54,112578,112581,-0.7358816266059875,-0.26046180725097656,0.9152683615684509,-2.0284583568573,-46.259971618652344,-6.957981586456299,-0.6014699339866638,-0.790460467338562,-0.24148792028427124,1.8891493082046509,-1.3552229404449463,-3.4139506816864014
55,112588,112591,-0.9160876274108887,-0.6103386878967285,0.9632433652877808,-0.0018551963148638606,-33.40252685546875,-6.316773414611816,-0.6119694113731384,-0.7769611477851868,-0.23998799920082092,2.0156216621398926,-1.361680507659912,-3.3857288360595703
56,112598,112601,-0.7090559005737305,-0.44016218185424805,0.8564143776893616,-1.3174296617507935,-18.567161560058594,-5.860593795776367,-0.623968780040741,-0.7799609899520874,-0.2459876984357834,2.3345940113067627,-1.3923866748809814,-3.4577291011810303
57,112608,112611,-1.14589524269104,-0.4566846787929535,0.9281122088432312,3.1737005710601807,-5.759771823883057,-6.140442848205566,-0.6044697761535645,-0.7844607830047607,-0.24148792028427124,2.4579501152038574,-1.3248841762542725,-3.538722515106201
58,112618,112621,-0.6891562938690186,-0.6152219772338867,0.8781973719596863,14.077774047851562,8.087760925292969,-5.6946611404418945,-0.6074696183204651,-0.7814609408378601,-0.2384880781173706,2.120453119277954,-1.2257438898086548,-3.5029218196868896
59,112628,112631,-0.43845322728157043,-0.4482484459877014,0.9219361543655396,21.300390243530273,15.424864768981934,-5.704571723937988,-0.6194689869880676,-0.7814609408378601,-0.2474876195192337,2.0458972454071045,-0.9635632038116455,-3.60136079788208
60,112638,112641,-0.22912296652793884,-0.1898730844259262,0.9122185707092285,25.39626693725586,18.351119995117188,-6.368682861328125,-0.6149692535400391,-0.7919603586196899,-0.24298784136772156,1.8000915050506592,-0.7860215306282043,-3.6194424629211426
61,112648,112651,-0.29503366351127625,-0.12803597748279572,0.8688182234764099,26.567346572875977,15.629836082458496,-8.622276306152344,-0.6209689378738403,-0.8069596290588379,-0.23998799920082092,1.5908985137939453,-0.40529003739356995,-3.7344248294830322
62,112658,112661,-0.419257253408432,-0.43214330077171326,0.9012114405632019,29.306367874145508,11.524426460266113,-9.065738677978516,-0.6194689869880676,-0.7964601516723633,-0.2594870328903198,1.4568625688552856,-0.1072905883193016,-3.8328347206115723
63,112668,112671,-0.24239982664585114,-0.36518651247024536,0.9045425653457642,27.905126571655273,4.328525066375732,-8.786108016967773,-0.6299684643745422,-0.8009599447250366,-0.24898754060268402,1.48006272315979,0.3297343850135803,-3.9924840927124023
64,112678,112681,-0.1783371865749359,-0.35211309790611267,0.8291019797325134,24.14159393310547,-2.883192300796509,-9.543859481811523,-0.616469144821167,-0.8024598360061646,-0.2564871609210968,1.6841590404510498,0.43055495619773865,-4.075131416320801
65,112688,112691,-0.30700284242630005,-0.2530093193054199,0.8442552089691162,17.721405029296875,-3.8664278984069824,-8.505232810974121,-0.6119694113731384,-0.8159592151641846,-0.26098695397377014,1.7258118391036987,0.4889010190963745,-4.114623546600342
66,112698,112701,-0.4303242862224579,-0.14446987211704254,0.8528999090194702,8.503881454467773,-6.603618621826172,-7.1386284828186035,-0.6209689378738403,-0.8099594712257385,-0.26098695397377014,1.8673324584960938,0.5714354515075684,-4.193109035491943
67,112708,112711,-0.1443004459142685,-0.23381289839744568,0.833313524723053,-0.6661928296089172,-7.009406566619873,-5.3933515548706055,-0.6059696674346924,-0.8069596290588379,-0.24898754060268402,1.802232027053833,0.652110755443573,-4.249497890472412
68,112718,112721,-0.14798179268836975,-0.10207031667232513,0.8800157904624939,-13.016763687133789,-4.9542670249938965,-2.9222092628479004,-0.6089695692062378,-0.8069596290588379,-0.2669866383075714,1.8258541822433472,0.5422324538230896,-4.274386405944824
69,112728,112731,-0.0991782546043396,-0.013626426458358765,0.8978047370910645,-19.658411026000977,-0.22529414296150208,-1.4943416118621826,-0.6134693026542664,-0.8114594221115112,-0.2564871609210968,1.9193216562271118,0.34187132120132446,-4.293745517730713
70,112738,112741,-0.14936421811580658,-0.022026291117072105,0.8944472670555115,-20.948808670043945,3.477531909942627,-0.4384530186653137,-0.5939702987670898,-0.8189590573310852,-0.24898754060268402,1.9280331134796143,0.1596158891916275,-4.312016010284424
71,112748,112751,-0.18190069496631622,-0.09924398362636566,0.9072364568710327,-18.55449676513672,10.175655364990234,1.6987030506134033,-0.5894705057144165,-0.8024598360061646,-0.25348731875419617,1.872680902481079,-0.02618534490466118,-4.314250946044922
72,112758,112761,-0.29076260328292847,-0.16630899906158447,0.9257928133010864,-18.58950424194336,16.6402587890625,4.325087070465088,-0.6014699339866638,-0.8024598360061646,-0.2474876195192337,1.77137291431427,-0.19023478031158447,-4.292266845703125
73,112768,112771,-0.3423442542552948,-0.1953570544719696,0.8882973790168762,-16.617218017578125,22.037952423095703,5.083492279052734,-0.6149692535400391,-0.8099594712257385,-0.26998651027679443,1.4009099006652832,-0.3920828402042389,-4.226377964019775
74,112778,112781,-0.25038769841194153,-0.3952951729297638,0.8932474255561829,-9.882078170776367,22.211904525756836,4.373861789703369,-0.5984700918197632,-0.8114594221115112,-0.2594870328903198,1.0539913177490234,-0.4052501916885376,-4.216156959533691
75,112788,112791,-0.25828033685684204,-0.15787246823310852,0.8969264030456543,-1.8526374101638794,15.258633613586426,3.450317621231079,-0.6119694113731384,-0.8099594712257385,-0.2459876984357834,0.861994206905365,-0.38138458132743835,-4.206593990325928
76,112798,112801,-0.44515982270240784,-0.08514722436666489,0.9029619097709656,8.627632141113281,1.8082706928253174,1.016451120376587,-0.6134693026542664,-0.8084595799446106,-0.25348731875419617,1.254534363746643,-0.35704606771469116,-4.200161457061768
77,112808,112811,-0.2169993668794632,-0.04581690952181816,0.9133034348487854,17.127809524536133,-11.26904296875,1.0428578853607178,-0.5969701409339905,-0.8219588994979858,-0.26098695397377014,1.326699137687683,-0.2188224047422409,-4.19563102722168
78,112818,112821,-0.3862171471118927,0.047349438071250916,0.9263855814933777,25.20362663269043,-13.132205963134766,0.5067787766456604,-0.5984700918197632,-0.8264586329460144,-0.2654867172241211,1.5165060758590698,0.18590109050273895,-4.246427059173584
79,112828,112831,-0.6036676168441772,0.012645135633647442,0.9814450144767761,29.237586975097656,-10.97215461730957,2.629906177520752,-0.6059696674346924,-0.8219588994979858,-0.2669866383075714,1.506266713142395,0.23820392787456512,-4.163780212402344
80,112838,112841,-0.4637925624847412,0.03089315816760063,0.9182363152503967,26.99025535583496,-6.610759735107422,4.074897289276123,-0.5999699831008911,-0.8249587416648865,-0.26998651027679443,1.6680980920791626,0.675116240978241,-4.177758693695068
81,112848,112851,-0.20550508797168732,-0.16959510743618011,0.8999567627906799,24.3776912689209,-3.8224096298217773,5.454477310180664,-0.6014699339866638,-0.8294585347175598,-0.27148643136024475,1.533565878868103,1.079701542854309,-4.168908596038818
82,112858,112861,-0.15421062707901,-0.15354470908641815,0.9178063273429871,20.599645614624023,2.1576802730560303,7.564791679382324,-0.6044697761535645,-0.844457745552063,-0.27148643136024475,1.5428544282913208,1.4206407070159912,-4.131448268890381
83,112868,112871,-0.2267329841852188,-0.22134727239608765,0.9316665530204773,9.105610847473145,6.60675573348999,8.40549373626709,-0.6044697761535645,-0.8474575877189636,-0.277486115694046,1.492390751838684,1.6140456199645996,-4.0622029304504395
84,112878,112881,-0.2581370174884796,-0.09435505419969559,0.9671859741210938,-8.029929161071777,8.228126525878906,8.261970520019531,-0.5984700918197632,-0.8354582190513611,-0.277486115694046,1.5866795778274536,1.5115984678268433,-3.9421911239624023
85,112888,112891,-0.14190086722373962,-0.25931528210639954,0.9445441961288452,-23.900447845458984,14.368234634399414,7.530033111572266,-0.6134693026542664,-0.8354582190513611,-0.2744862735271454,1.387855887413025,1.2249730825424194,-3.8300156593322754
86,112898,112901,-0.3748466670513153,-0.6286036968231201,0.9379999041557312,-34.43593215942383,25.259679794311523,6.962066650390625,-0.5879706144332886,-0.836958110332489,-0.27298635244369507,1.2004053592681885,0.7015230059623718,-3.698040008544922
87,112908,112911,-0.61652010679245,-0.5230951905250549,0.9880053400993347,-39.44443130493164,32.61705017089844,7.6821208000183105,-0.5924703478813171,-0.8354582190513611,-0.26248687505722046,0.8681998252868652,0.55837482213974,-3.680143356323242
88,112918,112921,-0.612162172794342,-0.28574737906455994,1.0114920139312744,-37.95795440673828,32.70968246459961,7.026806831359863,-0.5969701409339905,-0.8279585838317871,-0.27898603677749634,0.4036250710487366,0.09335166215896606,-3.600137948989868
89,112928,112931,-0.43728455901145935,-0.1793718934059143,1.0068936347961426,-29.06556510925293,26.444364547729492,6.09043550491333,-0.6119694113731384,-0.8309584259986877,-0.2639867961406708,0.2861957550048828,-0.11661501228809357,-3.5384933948516846
90,112938,112941,-0.1222667247056961,-0.0712728276848793,1.0387212038040161,-15.21321964263916,17.88202476501465,4.422878742218018,-0.6089695692062378,-0.8219588994979858,-0.2669866383075714,-0.15452690422534943,-0.3166694641113281,-3.5062613487243652
91,112948,112951,-0.4810832142829895,-0.40862128138542175,1.025331735610962,1.1379895210266113,7.037864685058594,3.035189390182495,-0.6059696674346924,-0.8249587416648865,-0.27298635244369507,-0.16857858002185822,-0.3124999701976776,-3.4773385524749756
92,112958,112961,-0.5170319080352783,-0.5004956126213074,0.9435012936592102,13.790597915649414,-4.742963790893555,4.158689022064209,-0.6059696674346924,-0.8309584259986877,-0.2669866383075714,0.025911597535014153,-0.2587941884994507,-3.4198410511016846
93,112968,112971,-0.35129883885383606,-0.25702694058418274,0.925919771194458,24.028533935546875,-18.511045455932617,4.613367557525635,-0.6044697761535645,-0.8264586329460144,-0.28048595786094666,0.19785864651203156,0.005243122112005949,-3.384206771850586
94,112978,112981,-0.1966572105884552,0.00270373304374516,0.9532449841499329,28.31081199645996,-25.31662368774414,6.482974052429199,-0.6014699339866638,-0.8474575877189636,-0.2744862735271454,0.44998612999916077,0.39286667108535767,-3.3416457176208496
95,112988,112991,-0.207074835896492,0.10328112542629242,0.9381985068321228,24.54374885559082,-26.494979858398438,9.320168495178223,-0.6149692535400391,-0.851957380771637,-0.2759861946105957,0.7682987451553345,0.573757529258728,-3.250811815261841
96,112998,113001,-0.5679853558540344,-0.2597592771053314,0.9156859517097473,16.777626037597656,-22.21904754638672,10.927978515625,-0.6029698252677917,-0.8429578542709351,-0.28798559308052063,0.9249264597892761,0.8080573081970215,-3.1622252464294434
97,113008,113011,-0.7107232213020325,-0.477509468793869,0.9537690877914429,0.8739985823631287,-14.402816772460938,12.941311836242676,-0.5849707126617432,-0.8429578542709351,-0.29098543524742126,1.1545673608779907,0.8801315426826477,-3.042027235031128
98,113018,113021,-0.5501577854156494,-0.40879642963409424,0.8784864544868469,-14.02354907989502,0.2266077846288681,14.022758483886719,-0.5924703478813171,-0.850457489490509,-0.28948551416397095,1.2983357906341553,0.7362707257270813,-2.89634370803833
99,113028,113031,-0.5639484524726868,-0.47285112738609314,0.8220140933990479,-27.045255661010742,20.900075912475586,15.303946495056152,-0.5864706635475159,-0.844457745552063,-0.2834858298301697,1.131520390510559,0.5780119299888611,-2.7601871490478516
100,113038,113041,-0.5065764784812927,-0.5007006525993347,0.8882212042808533,-33.662567138671875,38.46257019042969,16.259647369384766,-0.5984700918197632,-0.850457489490509,-0.2864856719970703,0.7886598110198975,0.11333537846803665,-2.5903449058532715
101,113048,113051,-0.5167882442474365,-0.2803843021392822,0.9806540012359619,-33.04372024536133,47.82940673828125,18.17148780822754,-0.5804709792137146,-0.8564571738243103,-0.29848507046699524,0.2510119378566742,0.023760341107845306,-2.4525644779205322
102,113058,113061,-0.4094149172306061,0.005451533943414688,1.0403611660003662,-26.716224670410156,47.27490234375,19.479082107543945,-0.5804709792137146,-0.8564571738243103,-0.29848507046699524,-0.2974727153778076,-0.37874385714530945,-2.261528968811035
103,113068,113071,-0.22071240842342377,0.24922935664653778,1.1853476762771606,-25.934202194213867,37.18797302246094,20.733449935913086,-0.5804709792137146,-0.8564571738243103,-0.29848507046699524,-0.8356483578681946,-0.7872310876846313,-2.0615339279174805
104,113078,113081,-0.17649440467357635,-0.2967487871646881,1.2420790195465088,-14.289359092712402,23.942184448242188,17.7506103515625,-0.5909704566001892,-0.8459576964378357,-0.28198590874671936,-0.8629948496818542,-0.8109647631645203,-1.8586794137954712
105,113088,113091,-0.41997817158699036,-0.43886464834213257,1.2167694568634033,-5.537614345550537,3.6331310272216797,14.616386413574219,-0.5939702987670898,-0.836958110332489,-0.27298635244369507,-0.9928157329559326,-1.0604161024093628,-1.6888914108276367
106,113098,113101,-0.33862441778182983,0.04115799441933632,1.0977872610092163,4.0385823249816895,-10.730459213256836,10.987447738647461,-0.5954701900482178,-0.8414579033851624,-0.2834858298301697,-0.9372421503067017,-0.9388248324394226,-1.5577439069747925
107,113108,113111,-0.39071378111839294,0.050133660435676575,1.0689902305603027,10.856761932373047,-18.40879249572754,8.840962409973145,-0.5969701409339905,-0.8339582681655884,-0.2669866383075714,-0.7543859481811523,-0.8578199148178101,-1.4569675922393799
108,113118,113121,-0.16749714314937592,-0.03232366591691971,1.0729187726974487,11.882816314697266,-20.725496292114258,5.793253421783447,-0.6074696183204651,-0.8294585347175598,-0.27148643136024475,-0.4675109386444092,-0.7391345500946045,-1.3711570501327515
109,113128,113131,-0.5032418966293335,-0.14378571510314941,1.1014771461486816,10.987569808959961,-17.62872314453125,2.3702335357666016,-0.5909704566001892,-0.8309584259986877,-0.26098695397377014,-0.22685153782367706,-0.5991969704627991,-1.3239918947219849
110,113138,113141,-0.7220481634140015,-0.02015763148665428,1.056201696395874,10.727011680603027,-8.23017406463623,-0.3646460175514221,-0.6044697761535645,-0.8324583768844604,-0.26848655939102173,-0.07298825681209564,-0.4782421290874481,-1.3066240549087524
111,113148,113151,-0.18261605501174927,0.17245343327522278,1.0646635293960571,8.173477172851562,0.615803062915802,-2.8630268573760986,-0.6134693026542664,-0.8264586329460144,-0.27148643136024475,-0.0928662046790123,-0.3888205289840698,-1.3188332319259644
112,113158,113161,-0.29040369391441345,0.04573081061244011,1.1091251373291016,4.332101821899414,7.46209192276001,-4.047847747802734,-0.5954701900482178,-0.8204589486122131,-0.26248687505722046,-0.25449058413505554,-0.43556565046310425,-1.3599127531051636
113,113168,113171,-0.6961548924446106,0.028991593047976494,1.053787350654602,4.678921222686768,13.521077156066895,-5.825512409210205,-0.6074696183204651,-0.8174591064453125,-0.26248687505722046,-0.3189660906791687,-0.4077048599720001,-1.416542649269104
114,113178,113181,-0.35982441902160645,-0.6362204551696777,0.981834888458252,5.218514442443848,22.647991180419922,-5.880118370056152,-0.6119694113731384,-0.8219588994979858,-0.2579870820045471,-0.5569150447845459,-0.3587319254875183,-1.480088233947754
115,113188,113191,-0.2630224823951721,-0.8143839240074158,0.9590470194816589,5.6870293617248535,23.7060604095459,-7.47279691696167,-0.6194689869880676,-0.8174591064453125,-0.27148643136024475,-0.7825480103492737,-0.2567366063594818,-1.5430796146392822
116,113198,113201,-1.1663455963134766,-0.40416282415390015,0.9758212566375732,4.6458659172058105,20.86907196044922,-9.184283256530762,-0.6134693026542664,-0.8174591064453125,-0.2594870328903198,-0.9204068779945374,-0.30061620473861694,-1.6363869905471802
117,113208,113211,-0.7560407519340515,-0.16928058862686157,0.8876306414604187,3.5387024879455566,13.476720809936523,-9.505589485168457,-0.6179690957069397,-0.8159592151641846,-0.2639867961406708,-1.181616187095642,-0.28219249844551086,-1.728800654411316
118,113218,113221,-0.8061224818229675,-0.5024622082710266,0.8428624272346497,-1.5159356594085693,6.019923210144043,-9.38255786895752,-0.6134693026542664,-0.8144592642784119,-0.26248687505722046,-1.1150082349777222,-0.22392728924751282,-1.8224666118621826
119,113228,113231,-1.3220961093902588,-1.0304428339004517,0.8931220173835754,-7.705346584320068,1.4947516918182373,-8.016583442687988,-0.6104694604873657,-0.8234587907791138,-0.27148643136024475,-1.1740375757217407,-0.3215341567993164,-1.9231239557266235
120,113238,113241,-0.49335938692092896,-0.36875736713409424,0.9765836000442505,-14.083572387695312,-2.2257943153381348,-6.86197566986084,-0.6089695692062378,-0.8309584259986877,-0.27298635244369507,-1.1960976123809814,-0.34836795926094055,-1.994262933731079
121,113248,113251,-0.468635618686676,-0.09554418921470642,0.9546349048614502,-24.462736129760742,-5.703104496002197,-4.687748432159424,-0.6029698252677917,-0.8429578542709351,-0.27898603677749634,-1.064192295074463,-0.5463714003562927,-2.057081937789917
122,113258,113261,-0.2701880931854248,-0.702136218547821,1.0217185020446777,-34.36238479614258,-5.427955627441406,-2.6646344661712646,-0.6044697761535645,-0.8384580612182617,-0.2834858298301697,-0.979783833026886,-0.9210737943649292,-2.1115705966949463
123,113268,113271,-0.4518263638019562,-0.5320080518722534,1.1175298690795898,-35.331817626953125,3.126049041748047,-1.1547446250915527,-0.5939702987670898,-0.8339582681655884,-0.27898603677749634,-0.9438777565956116,-1.1240532398223877,-2.1019225120544434
124,113278,113281,-0.2260008603334427,-0.0694780945777893,1.08611261844635,-31.90631866455078,13.335505485534668,-0.13424739241600037,-0.5924703478813171,-0.8294585347175598,-0.26848655939102173,-0.967809796333313,-1.7445918321609497,-2.160421133041382
125,113288,113291,-0.44520261883735657,-0.46253061294555664,0.9798030853271484,-23.85648536682129,24.209026336669922,0.17756007611751556,-0.6059696674346924,-0.8309584259986877,-0.26998651027679443,-1.2390283346176147,-2.0272161960601807,-2.1521854400634766
126,113298,113301,-0.49618133902549744,-0.2646240293979645,1.0654562711715698,-9.94734001159668,31.22930335998535,-0.5931706428527832,-0.5999699831008911,-0.8279585838317871,-0.2669866383075714,-1.426019310951233,-2.133803129196167,-2.1483561992645264
127,113308,113311,-0.5343164205551147,-0.21963948011398315,1.0793790817260742,9.447335243225098,33.55729675292969,-1.2955653667449951,-0.6254687309265137,-0.8354582190513611,-0.2654867172241211,-1.839795708656311,-2.201650619506836,-2.165748357772827
128,113318,113321,-0.3752007484436035,-0.1764175295829773,1.020158052444458,26.309282302856445,27.43516731262207,-0.5034101009368896,-0.6059696674346924,-0.8309584259986877,-0.27898603677749634,-2.1753129959106445,-1.6495996713638306,-2.091841697692871
129,113328,113331,-0.3059438467025757,-0.08868492394685745,0.9613478183746338,37.997745513916016,18.388416290283203,-0.10337164998054504,-0.6179690957069397,-0.8429578542709351,-0.26998651027679443,-2.3841590881347656,-1.2405575513839722,-2.0766894817352295
130,113338,113341,-0.6930115222930908,-0.13503943383693695,0.9211544394493103,41.08209991455078,4.9132466316223145,2.439298629760742,-0.6179690957069397,-0.8429578542709351,-0.2759861946105957,-2.430047035217285,-0.9102418422698975,-2.094743490219116
131,113348,113351,-0.9515657424926758,-0.23229911923408508,0.905465304851532,33.10251998901367,-7.194473743438721,5.804476261138916,-0.6254687309265137,-0.844457745552063,-0.2654867172241211,-2.3586041927337646,-0.3430643081665039,-2.0078415870666504
132,113358,113361,-0.928192675113678,-0.18101540207862854,0.9947184920310974,19.81229019165039,-19.268877029418945,6.638497352600098,-0.6254687309265137,-0.8564571738243103,-0.28948551416397095,-2.1805622577667236,-0.11622011661529541,-1.9787940979003906
133,113368,113371,-0.5647886991500854,-0.2069636732339859,1.0775246620178223,-1.1352946758270264,-28.128671646118164,8.069014549255371,-0.6104694604873657,-0.8474575877189636,-0.2864856719970703,-1.9313114881515503,-0.1849273294210434,-1.9698175191879272
134,113378,113381,-0.30060508847236633,-0.12290533632040024,1.1045500040054321,-15.998600959777832,-29.306961059570312,8.586588859558105,-0.6044697761535645,-0.850457489490509,-0.277486115694046,-1.5673726797103882,-0.3612304925918579,-1.9329670667648315
135,113388,113391,-0.36601880192756653,0.07711110264062881,1.1823395490646362,-23.04568099975586,-29.517623901367188,9.585027694702148,-0.5969701409339905,-0.8489575386047363,-0.29098543524742126,-1.3680598735809326,-0.5680632591247559,-1.8401226997375488
136,113398,113401,-0.14233830571174622,0.1483529955148697,1.083469033241272,-24.834293365478516,-21.134136199951172,9.129915237426758,-0.5879706144332886,-0.8489575386047363,-0.28798559308052063,-1.0849934816360474,-0.7855837345123291,-1.734195351600647
137,113408,113411,-0.23510834574699402,0.30728697776794434,1.0783958435058594,-27.08963394165039,-12.212281227111816,9.965651512145996,-0.6089695692062378,-0.8429578542709351,-0.26998651027679443,-0.9567646384239197,-1.2217967510223389,-1.6977349519729614
138,113418,113421,-0.5024976134300232,-0.2516907751560211,1.0717309713363647,-22.807069778442383,-10.01911449432373,11.79599666595459,-0.5984700918197632,-0.8384580612182617,-0.277486115694046,-0.9072589874267578,-1.4998013973236084,-1.5894213914871216
139,113428,113431,-0.4192589521408081,-0.47774308919906616,1.0248736143112183,-17.469898223876953,2.432053565979004,9.696895599365234,-0.6029698252677917,-0.8309584259986877,-0.29098543524742126,-0.9600297808647156,-1.632396936416626,-1.444124460220337
140,113438,113441,-0.12025076150894165,-0.21067875623703003,1.0015227794647217,-5.314340591430664,11.703948020935059,7.169547080993652,-0.6149692535400391,-0.8249587416648865,-0.2669866383075714,-1.1539860963821411,-1.6988368034362793,-1.332175850868225
141,113448,113451,-0.21732337772846222,-0.1482521891593933,1.0585435628890991,2.375199556350708,24.187227249145508,6.117738246917725,-0.6029698252677917,-0.8219588994979858,-0.27298635244369507,-1.3830981254577637,-1.582467794418335,-1.2287541627883911
142,113458,113461,-0.7629767656326294,-0.28581950068473816,1.0157219171524048,5.403226375579834,34.14860916137695,4.383443832397461,-0.6104694604873657,-0.8294585347175598,-0.26848655939102173,-1.6997700929641724,-1.53870689868927,-1.1714919805526733
143,113468,113471,-0.7976464629173279,-0.1218046322464943,0.9689235687255859,6.385501861572266,35.0748405456543,3.9269094467163086,-0.622468888759613,-0.8384580612182617,-0.277486115694046,-1.9880812168121338,-1.456985592842102,-1.1405807733535767
144,113478,113481,-0.39549580216407776,0.08306852728128433,1.0207277536392212,2.3118300437927246,36.1549072265625,1.8622801303863525,-0.6179690957069397,-0.8309584259986877,-0.27298635244369507,-2.60451602935791,-1.3964920043945312,-1.082330346107483
145,113488,113491,-0.12903094291687012,0.17553351819515228,1.042724609375,-1.7924308776855469,21.350528717041016,-0.6936155557632446,-0.6209689378738403,-0.8249587416648865,-0.2669866383075714,-2.4435245990753174,-1.474000334739685,-1.1822364330291748
146,113498,113501,-0.23052220046520233,0.22461120784282684,1.0744357109069824,-1.0247511863708496,10.118599891662598,-1.6562288999557495,-0.6044697761535645,-0.8204589486122131,-0.26848655939102173,-2.587993860244751,-1.5574785470962524,-1.2087595462799072
147,113508,113511,-0.2555595338344574,-0.06579190492630005,1.0749053955078125,9.264457702636719,-6.912055969238281,-2.9287681579589844,-0.6179690957069397,-0.8189590573310852,-0.26998651027679443,-2.511930465698242,-1.5145320892333984,-1.2450851202011108
148,113518,113521,-0.2886141538619995,-0.24276219308376312,1.0001307725906372,14.498472213745117,-21.050865173339844,-2.676793336868286,-0.6134693026542664,-0.8354582190513611,-0.27148643136024475,-2.27776837348938,-1.417769432067871,-1.2769452333450317
149,113528,113531,-0.4570210874080658,-0.27831482887268066,1.0138903856277466,19.70374298095703,-27.722949981689453,-1.6029183864593506,-0.6134693026542664,-0.8384580612182617,-0.277486115694046,-1.9800618886947632,-1.1436488628387451,-1.26776921749115
150,113538,113541,-0.8601442575454712,-0.3359355330467224,1.115236520767212,24.12619972229004,-31.319955825805664,0.61118483543396,-0.6089695692062378,-0.8279585838317871,-0.2639867961406708,-1.646461844444275,-0.959835946559906,-1.2696380615234375
151,113548,113551,-0.8579854369163513,-0.3473397195339203,1.0933386087417603,23.593515396118164,-31.2308406829834,4.081332683563232,-0.6209689378738403,-0.8489575386047363,-0.2759861946105957,-1.212056279182434,-0.7179195880889893,-1.2627607583999634
152,113558,113561,-0.3425886332988739,-0.376444011926651,0.9985469579696655,19.783161163330078,-25.124290466308594,5.7269816398620605,-0.6119694113731384,-0.8399580121040344,-0.2639867961406708,-1.0577114820480347,-0.5017694234848022,-1.191104769706726
153,113568,113571,-0.1811138093471527,-0.6413217186927795,0.9849633574485779,11.467988967895508,-11.548705101013184,6.376859664916992,-0.6134693026542664,-0.8204589486122131,-0.2744862735271454,-0.7233893871307373,-0.3762143552303314,-1.1557034254074097
154,113578,113581,-0.1919243484735489,-0.12394507974386215,1.0123260021209717,-0.02029496803879738,6.883727550506592,6.573270320892334,-0.6149692535400391,-0.8279585838317871,-0.27298635244369507,-0.8788061141967773,-0.33760562539100647,-1.0688928365707397
155,113588,113591,-0.14290054142475128,0.054785504937171936,0.9572381973266602,-12.419462203979492,23.270252227783203,6.941120147705078,-0.6059696674346924,-0.8309584259986877,-0.2669866383075714,-1.1012879610061646,-0.4162636399269104,-0.9926002621650696
156,113598,113601,-0.13942191004753113,0.11312808841466904,0.9686137437820435,-20.73197364807129,28.687314987182617,6.6327595710754395,-0.6149692535400391,-0.8219588994979858,-0.27298635244369507,-1.3848198652267456,-0.6848741173744202,-0.9482706785202026
157,113608,113611,-0.20053711533546448,0.13100764155387878,1.0067591667175293,-26.807750701904297,27.215972900390625,7.744011402130127,-0.5999699831008911,-0.8399580121040344,-0.27298635244369507,-1.7739143371582031,-0.9253564476966858,-0.8707994818687439
158,113618,113621,-0.23117312788963318,0.02077329531311989,1.0418895483016968,-23.0792293548584,18.732282638549805,7.657161712646484,-0.6074696183204651,-0.8264586329460144,-0.27148643136024475,-2.0065054893493652,-1.2054659128189087,-0.8029611706733704
159,113628,113631,-0.26060476899147034,-0.2559383511543274,1.0963159799575806,-13.541954040527344,7.524113655090332,7.049624919891357,-0.6044697761535645,-0.8234587907791138,-0.2654867172241211,-2.1160643100738525,-1.4990310668945312,-0.7603635191917419
160,113638,113641,-0.5227459669113159,-0.45358046889305115,1.1328787803649902,0.15241798758506775,-1.3013609647750854,7.324780464172363,-0.6149692535400391,-0.8429578542709351,-0.26998651027679443,-2.0245141983032227,-1.3703562021255493,-0.637488603591919
161,113648,113651,-0.3275173604488373,-0.09444859623908997,1.1993688344955444,14.556777954101562,-11.849242210388184,5.840742111206055,-0.6359682083129883,-0.8219588994979858,-0.2669866383075714,-1.8631207942962646,-1.3265806436538696,-0.5858275890350342
162,113658,113661,-0.073374442756176,0.07945489883422852,1.1021085977554321,21.830141067504883,-23.490724563598633,5.156498432159424,-0.6179690957069397,-0.8279585838317871,-0.2669866383075714,-1.7129619121551514,-1.0830790996551514,-0.4977658689022064
163,113668,113671,-0.16650092601776123,0.09663920104503632,1.0891039371490479,23.511199951171875,-31.881017684936523,4.182303428649902,-0.6149692535400391,-0.8189590573310852,-0.27298635244369507,-1.525803804397583,-0.7504000067710876,-0.4164610207080841
164,113678,113681,-0.19212685525417328,-0.3882293701171875,1.129638910293579,17.900590896606445,-35.6247673034668,3.0127575397491455,-0.6074696183204651,-0.8234587907791138,-0.2744862735271454,-1.1870461702346802,-0.6061410903930664,-0.39487606287002563
165,113688,113691,-0.6093353629112244,-0.2944035828113556,1.0869642496109009,12.278956413269043,-33.92573165893555,2.129138946533203,-0.6029698252677917,-0.8309584259986877,-0.2759861946105957,-0.8323088884353638,-0.49880117177963257,-0.3762749433517456
166,113698,113701,-0.3833933472633362,-0.00862056203186512,0.9732933640480042,6.473278522491455,-28.800121307373047,0.716009795665741,-0.6074696183204651,-0.8354582190513611,-0.2594870328903198,-0.5511184334754944,-0.6092592477798462,-0.4119601249694824
167,113708,113711,-0.16436919569969177,-0.0835980772972107,1.0058774948120117,4.725795269012451,-23.36949348449707,0.7418226599693298,-0.6089695692062378,-0.8189590573310852,-0.27298635244369507,-0.37320423126220703,-0.47552403807640076,-0.3771023750305176
168,113718,113721,-0.19000151753425598,-0.48402366042137146,0.9964250922203064,6.02278470993042,-15.363804817199707,-0.027822721749544144,-0.6029698252677917,-0.8189590573310852,-0.2639867961406708,-0.12333305180072784,-0.4985387325286865,-0.39495447278022766
169,113728,113731,-0.4694066345691681,-0.6868655681610107,0.8917236924171448,14.163193702697754,-6.434255599975586,1.5793404579162598,-0.6074696183204651,-0.8264586329460144,-0.27148643136024475,-0.17014963924884796,-0.43588975071907043,-0.390900582075119
170,113738,113741,-0.5403717756271362,-0.3337966501712799,0.9225645065307617,22.524816513061523,1.853294849395752,3.657987594604492,-0.6074696183204651,-0.8324583768844604,-0.27148643136024475,-0.09401068091392517,-0.08550890535116196,-0.34204426407814026
171,113748,113751,-0.741974413394928,-0.5184062123298645,0.9311107397079468,22.839603424072266,8.353626251220703,4.677314281463623,-0.6179690957069397,-0.836958110332489,-0.2639867961406708,-0.1033722460269928,0.1828172504901886,-0.29592323303222656
172,113758,113761,-0.5414168238639832,-0.48891326785087585,0.8764330744743347,16.98650360107422,10.823330879211426,5.03648567199707,-0.6059696674346924,-0.8399580121040344,-0.2759861946105957,-0.21561791002750397,0.34256255626678467,-0.2553500831127167
173,113768,113771,-0.23806466162204742,-0.1750490516424179,0.9379758834838867,8.754583358764648,5.928121566772461,4.893072128295898,-0.6074696183204651,-0.8324583768844604,-0.2744862735271454,-0.20185424387454987,0.41306719183921814,-0.21636967360973358
174,113778,113781,-0.6446756720542908,-0.6418734788894653,0.8932927846908569,1.3984462022781372,2.8638010025024414,3.8736732006073,-0.5999699831008911,-0.8399580121040344,-0.2669866383075714,-0.30999326705932617,0.32084256410598755,-0.18402209877967834
175,113788,113791,-0.40701204538345337,-0.3959828019142151,0.8345951437950134,-5.499695777893066,1.0051381587982178,3.701728343963623,-0.5924703478813171,-0.8384580612182617,-0.2864856719970703,-0.34294044971466064,0.34887930750846863,-0.14392279088497162
176,113798,113801,-0.33683526515960693,-0.05239817872643471,0.9073168635368347,-9.4451904296875,-6.9148359298706055,5.11595344543457,-0.5969701409339905,-0.8399580121040344,-0.29098543524742126,-0.30728939175605774,0.3030758202075958,-0.10190702974796295
177,113808,113811,-0.30267202854156494,-0.15261851251125336,0.9510075449943542,-11.441411018371582,-12.157179832458496,4.453360557556152,-0.5834708213806152,-0.8594570159912109,-0.28048595786094666,-0.25430479645729065,0.09717998653650284,-0.06162929907441139
178,113818,113821,-0.20667481422424316,-0.37803876399993896,0.9448289275169373,-8.015040397644043,-9.231695175170898,4.336775302886963,-0.577471137046814,-0.8564571738243103,-0.28948551416397095,-0.017431432381272316,-0.014700217172503471,-0.015832293778657913
179,113828,113831,-0.5264822244644165,-0.21773648262023926,0.999795138835907,-3.182304620742798,-6.830847263336182,5.372685432434082,-0.5849707126617432,-0.851957380771637,-0.27298635244369507,0.016058871522545815,0.08261099457740784,0.028977833688259125
180,113838,113841,-0.4434661865234375,-0.05193033814430237,1.0354297161102295,3.528337240219116,-4.221356391906738,6.009314060211182,-0.5894705057144165,-0.850457489490509,-0.28948551416397095,0.06062973663210869,0.10976096242666245,0.08519871532917023
181,113848,113851,-0.11252764612436295,-0.07489589601755142,0.96722012758255,7.86207389831543,-3.328015089035034,5.730704307556152,-0.5879706144332886,-0.8639568090438843,-0.28498575091362,0.07395124435424805,0.24466854333877563,0.14363712072372437
182,113858,113861,-0.44865381717681885,0.20306891202926636,1.061424970626831,9.750726699829102,-4.180251121520996,4.929183483123779,-0.5834708213806152,-0.8474575877189636,-0.2834858298301697,0.15111519396305084,0.2883293330669403,0.20213152468204498
183,113868,113871,-0.6228138208389282,0.060647156089544296,1.055188775062561,11.529016494750977,-5.255331516265869,4.587353706359863,-0.5984700918197632,-0.8594570159912109,-0.28948551416397095,0.11324523389339447,0.47193750739097595,0.24675025045871735
184,113878,113881,-0.06771259009838104,0.05287407338619232,1.0261938571929932,13.50460147857666,-1.7960695028305054,3.3598413467407227,-0.5984700918197632,-0.8594570159912109,-0.28948551416397095,0.17700624465942383,0.4180712401866913,0.2905406951904297
185,113888,113891,-0.05054678022861481,-0.04592055827379227,1.0787585973739624,14.030447006225586,2.849031925201416,1.8569302558898926,-0.5984700918197632,-0.8594570159912109,-0.28948551416397095,0.201148122549057,0.6883488297462463,0.31105226278305054
186,113898,113901,-0.17888371646404266,-0.25294604897499084,0.9866756796836853,14.803716659545898,7.331094264984131,-0.2148025780916214,-0.5834708213806152,-0.8654567003250122,-0.2924853563308716,0.17098784446716309,0.7309961915016174,0.3267403841018677
187,113908,113911,-0.21818865835666656,-0.26411953568458557,0.9925128221511841,14.418730735778809,9.110468864440918,-3.0043509006500244,-0.5939702987670898,-0.8579570651054382,-0.28798559308052063,0.08007685095071793,0.9467434883117676,0.3023723065853119
188,113918,113921,-0.4824014902114868,-0.42345157265663147,0.996819019317627,10.518710136413574,8.661030769348145,-4.809872627258301,-0.5864706635475159,-0.8534573316574097,-0.2924853563308716,0.02550092339515686,1.2006189823150635,0.26032131910324097
189,113928,113931,-1.1029824018478394,-0.46283361315727234,1.031325340270996,7.124370098114014,5.06028938293457,-6.9403076171875,-0.5879706144332886,-0.8459576964378357,-0.2969851493835449,-0.0402144156396389,1.308249831199646,0.20436333119869232
190,113938,113941,-1.6736537218093872,-0.6369929313659668,1.0414239168167114,0.45245426893234253,-5.235235214233398,-7.204694747924805,-0.6014699339866638,-0.850457489490509,-0.2864856719970703,0.0753106027841568,1.2765527963638306,0.15625186264514923
191,113948,113951,-0.6383244395256042,-0.8704109787940979,1.0799310207366943,-6.3098578453063965,-10.702142715454102,-8.78815746307373,-0.5789710283279419,-0.8579570651054382,-0.28498575091362,0.20971518754959106,1.192302942276001,0.09073013812303543
192,113958,113961,-0.3067660331726074,-0.28120875358581543,1.0843877792358398,-10.512755393981934,-13.252226829528809,-11.663545608520508,-0.5909704566001892,-0.8549572229385376,-0.2759861946105957,0.35433849692344666,1.0585356950759888,-0.005033025052398443
193,113968,113971,-0.3364110589027405,0.007002335507422686,1.1170141696929932,-12.132685661315918,-14.995794296264648,-13.793692588806152,-0.5894705057144165,-0.8594570159912109,-0.28948551416397095,0.5694500803947449,0.9751102924346924,-0.1244640201330185
194,113978,113981,-0.149697408080101,0.11764330416917801,1.0713670253753662,-11.053851127624512,-10.565244674682617,-16.268274307250977,-0.5864706635475159,-0.8414579033851624,-0.28048595786094666,0.7113356590270996,0.7951370477676392,-0.2654702961444855
195,113988,113991,-0.04547844082117081,0.0806511864066124,1.0271741151809692,-8.194750785827637,-3.572200059890747,-16.472152709960938,-0.5924703478813171,-0.8354582190513611,-0.2834858298301697,0.7149816751480103,0.6807194352149963,-0.4387660622596741
196,113998,114001,-0.18239738047122955,-0.35055404901504517,1.0318939685821533,-4.3907470703125,7.213292121887207,-17.05170440673828,-0.5984700918197632,-0.844457745552063,-0.2654867172241211,0.5892457962036133,0.6603809595108032,-0.6302214860916138
197,114008,114011,-0.1343255341053009,-0.29429885745048523,1.0123308897018433,0.8221499919891357,15.432753562927246,-17.14354705810547,-0.5864706635475159,-0.844457745552063,-0.2834858298301697,0.4451095759868622,0.7071596384048462,-0.8188507556915283
198,114018,114021,-0.04038240388035774,-0.06895501166582108,1.0156828165054321,3.44722580909729,19.77204704284668,-15.914365768432617,-0.5969701409339905,-0.8279585838317871,-0.2759861946105957,0.24176381528377533,0.8324161171913147,-1.00394606590271
199,114028,114031,-0.07968137413263321,0.017564481124281883,0.9333143830299377,-1.0219011306762695,19.859996795654297,-15.184832572937012,-0.6089695692062378,-0.8339582681655884,-0.2639867961406708,0.010824845172464848,0.807296097278595,-1.155585527420044
200,114038,114041,-1.1959749460220337,-0.5002889037132263,0.9631115794181824,-1.8592638969421387,18.205514907836914,-13.94340705871582,-0.6194689869880676,-0.8234587907791138,-0.26248687505722046,-0.1943752020597458,0.8135131597518921,-1.3050405979156494
201,114048,114051,-1.2449899911880493,-0.8805649280548096,0.9791465401649475,-6.660067081451416,12.078512191772461,-11.418869018554688,-0.6059696674346924,-0.836958110332489,-0.27298635244369507,-0.37025752663612366,0.7540173530578613,-1.4243676662445068
202,114058,114061,-0.4646873474121094,-0.44208580255508423,1.096437931060791,-8.500496864318848,4.070638656616211,-10.201294898986816,-0.6059696674346924,-0.8219588994979858,-0.26098695397377014,-0.5449866056442261,0.6473293304443359,-1.544861078262329
203,114068,114071,-0.14650465548038483,-0.5734082460403442,1.2060831785202026,-10.059938430786133,-2.5297818183898926,-9.796025276184082,-0.6014699339866638,-0.8354582190513611,-0.2744862735271454,-0.6121974587440491,0.6160666942596436,-1.6600042581558228
204,114078,114081,-0.35532042384147644,-0.40712475776672363,1.0908676385879517,-11.442473411560059,-9.884710311889648,-7.920055866241455,-0.6029698252677917,-0.8339582681655884,-0.27898603677749634,-0.4806235134601593,0.5262563228607178,-1.7405953407287598
205,114088,114091,-0.6668537855148315,0.05105419084429741,1.0454907417297363,-11.203261375427246,-14.18471622467041,-7.546627521514893,-0.5999699831008911,-0.8399580121040344,-0.2639867961406708,-0.284114807844162,0.3409671485424042,-1.794786810874939
206,114098,114101,-0.617624044418335,-0.11795149743556976,1.1274702548980713,-7.319307327270508,-20.243484497070312,-6.968181610107422,-0.6014699339866638,-0.8234587907791138,-0.2594870328903198,-0.05226669833064079,0.25330108404159546,-1.8562092781066895
207,114108,114111,-1.4225023984909058,-0.5828464031219482,0.9896591901779175,1.090738296508789,-25.45844841003418,-5.402103424072266,-0.6089695692062378,-0.8309584259986877,-0.2669866383075714,0.3236682116985321,0.15407489240169525,-1.8882611989974976
208,114118,114121,-1.7768510580062866,-0.41213858127593994,1.054744005203247,6.263253688812256,-27.85957145690918,-2.7100510597229004,-0.6089695692062378,-0.8159592151641846,-0.26098695397377014,0.3302520513534546,0.22620126605033875,-1.986352562904358
209,114128,114131,-0.8934261798858643,-0.2990029752254486,1.0657893419265747,12.702349662780762,-25.582786560058594,-0.2432611733675003,-0.5999699831008911,-0.8189590573310852,-0.26998651027679443,0.6147373914718628,0.3729652762413025,-2.0007662773132324
210,114138,114141,-0.2221357226371765,-0.026590317487716675,1.0014216899871826,10.095885276794434,-22.763628005981445,2.0405471324920654,-0.5999699831008911,-0.8189590573310852,-0.2549872398376465,0.9427403211593628,0.5801327228546143,-1.9869977235794067
211,114148,114151,-0.20858873426914215,-0.2649533748626709,1.0213747024536133,3.409151315689087,-15.594911575317383,3.006690263748169,-0.6359682083129883,-0.8219588994979858,-0.2759861946105957,0.997937023639679,0.6856073141098022,-1.9910869598388672
212,114158,114161,-0.3500077724456787,-0.2596833407878876,1.0056748390197754,-2.9439330101013184,-2.2046496868133545,4.23190450668335,-0.6089695692062378,-0.8219588994979858,-0.2549872398376465,1.2000526189804077,0.6710482835769653,-1.9386720657348633
213,114168,114171,-0.41036492586135864,-0.7362167835235596,0.9691718220710754,-6.938574314117432,12.344633102416992,7.10988187789917,-0.5999699831008911,-0.8159592151641846,-0.2669866383075714,1.1899137496948242,0.5903193354606628,-1.8768904209136963
214,114178,114181,-0.6167215704917908,-0.8128464818000793,0.903458297252655,-9.728782653808594,26.08526039123535,9.345246315002441,-0.6179690957069397,-0.8189590573310852,-0.24898754060268402,0.9524518847465515,0.44326111674308777,-1.793149709701538
215,114188,114191,-0.7778558731079102,-0.5745510458946228,0.9068303108215332,-9.1889066696167,33.56100082397461,9.774008750915527,-0.6149692535400391,-0.8099594712257385,-0.2669866383075714,0.6934629082679749,0.34512093663215637,-1.6890583038330078
216,114198,114201,-0.5061646699905396,-0.40131404995918274,0.8870230913162231,-7.209249496459961,34.12330627441406,10.482582092285156,-0.6104694604873657,-0.8144592642784119,-0.26248687505722046,0.21443909406661987,0.2179596871137619,-1.6039284467697144
217,114208,114211,-0.4112398624420166,-0.23878049850463867,0.8108618259429932,-6.015020370483398,29.40816879272461,11.833556175231934,-0.6254687309265137,-0.8144592642784119,-0.2594870328903198,-0.049015339463949203,0.20339812338352203,-1.4936561584472656
218,114218,114221,-0.241440549492836,-0.06815233081579208,0.9588690996170044,-3.588758945465088,25.4894962310791,13.846951484680176,-0.6284685730934143,-0.8234587907791138,-0.26848655939102173,-0.3104704022407532,0.2800423800945282,-1.3795442581176758
219,114228,114231,-0.3763284981250763,-0.1571936458349228,0.9975810050964355,-2.4575448036193848,20.570693969726562,14.943832397460938,-0.6104694604873657,-0.8144592642784119,-0.26248687505722046,-0.5490824580192566,0.113735131919384,-1.2117983102798462
220,114238,114241,-0.8274242877960205,0.022282464429736137,1.031187653541565,-4.932307243347168,15.370190620422363,16.62484359741211,-0.6059696674346924,-0.8219588994979858,-0.2669866383075714,-0.6359967589378357,0.0634804219007492,-1.0402107238769531
221,114248,114251,-0.6850517392158508,-0.11653998494148254,1.0542559623718262,-4.275158882141113,8.47849178314209,16.977863311767578,-0.6044697761535645,-0.8174591064453125,-0.26248687505722046,-0.7886247038841248,0.1707499921321869,-0.8938344717025757
222,114258,114261,-0.29468172788619995,-0.2867596745491028,1.0147168636322021,-2.4496703147888184,-0.5770747661590576,16.96563720703125,-0.6134693026542664,-0.8234587907791138,-0.2654867172241211,-0.8393562436103821,0.0746137946844101,-0.7188493013381958
223,114268,114271,-0.5380399823188782,-0.3210428059101105,0.8710916638374329,-1.6159769296646118,-7.721467018127441,16.905298233032227,-0.6059696674346924,-0.836958110332489,-0.27898603677749634,-0.6450750231742859,0.03468242287635803,-0.5260742902755737
224,114278,114281,-0.9734057188034058,-0.21114547550678253,0.8928614258766174,-5.492250442504883,-12.696892738342285,15.745055198669434,-0.6029698252677917,-0.8339582681655884,-0.26998651027679443,-0.4568817913532257,-0.027042964473366737,-0.3453768789768219
225,114288,114291,-0.5991576910018921,-0.10492058843374252,0.9821492433547974,-9.756583213806152,-13.085354804992676,14.003523826599121,-0.6179690957069397,-0.8309584259986877,-0.26998651027679443,-0.23029248416423798,-0.16744211316108704,-0.18556559085845947
226,114298,114301,-0.8226282596588135,-0.368135541677475,0.9859274625778198,-13.989952087402344,-10.403186798095703,12.394265174865723,-0.6029698252677917,-0.836958110332489,-0.27298635244369507,-0.051421791315078735,-0.31236931681632996,-0.04724360257387161
227,114308,114311,-0.601665735244751,-0.35092267394065857,0.9903091192245483,-14.074312210083008,-4.263005256652832,10.809982299804688,-0.5999699831008911,-0.8459576964378357,-0.2669866383075714,-0.07880430668592453,-0.5473304986953735,0.07179712504148483
228,114318,114321,-0.21615320444107056,-0.07266462594270706,0.8936924934387207,-8.03276252746582,4.061665058135986,7.962891101837158,-0.5924703478813171,-0.8294585347175598,-0.26848655939102173,0.02601195126771927,-0.7368700504302979,0.18153026700019836
229,114328,114331,-0.3685765266418457,-0.01195089053362608,0.953336238861084,4.418341636657715,10.091279983520508,7.408369064331055,-0.6044697761535645,-0.8234587907791138,-0.26248687505722046,-0.11944380402565002,-0.7618775963783264,0.2522275149822235
230,114338,114341,-0.3368273675441742,-0.07373965531587601,1.0517011880874634,10.682427406311035,9.101557731628418,7.444458484649658,-0.5939702987670898,-0.8279585838317871,-0.26998651027679443,-0.23167312145233154,-0.6219547986984253,0.32087305188179016
231,114348,114351,-0.08089461922645569,-0.09576734155416489,1.068170189857483,11.399447441101074,5.75329065322876,7.117800712585449,-0.5924703478813171,-0.8294585347175598,-0.26848655939102173,-0.3097705543041229,-0.4301057457923889,0.3923519551753998
232,114358,114361,0.045401934534311295,-0.0029309303499758244,1.0425920486450195,12.929213523864746,2.8031208515167236,5.817395210266113,-0.5909704566001892,-0.8429578542709351,-0.27298635244369507,-0.4172676205635071,-0.24627961218357086,0.45148834586143494
233,114368,114371,-0.07827826589345932,-0.022874372079968452,0.9981419444084167,9.768966674804688,-2.8649444580078125,4.086382865905762,-0.6119694113731384,-0.8429578542709351,-0.27898603677749634,-0.4402410387992859,-0.05787494406104088,0.4954985976219177
234,114378,114381,-0.883808970451355,-0.3169604539871216,0.9614496231079102,6.048933506011963,-6.261419773101807,3.1625049114227295,-0.5954701900482178,-0.8474575877189636,-0.2654867172241211,-0.39003434777259827,0.019597742706537247,0.5314181447029114
235,114388,114391,-1.4798940420150757,-0.28834831714630127,0.9908590316772461,-0.7285151481628418,-13.223628997802734,2.7908871173858643,-0.6044697761535645,-0.8414579033851624,-0.27148643136024475,-0.14881807565689087,-0.06846693158149719,0.5637600421905518
236,114398,114401,-0.3389374613761902,-0.13988059759140015,0.9893144965171814,-5.9277496337890625,-23.795869827270508,3.046518087387085,-0.5789710283279419,-0.836958110332489,-0.28798559308052063,0.12986718118190765,-0.11544422805309296,0.594235360622406
237,114408,114411,-0.39578789472579956,-0.001800129422917962,1.0042389631271362,-5.844946384429932,-26.88534164428711,2.3246572017669678,-0.5864706635475159,-0.8534573316574097,-0.28048595786094666,0.32015031576156616,-0.21961848437786102,0.6244537234306335
238,114418,114421,-0.40124648809432983,0.025668708607554436,1.0003317594528198,-1.1274425983428955,-21.194887161254883,1.9564275741577148,-0.5789710283279419,-0.8429578542709351,-0.29098543524742126,0.6404954195022583,-0.2840834856033325,0.6447345614433289
239,114428,114431,-0.3327212929725647,-0.0310974083840847,1.0188981294631958,7.0000200271606445,-8.816169738769531,3.030627727508545,-0.5939702987670898,-0.836958110332489,-0.27298635244369507,0.8149765729904175,-0.1759842187166214,0.6641339063644409
240,114438,114441,-0.10456300526857376,0.11530058830976486,1.0009169578552246,11.852046012878418,5.453168869018555,3.2948126792907715,-0.5969701409339905,-0.8459576964378357,-0.28498575091362,0.6976083517074585,-0.08820488303899765,0.6990898251533508
241,114448,114451,-0.2969026565551758,0.02012881264090538,1.0099495649337769,15.27712631225586,24.99112892150879,2.66931414604187,-0.6029698252677917,-0.8429578542709351,-0.2759861946105957,0.41056326031684875,0.1377910077571869,0.7236922979354858
242,114458,114461,-0.21378149092197418,-0.08240128308534622,1.038528323173523,17.459871292114258,38.66466522216797,2.7929880619049072,-0.5969701409339905,-0.8489575386047363,-0.26998651027679443,0.03492296114563942,0.196928471326828,0.7586799263954163
243,114468,114471,-0.10642939060926437,-0.11096051335334778,0.9890369176864624,14.623655319213867,45.37607955932617,2.5895655155181885,-0.5969701409339905,-0.8579570651054382,-0.28798559308052063,-0.5174074172973633,0.411333292722702,0.7894842624664307
244,114478,114481,-0.14943654835224152,-0.3639981150627136,1.0095887184143066,5.064770698547363,42.86983108520508,1.7133797407150269,-0.6104694604873657,-0.8594570159912109,-0.28048595786094666,-1.0250999927520752,0.5826514959335327,0.8162714242935181
245,114488,114491,-0.521266520023346,-0.3307376503944397,1.0046366453170776,-2.8785712718963623,30.57699203491211,-1.7368528842926025,-0.6089695692062378,-0.8339582681655884,-0.2759861946105957,-1.157189130783081,0.40770840644836426,0.8289764523506165
246,114498,114501,-1.4185543060302734,-0.743400514125824,0.9648573994636536,-7.738318920135498,22.458919525146484,-3.4217143058776855,-0.6119694113731384,-0.836958110332489,-0.27898603677749634,-1.509796142578125,0.39434224367141724,0.8017115592956543
247,114508,114511,-0.7031574845314026,-0.3494677245616913,0.8951216340065002,-11.463202476501465,7.118435859680176,-4.151052951812744,-0.6044697761535645,-0.8354582190513611,-0.277486115694046,-1.5432944297790527,0.27870824933052063,0.7584564685821533
248,114518,114521,-0.5706033706665039,-0.2989967465400696,0.8995477557182312,-11.37277889251709,-7.611677646636963,-3.228895902633667,-0.6044697761535645,-0.8354582190513611,-0.27148643136024475,-1.5216377973556519,0.24966979026794434,0.719899594783783
249,114528,114531,-0.33293861150741577,-0.23410438001155853,0.8878116011619568,-12.77755355834961,-18.70795440673828,-0.5895252823829651,-0.5999699831008911,-0.836958110332489,-0.26998651027679443,-1.3115354776382446,0.06807391345500946,0.6940935254096985
250,114538,114541,-0.21515367925167084,-0.21259106695652008,0.9563988447189331,-15.984113693237305,-21.643978118896484,1.3653165102005005,-0.5984700918197632,-0.8294585347175598,-0.28048595786094666,-1.037817120552063,-0.14721931517124176,0.6924358606338501
251,114548,114551,-1.0855448246002197,-0.8677620887756348,0.9290642142295837,-17.107398986816406,-16.39957046508789,1.791224718093872,-0.5924703478813171,-0.8384580612182617,-0.2744862735271454,-0.8245285749435425,-0.32389548420906067,0.7120283842086792
252,114558,114561,-1.1588599681854248,-1.009392261505127,0.9464945793151855,-16.90880584716797,-8.342963218688965,0.5301198363304138,-0.5984700918197632,-0.8414579033851624,-0.28048595786094666,-0.7040414810180664,-0.44503864645957947,0.7248402833938599
253,114568,114571,-0.6456656455993652,-0.4592069685459137,1.0120288133621216,-8.37290096282959,-1.1502147912979126,-1.7763499021530151,-0.5999699831008911,-0.8579570651054382,-0.28798559308052063,-0.6708384156227112,-0.6188080310821533,0.7139402627944946
254,114578,114581,-0.30637723207473755,-0.07599473744630814,1.0481619834899902,0.2695472240447998,4.304880142211914,-3.6228294372558594,-0.5969701409339905,-0.851957380771637,-0.28498575091362,-0.6884993314743042,-0.4515077769756317,0.7058551907539368
255,114588,114591,-0.1285312920808792,0.11711813509464264,1.0644172430038452,7.402935028076172,2.260976791381836,-5.315615177154541,-0.6029698252677917,-0.8549572229385376,-0.29098543524742126,-0.7445067763328552,-0.36144575476646423,0.6635380387306213
256,114598,114601,-0.12258307635784149,0.16093377768993378,1.1252548694610596,13.325705528259277,-0.8573039174079895,-5.595788955688477,-0.5954701900482178,-0.8474575877189636,-0.28948551416397095,-0.7597996592521667,-0.2051849216222763,0.6170180439949036
257,114608,114611,-0.08832121640443802,-0.028659434989094734,1.1958180665969849,19.810667037963867,-3.754937171936035,-4.9058027267456055,-0.5909704566001892,-0.8579570651054382,-0.28798559308052063,-0.8205373883247375,-0.08983302861452103,0.5589913129806519
258,114618,114621,-0.2575018107891083,-0.0571889728307724,1.116905689239502,17.376577377319336,-5.548708438873291,-2.412748098373413,-0.6029698252677917,-0.851957380771637,-0.28198590874671936,-0.7218723297119141,0.01414136216044426,0.5156009197235107
259,114628,114631,-0.7112607955932617,-0.19203466176986694,1.0827784538269043,11.948518753051758,-9.866239547729492,0.17282094061374664,-0.5909704566001892,-0.8489575386047363,-0.28198590874671936,-0.5969746112823486,0.2052592635154724,0.5057697296142578
260,114638,114641,-0.463174432516098,-0.20698079466819763,1.1228549480438232,5.564422607421875,-16.046518325805664,2.7139055728912354,-0.6044697761535645,-0.8414579033851624,-0.28948551416397095,-0.4470357298851013,0.2809510827064514,0.5190861225128174
261,114648,114651,-0.17270150780677795,-0.17734991014003754,1.114021897315979,4.282573223114014,-15.55138111114502,3.0240256786346436,-0.5939702987670898,-0.836958110332489,-0.28498575091362,-0.32609665393829346,0.3495658338069916,0.5489036440849304
262,114658,114661,-0.17660406231880188,-0.07348304986953735,1.004959225654602,2.8995134830474854,-8.661850929260254,2.5442168712615967,-0.5984700918197632,-0.8324583768844604,-0.28048595786094666,-0.21398983895778656,0.2762996554374695,0.5607028007507324
263,114668,114671,-1.0094999074935913,-0.26297909021377563,0.9237849116325378,3.5106756687164307,-2.414051055908203,2.2682063579559326,-0.6134693026542664,-0.8294585347175598,-0.2744862735271454,-0.18290433287620544,0.363039493560791,0.5878282785415649
264,114678,114681,-1.561629295349121,-0.8165899515151978,0.9592117667198181,4.7428297996521,2.2431864738464355,1.7811297178268433,-0.6029698252677917,-0.8249587416648865,-0.2759861946105957,-0.32725271582603455,0.29220226407051086,0.5997536778450012
265,114688,114691,-1.3893035650253296,-0.6104391813278198,0.9230340123176575,7.518111705780029,0.6241216063499451,1.3430943489074707,-0.5924703478813171,-0.8414579033851624,-0.26248687505722046,-0.27193930745124817,0.41112011671066284,0.617723822593689
266,114698,114701,-0.4250326454639435,-0.3570956289768219,0.8802576661109924,11.020734786987305,-2.1569881439208984,1.575831651687622,-0.5954701900482178,-0.8324583768844604,-0.277486115694046,-0.2806280851364136,0.5193400979042053,0.6387454867362976
267,114708,114711,-0.07798674702644348,-0.13696998357772827,0.9457682371139526,11.718791961669922,-2.907630205154419,0.9594650268554688,-0.5954701900482178,-0.8324583768844604,-0.277486115694046,-0.20196524262428284,0.5208323001861572,0.6465473175048828
268,114718,114721,-0.30745556950569153,-0.26464396715164185,0.9865774512290955,7.88753604888916,-0.4954569339752197,1.739461064338684,-0.5954701900482178,-0.8324583768844604,-0.277486115694046,-0.1356312483549118,0.6308626532554626,0.6596714854240417
269,114728,114731,-1.0183333158493042,-0.2963600158691406,1.030856966972351,1.049553394317627,2.1576287746429443,0.1845773607492447,-0.6119694113731384,-0.8339582681655884,-0.2669866383075714,-0.07174523919820786,0.6443928480148315,0.6726301908493042
270,114738,114741,-1.0050095319747925,-0.24451304972171783,1.0878684520721436,-2.752689838409424,4.621444225311279,-0.6298388838768005,-0.5984700918197632,-0.8354582190513611,-0.27148643136024475,-0.058017585426568985,0.6257275938987732,0.6765708327293396
271,114748,114751,-0.2824430465698242,-0.2993282675743103,1.0441436767578125,-3.3339946269989014,5.757373809814453,0.5962199568748474,-0.6029698252677917,-0.8249587416648865,-0.27898603677749634,-0.1108158752322197,0.5253599286079407,0.6718966960906982
272,114758,114761,-0.1341363489627838,-0.34021732211112976,1.0028892755508423,-4.710357666015625,2.908369779586792,2.0652525424957275,-0.5954701900482178,-0.8324583768844604,-0.2744862735271454,-0.18867875635623932,0.4920068383216858,0.6853349804878235
273,114768,114771,-0.6290117502212524,-0.355547159910202,0.9886666536331177,-15.573192596435547,-5.819823741912842,1.3250746726989746,-0.6074696183204651,-0.8324583768844604,-0.26848655939102173,-0.11854574084281921,0.34187594056129456,0.710656464099884
274,114778,114781,-0.5643515586853027,-0.1310526728630066,1.0040532350540161,-20.853424072265625,-14.891825675964355,-0.3914444148540497,-0.6044697761535645,-0.8324583768844604,-0.277486115694046,0.05484660714864731,0.1438363641500473,0.7186679840087891
275,114788,114791,-0.305451363325119,-0.06824469566345215,0.9982048273086548,-20.939001083374023,-22.129764556884766,-3.619309186935425,-0.5879706144332886,-0.8309584259986877,-0.26998651027679443,0.3522876501083374,-0.11011592298746109,0.7090316414833069
276,114798,114801,-0.24127915501594543,-0.04850378260016441,0.9638898372650146,-16.72755241394043,-25.92740249633789,-6.85994291305542,-0.5984700918197632,-0.8234587907791138,-0.28048595786094666,0.5340359210968018,-0.2532194256782532,0.6507526636123657
277,114808,114811,-0.04244554787874222,0.030441900715231895,0.9929947257041931,-2.2930655479431152,-20.64840316772461,-9.429420471191406,-0.5729713439941406,-0.8309584259986877,-0.28198590874671936,0.7453924417495728,-0.4015226662158966,0.5659293532371521
278,114818,114821,-0.21859300136566162,-0.10211905837059021,0.9854586124420166,10.89824104309082,-10.917675018310547,-11.280007362365723,-0.5969701409339905,-0.8279585838317871,-0.27298635244369507,0.8739041090011597,-0.1680908501148224,0.4557095468044281
279,114828,114831,-0.23043347895145416,-0.24605374038219452,1.076168417930603,21.774240493774414,1.7696908712387085,-12.962691307067871,-0.5909704566001892,-0.8279585838317871,-0.2669866383075714,0.7773309946060181,0.05701738968491554,0.33056503534317017
280,114838,114841,-0.1872538924217224,-0.0547223798930645,1.0398640632629395,31.288599014282227,17.20546531677246,-13.90958309173584,-0.5999699831008911,-0.8249587416648865,-0.27898603677749634,0.7054232954978943,0.4398525655269623,0.19116272032260895
281,114848,114851,-0.153336301445961,-0.3146381080150604,1.0848721265792847,32.71656799316406,27.913619995117188,-12.732799530029297,-0.6029698252677917,-0.8309584259986877,-0.28198590874671936,0.49945542216300964,0.6169413328170776,0.07091056555509567
282,114858,114861,-0.3221750855445862,-0.2589212954044342,1.0932780504226685,30.300758361816406,30.16722297668457,-12.245479583740234,-0.6089695692062378,-0.8309584259986877,-0.2759861946105957,0.08338689059019089,0.9966871738433838,-0.054689161479473114
283,114868,114871,-0.3726723790168762,-0.07161957025527954,1.0742218494415283,25.876333236694336,28.52216911315918,-12.351020812988281,-0.5954701900482178,-0.8384580612182617,-0.2864856719970703,-4.3165531678823754e-05,1.2417773008346558,-0.1584353744983673
284,114878,114881,-0.1788405030965805,-0.26407602429389954,1.0171480178833008,15.612236022949219,18.24799919128418,-13.861550331115723,-0.6059696674346924,-0.8309584259986877,-0.28798559308052063,-0.31390833854675293,1.5124667882919312,-0.2955428957939148
285,114888,114891,-0.20220494270324707,-0.5653630495071411,0.9898098707199097,8.486970901489258,10.944422721862793,-13.39554500579834,-0.6074696183204651,-0.8324583768844604,-0.26848655939102173,-0.47947582602500916,1.5852694511413574,-0.42734822630882263
286,114898,114901,-0.6262368559837341,-0.27255529165267944,0.9582555890083313,-3.8208181858062744,6.377682685852051,-11.898707389831543,-0.6089695692062378,-0.8339582681655884,-0.27298635244369507,-0.4132428467273712,1.352782964706421,-0.5222479701042175
287,114908,114911,-0.5472526550292969,-0.3585229218006134,1.0782616138458252,-20.505441665649414,-3.8848025798797607,-10.819437980651855,-0.6089695692062378,-0.8339582681655884,-0.2759861946105957,-0.5016974806785583,1.196844220161438,-0.643178403377533
288,114918,114921,-0.10029671341180801,-0.16095812618732452,1.1692649126052856,-32.21652603149414,-13.28796100616455,-9.538603782653809,-0.6044697761535645,-0.8384580612182617,-0.277486115694046,-0.4777386784553528,0.8695055842399597,-0.7501248121261597
289,114928,114931,-0.08289725333452225,-0.32715049386024475,1.0685911178588867,-44.34292221069336,-21.07729721069336,-8.447324752807617,-0.5999699831008911,-0.8279585838317871,-0.26998651027679443,-0.13090769946575165,0.5196067690849304,-0.8202733993530273
290,114938,114941,-0.439899206161499,-0.29401153326034546,1.0677547454833984,-49.19285583496094,-26.98893165588379,-9.58459186553955,-0.6029698252677917,-0.8339582681655884,-0.2759861946105957,0.09577769786119461,-0.1695336401462555,-0.9038971662521362
291,114948,114951,-0.19603930413722992,-0.4164797067642212,1.1056239604949951,-44.53537368774414,-29.458850860595703,-9.300207138061523,-0.5834708213806152,-0.8294585347175598,-0.27148643136024475,0.3910425007343292,-0.3740089535713196,-1.0058180093765259
292,114958,114961,-0.24938338994979858,-0.6679276823997498,1.1029726266860962,-25.083740234375,-28.721479415893555,-9.924019813537598,-0.6089695692062378,-0.8249587416648865,-0.2639867961406708,0.7308546900749207,-0.8157919645309448,-1.0890306234359741
293,114968,114971,-0.5372895002365112,-0.4439929723739624,1.0905547142028809,1.7314518690109253,-27.807701110839844,-9.098103523254395,-0.5984700918197632,-0.8084595799446106,-0.2594870328903198,0.9101458191871643,-0.7493630647659302,-1.1987866163253784
294,114978,114981,-0.7538211941719055,0.035780176520347595,1.0414173603057861,26.24042320251465,-17.446346282958984,-7.148285865783691,-0.622468888759613,-0.8234587907791138,-0.2564871609210968,1.1394295692443848,-0.4437749981880188,-1.2835603952407837
295,114988,114991,-0.8876698017120361,0.04695591330528259,1.018475890159607,43.37968063354492,-3.3111557960510254,-5.525851726531982,-0.6074696183204651,-0.8204589486122131,-0.26248687505722046,1.0407955646514893,0.15059705078601837,-1.377645492553711
296,114998,115001,-1.0833021402359009,-0.07474243640899658,1.0096981525421143,58.532474517822266,13.748775482177734,-3.7047040462493896,-0.6119694113731384,-0.8219588994979858,-0.2669866383075714,0.9569787383079529,0.5426837801933289,-1.417731523513794
297,115008,115011,-0.7156972289085388,-0.10353062301874161,1.022520899772644,67.03831481933594,25.48200035095215,-0.5275772213935852,-0.616469144821167,-0.8294585347175598,-0.27148643136024475,0.6502749919891357,1.2880866527557373,-1.453096628189087
298,115018,115021,-0.46542027592658997,-0.010302930139005184,0.9770302772521973,62.890220642089844,36.20806121826172,2.9520339965820312,-0.6209689378738403,-0.8249587416648865,-0.27298635244369507,0.38895583152770996,1.765968918800354,-1.4066152572631836
299,115028,115031,-0.9823566675186157,-0.27797481417655945,0.8868497014045715,43.19690704345703,38.78351593017578,5.7127556800842285,-0.6254687309265137,-0.8414579033851624,-0.2594870328903198,-0.05721186101436615,2.323615550994873,-1.3581252098083496
300,115038,115041,-0.3244059979915619,-0.8306859731674194,0.9013549089431763,18.524030685424805,36.31515884399414,8.232915878295898,-0.6179690957069397,-0.8279585838317871,-0.2639867961406708,-0.320440411567688,2.5640220642089844,-1.2510783672332764
301,115048,115051,-0.10612742602825165,-0.31750211119651794,0.9152223467826843,-6.4704766273498535,25.970905303955078,7.759487628936768,-0.623968780040741,-0.8279585838317871,-0.2669866383075714,-0.7561846375465393,2.5401227474212646,-1.156287431716919
302,115058,115061,0.0009474314865656197,-0.05755588039755821,0.817828357219696,-31.225040435791016,15.408571243286133,6.443881034851074,-0.6314684152603149,-0.8204589486122131,-0.2594870328903198,-0.8936049342155457,2.2082340717315674,-1.053382158279419
303,115068,115071,-0.4150160551071167,-0.149395152926445,0.8910796046257019,-50.11306381225586,6.23940896987915,4.875983238220215,-0.6119694113731384,-0.8279585838317871,-0.2759861946105957,-0.8371703028678894,1.738584041595459,-0.9646869897842407
304,115078,115081,-0.2067808359861374,0.0009411848150193691,0.987316370010376,-60.0340690612793,-3.3080897331237793,4.702661514282227,-0.6029698252677917,-0.8279585838317871,-0.2669866383075714,-0.857103705406189,1.1169393062591553,-0.9145511984825134
305,115088,115091,-0.6624582409858704,0.006198762450367212,1.012305498123169,-62.35374450683594,-11.69091796875,5.8632636070251465,-0.6179690957069397,-0.8219588994979858,-0.2759861946105957,-0.8486356735229492,0.6233091950416565,-0.8799379467964172
306,115098,115101,-0.5271161198616028,0.03583577647805214,0.9826188683509827,-58.69407653808594,-18.475574493408203,6.149447917938232,-0.6059696674346924,-0.8279585838317871,-0.26098695397377014,-0.6090936064720154,0.05197515711188316,-0.8038609027862549
307,115108,115111,-0.5118555426597595,0.17271891236305237,1.0627061128616333,-48.22171401977539,-20.97704315185547,4.505208969116211,-0.6104694604873657,-0.8324583768844604,-0.2594870328903198,-0.4314647316932678,-0.48428934812545776,-0.7536519765853882
308,115118,115121,-0.29874593019485474,0.08835203945636749,1.0272084474563599,-27.757280349731445,-22.032344818115234,1.5221168994903564,-0.6089695692062378,-0.8249587416648865,-0.27298635244369507,-0.2737959623336792,-0.7895820140838623,-0.7319849133491516
309,115128,115131,-0.07083003222942352,0.07684081792831421,0.9612194299697876,-4.225964069366455,-19.357227325439453,0.2953808009624481,-0.5954701900482178,-0.8174591064453125,-0.26848655939102173,0.07488702982664108,-0.925307035446167,-0.7021405696868896
310,115138,115141,-0.10177220404148102,-0.1532764583826065,1.0353697538375854,24.244075775146484,-10.987181663513184,0.08097781985998154,-0.5999699831008911,-0.8249587416648865,-0.2579870820045471,0.08612998574972153,-0.7217360734939575,-0.7133098840713501
311,115148,115151,-0.026333583518862724,-0.20396608114242554,1.0496313571929932,41.4765625,-5.270421981811523,1.2389354705810547,-0.6014699339866638,-0.8264586329460144,-0.26248687505722046,0.2226756364107132,-0.19307780265808105,-0.703381359577179
312,115158,115161,-0.00990502629429102,-0.10949991643428802,1.0682390928268433,49.596073150634766,3.857322931289673,3.0239439010620117,-0.6194689869880676,-0.8414579033851624,-0.2744862735271454,0.23518916964530945,0.3015903830528259,-0.6777667999267578
313,115168,115171,-0.1290525645017624,-0.04598746448755264,1.0402042865753174,43.20255661010742,14.102275848388672,3.6068735122680664,-0.6119694113731384,-0.8459576964378357,-0.28198590874671936,0.0009399365517310798,0.6979345679283142,-0.649900496006012
314,115178,115181,-0.6825457215309143,0.07199005782604218,1.003401517868042,22.447359085083008,18.88698387145996,4.380711555480957,-0.6119694113731384,-0.8309584259986877,-0.2669866383075714,-0.29678818583488464,1.1862162351608276,-0.6105123162269592
315,115188,115191,-0.7959035038948059,-0.17900264263153076,0.9987954497337341,-8.310872077941895,18.304899215698242,4.033848285675049,-0.6299684643745422,-0.8249587416648865,-0.2759861946105957,-0.38103681802749634,0.8740435242652893,-0.554314911365509
316,115198,115201,-1.0070490837097168,-0.41631004214286804,0.9829332828521729,-34.0239143371582,17.441967010498047,2.02624249458313,-0.5999699831008911,-0.8279585838317871,-0.2639867961406708,-0.48325613141059875,0.5264760255813599,-0.5193295478820801
317,115208,115211,-0.4622354209423065,-0.6709564924240112,0.9524854421615601,-49.012027740478516,18.256488800048828,0.5118334889411926,-0.5954701900482178,-0.8354582190513611,-0.277486115694046,-0.5740610361099243,0.1082080602645874,-0.5054421424865723
318,115218,115221,-0.9278818368911743,-0.4211392402648926,0.9333527088165283,-50.37919616699219,16.925060272216797,0.9425230026245117,-0.6059696674346924,-0.8339582681655884,-0.2639867961406708,-0.8119487762451172,-0.487400084733963,-0.5070209503173828
319,115228,115231,-1.4671292304992676,-0.04055432975292206,0.9760603308677673,-44.255149841308594,13.088687896728516,2.3731162548065186,-0.5999699831008911,-0.8279585838317871,-0.28498575091362,-0.9729328751564026,-0.9214848875999451,-0.49348556995391846
320,115238,115241,-0.5391018986701965,-0.13988889753818512,1.046814203262329,-30.37760353088379,4.97141170501709,4.574802398681641,-0.6089695692062378,-0.8249587416648865,-0.27298635244369507,-1.1361874341964722,-1.2522704601287842,-0.46112141013145447
321,115248,115251,-0.2705076038837433,-0.15268081426620483,0.9799737334251404,-12.440185546875,-7.742758750915527,6.8981170654296875,-0.6089695692062378,-0.8309584259986877,-0.27898603677749634,-1.2213966846466064,-1.4684721231460571,-0.4129714369773865
322,115258,115261,-0.2478495091199875,-0.10614018887281418,0.9611831307411194,5.5816168785095215,-20.983631134033203,9.671821594238281,-0.5969701409339905,-0.8219588994979858,-0.26998651027679443,-0.9583651423454285,-1.3977442979812622,-0.3201369345188141
323,115268,115271,-0.1651134192943573,-0.1465855836868286,0.947287380695343,19.676307678222656,-29.59305191040039,12.60769271850586,-0.5999699831008911,-0.8309584259986877,-0.27898603677749634,-0.5878949165344238,-1.2148483991622925,-0.2030334323644638
324,115278,115281,-0.31741392612457275,-0.20418015122413635,1.0205827951431274,29.307270050048828,-26.169540405273438,15.185811042785645,-0.5924703478813171,-0.8414579033851624,-0.277486115694046,-0.38334378600120544,-0.8290555477142334,-0.04615744575858116
325,115288,115291,-0.49598726630210876,-0.22556404769420624,0.9961186647415161,31.85993003845215,-18.437904357910156,18.53411102294922,-0.5864706635475159,-0.8564571738243103,-0.2924853563308716,-0.19402089715003967,-0.5519464015960693,0.1271253079175949
326,115298,115301,-0.503633975982666,-0.19501259922981262,0.9409149289131165,27.348520278930664,-9.943211555480957,20.63360023498535,-0.5894705057144165,-0.8534573316574097,-0.27148643136024475,0.07146795094013214,-0.1389683485031128,0.3204015791416168
327,115308,115311,-0.5050532221794128,-0.165382981300354,0.9809859395027161,19.325881958007812,-2.5227460861206055,20.25450325012207,-0.5909704566001892,-0.8489575386047363,-0.27298635244369507,0.0616878978908062,-0.06774859875440598,0.5249616503715515
328,115318,115321,-0.3882073760032654,-0.16274520754814148,1.024301290512085,5.20251989364624,0.85381680727005,19.080013275146484,-0.5804709792137146,-0.8414579033851624,-0.2834858298301697,0.10600289702415466,-0.006061028689146042,0.7179643511772156
329,115328,115331,-0.19230231642723083,-0.04551606625318527,1.0074846744537354,-3.7228617668151855,0.6453611254692078,16.070585250854492,-0.5939702987670898,-0.8549572229385376,-0.28198590874671936,-0.16033805906772614,0.06393753737211227,0.9266912937164307
330,115338,115341,-0.0738651305437088,-0.08939754962921143,1.0182607173919678,-9.566665649414062,0.09179683029651642,13.934089660644531,-0.5789710283279419,-0.8459576964378357,-0.28498575091362,-0.2032719999551773,-0.056668348610401154,1.0783336162567139
331,115348,115351,-0.17507652938365936,-0.08106669038534164,1.0126157999038696,-13.11512279510498,-3.8101282119750977,11.75920581817627,-0.5924703478813171,-0.8354582190513611,-0.28948551416397095,-0.2121969610452652,-0.11935491859912872,1.2126003503799438
332,115358,115361,-0.04937897250056267,0.061240363866090775,1.045395016670227,-9.851909637451172,-8.16047477722168,10.285383224487305,-0.5909704566001892,-0.8459576964378357,-0.2669866383075714,-0.07345657795667648,-0.3352234661579132,1.311578631401062
333,115368,115371,-0.08394868671894073,0.09959028661251068,1.1164844036102295,-3.336118221282959,-10.798039436340332,9.611724853515625,-0.5834708213806152,-0.844457745552063,-0.28948551416397095,0.042801596224308014,-0.37401533126831055,1.410298228263855
334,115378,115381,-0.7093217372894287,0.007643426768481731,1.065151333808899,3.0005784034729004,-12.282722473144531,8.316614151000977,-0.5849707126617432,-0.8429578542709351,-0.28198590874671936,0.1333191990852356,-0.3940719962120056,1.5051052570343018
335,115388,115391,-0.5747635960578918,-0.047193221747875214,1.0289052724838257,10.02025032043457,-10.147134780883789,6.717921257019043,-0.5804709792137146,-0.8384580612182617,-0.2834858298301697,0.2859649956226349,-0.2871392071247101,1.5803784132003784
336,115398,115401,-0.302582710981369,-0.06271069496870041,1.0031696557998657,13.256903648376465,-6.594053745269775,5.317765235900879,-0.5894705057144165,-0.8534573316574097,-0.277486115694046,0.46175965666770935,-0.1012578159570694,1.6356855630874634
337,115408,115411,-0.7505589723587036,-0.04685216397047043,1.01129949092865,11.595503807067871,-2.492750644683838,3.8008460998535156,-0.5804709792137146,-0.8564571738243103,-0.2864856719970703,0.5031211376190186,0.020134637132287025,1.6825731992721558
338,115418,115421,-0.5649141669273376,-0.0819716826081276,1.0311241149902344,6.383868217468262,-2.0529677867889404,0.6662003397941589,-0.5759711861610413,-0.836958110332489,-0.28198590874671936,0.483521431684494,0.16301606595516205,1.7104278802871704
339,115428,115431,-0.10732287913560867,-0.15626145899295807,1.0207306146621704,1.7724119424819946,1.3081954717636108,-2.4227585792541504,-0.5864706635475159,-0.8534573316574097,-0.2864856719970703,0.51771479845047,0.05913874879479408,1.7020025253295898
340,115438,115441,-0.06997766345739365,-0.06969903409481049,1.0242695808410645,1.9280450344085693,4.861545085906982,-4.184330463409424,-0.5864706635475159,-0.8474575877189636,-0.277486115694046,0.49773281812667847,0.07699420303106308,1.6647006273269653
341,115448,115451,-0.09252547472715378,0.035553280264139175,1.0606904029846191,5.339105606079102,9.692773818969727,-3.7564165592193604,-0.5864706635475159,-0.8414579033851624,-0.277486115694046,0.4096745550632477,0.11988017708063126,1.6262834072113037
342,115458,115461,-0.1151106134057045,-0.17565546929836273,1.0604749917984009,7.092658519744873,10.731206893920898,-3.796837568283081,-0.5819708704948425,-0.8549572229385376,-0.27298635244369507,0.26543745398521423,0.13791123032569885,1.5970102548599243
343,115468,115471,-0.14242450892925262,-0.04027797281742096,1.0830434560775757,6.885707855224609,7.86430025100708,-3.803719997406006,-0.5879706144332886,-0.8429578542709351,-0.2759861946105957,0.20390500128269196,0.19120503962039948,1.559091567993164
344,115478,115481,-0.6878378987312317,0.0005891168839298189,1.0075123310089111,2.269017219543457,2.4485530853271484,-2.342226982116699,-0.5984700918197632,-0.8384580612182617,-0.2924853563308716,0.14933697879314423,0.18942248821258545,1.5330429077148438
345,115488,115491,-0.7741051316261292,-0.05803688243031502,1.008833885192871,-2.4794583320617676,2.418254852294922,-0.7438428401947021,-0.5924703478813171,-0.850457489490509,-0.28948551416397095,0.13319185376167297,0.19174811244010925,1.5160592794418335
346,115498,115501,-0.5085629820823669,-0.3849565088748932,1.0332679748535156,-6.031270980834961,0.5529175996780396,2.652301549911499,-0.5864706635475159,-0.8534573316574097,-0.2864856719970703,0.12161777913570404,0.12476803362369537,1.5225913524627686
347,115508,115511,-0.42074328660964966,-0.2990306615829468,1.0825624465942383,-11.0869140625,0.9389216303825378,4.761435031890869,-0.5849707126617432,-0.851957380771637,-0.28498575091362,0.05999693274497986,-0.011722966097295284,1.5681320428848267
348,115518,115521,-0.9758564233779907,0.0026373425498604774,1.0480968952178955,-17.888219833374023,0.4961409568786621,7.20656681060791,-0.5969701409339905,-0.8429578542709351,-0.28498575091362,0.18901962041854858,-0.16872690618038177,1.6232250928878784
349,115528,115531,-0.8161671757698059,0.07719046622514725,1.054337501525879,-22.266204833984375,7.552478790283203,9.298938751220703,-0.5969701409339905,-0.8429578542709351,-0.28498575091362,0.22786837816238403,-0.21471162140369415,1.6991913318634033
350,115538,115541,-0.30449628829956055,0.05506473034620285,1.047836184501648,-21.87247085571289,15.935494422912598,10.453338623046875,-0.5969701409339905,-0.8429578542709351,-0.28498575091362,0.05660822615027428,-0.5147640109062195,1.8071593046188354
351,115548,115551,-0.08614683151245117,-0.03163609653711319,0.9748757481575012,-23.123016357421875,16.44778060913086,8.848992347717285,-0.5924703478813171,-0.8534573316574097,-0.28948551416397095,-0.19302858412265778,-0.7467376589775085,1.9078956842422485
352,115558,115561,-0.07167638838291168,0.029146438464522362,0.9835605621337891,-19.676551818847656,12.827835083007812,8.047723770141602,-0.5864706635475159,-0.850457489490509,-0.2744862735271454,-0.4194003641605377,-1.0989670753479004,2.002178430557251
353,115568,115571,-0.25780701637268066,-0.0098749790340662,1.0632658004760742,-10.58064079284668,6.4155778884887695,7.942533016204834,-0.5924703478813171,-0.8414579033851624,-0.277486115694046,-0.5642855167388916,-1.2043815851211548,2.0769951343536377
354,115578,115581,-0.5578970313072205,-0.2552773654460907,1.0091348886489868,0.45593878626823425,-6.108633041381836,8.751884460449219,-0.5924703478813171,-0.8474575877189636,-0.27148643136024475,-0.5561779141426086,-1.1522811651229858,2.1552305221557617
355,115588,115591,-0.2706040143966675,-0.3702280521392822,1.0371885299682617,11.153471946716309,-15.621113777160645,8.586655616760254,-0.5864706635475159,-0.8384580612182617,-0.28948551416397095,-0.3451376259326935,-1.0587542057037354,2.237055778503418
356,115598,115601,-0.12166229635477066,-0.03803510218858719,1.0514192581176758,17.342994689941406,-16.33741569519043,8.517462730407715,-0.5894705057144165,-0.8384580612182617,-0.2744862735271454,-0.12111641466617584,-0.9660047888755798,2.320626974105835
357,115608,115611,-0.014217092655599117,0.027832558378577232,1.0154637098312378,21.846704483032227,-16.40886878967285,8.093223571777344,-0.5894705057144165,-0.8474575877189636,-0.2834858298301697,0.026209436357021332,-0.7099799513816833,2.407794713973999
358,115618,115621,-0.12827996909618378,-0.30954983830451965,1.015472412109375,26.551706314086914,-17.41550636291504,6.1724629402160645,-0.5684715509414673,-0.8474575877189636,-0.277486115694046,0.1860925257205963,-0.31777986884117126,2.4795351028442383
359,115628,115631,-0.2296142429113388,-0.3805798292160034,1.0160274505615234,24.188016891479492,-13.988743782043457,5.004684925079346,-0.5969701409339905,-0.8429578542709351,-0.28798559308052063,0.45789483189582825,-0.2030472308397293,2.5258212089538574
360,115638,115641,-0.5182944536209106,-0.08866652101278305,1.0100765228271484,18.23696517944336,-12.912976264953613,2.6956284046173096,-0.5879706144332886,-0.851957380771637,-0.2969851493835449,0.41017183661460876,0.01512673869729042,2.5898349285125732
361,115648,115651,-0.29600125551223755,0.017597347497940063,1.0198594331741333,9.595185279846191,-14.245973587036133,0.6516948938369751,-0.5894705057144165,-0.850457489490509,-0.28948551416397095,0.5179651975631714,0.17958949506282806,2.6119210720062256
362,115658,115661,-0.27553990483283997,-0.27130669355392456,1.042378306388855,6.006287097930908,-16.1945858001709,-0.27524369955062866,-0.5744712948799133,-0.8384580612182617,-0.2864856719970703,0.581568717956543,0.30632925033569336,2.6184823513031006
363,115668,115671,-0.2529553174972534,-0.13063061237335205,0.9945123195648193,5.800754547119141,-14.269308090209961,1.0116487741470337,-0.5834708213806152,-0.8414579033851624,-0.2834858298301697,0.8710587024688721,0.2500153183937073,2.6095058917999268
364,115678,115681,-0.1457565873861313,-0.11953151226043701,1.0074540376663208,0.8376259207725525,-8.084264755249023,2.7544209957122803,-0.5864706635475159,-0.8534573316574097,-0.2834858298301697,1.0195229053497314,0.32694104313850403,2.6231837272644043
365,115688,115691,-0.10281995683908463,-0.04542595520615578,1.0393354892730713,-6.354563236236572,-0.006294155027717352,3.725526809692383,-0.577471137046814,-0.844457745552063,-0.277486115694046,1.0569069385528564,0.28679516911506653,2.6582276821136475
366,115698,115701,-0.4914553463459015,-0.0615607425570488,1.0287518501281738,-14.33027172088623,9.77446460723877,5.741943359375,-0.577471137046814,-0.8474575877189636,-0.277486115694046,0.937171459197998,0.05045554041862488,2.722576856613159
367,115708,115711,-1.0527784824371338,-0.028116654604673386,1.0313435792922974,-19.90455436706543,20.125953674316406,6.268465042114258,-0.5714713931083679,-0.8414579033851624,-0.2834858298301697,0.786887526512146,-0.21436375379562378,2.7922773361206055
368,115718,115721,-0.2172480970621109,-0.03577354550361633,1.0100458860397339,-22.435321807861328,26.71251678466797,7.433836460113525,-0.56997150182724,-0.8309584259986877,-0.2939853072166443,0.433154433965683,-0.4065670669078827,2.859583616256714
369,115728,115731,0.027977528050541878,0.0346471443772316,1.0246649980545044,-18.468730926513672,26.78204917907715,8.71634578704834,-0.5759711861610413,-0.836958110332489,-0.27298635244369507,0.09154023975133896,-0.6602868437767029,2.945869207382202
370,115738,115741,-0.14921273291110992,0.03655832260847092,1.0685415267944336,-12.93130874633789,15.184074401855469,11.430148124694824,-0.5819708704948425,-0.8309584259986877,-0.2759861946105957,-0.23412322998046875,-0.8258441686630249,3.0469908714294434
371,115748,115751,-0.08102172613143921,0.039996448904275894,1.071452021598816,-10.391880989074707,-1.3136030435562134,12.18451976776123,-0.5864706635475159,-0.8414579033851624,-0.2834858298301697,-0.1085934191942215,-0.853421151638031,3.1448171138763428
372,115758,115761,-0.19249768555164337,0.013398139737546444,1.0239211320877075,-5.602697372436523,-14.961220741271973,11.76498794555664,-0.5729713439941406,-0.8309584259986877,-0.28798559308052063,0.11346159875392914,-0.9708543419837952,3.2619597911834717
373,115768,115771,-0.2801574766635895,0.01372834574431181,0.9961490035057068,0.37775158882141113,-18.35810089111328,10.885769844055176,-0.5879706144332886,-0.8459576964378357,-0.26998651027679443,0.19934557378292084,-0.9962700009346008,3.385054588317871
374,115778,115781,-0.19957253336906433,0.024718603119254112,1.0256752967834473,10.52295207977295,-18.36707305908203,8.472454071044922,-0.5969701409339905,-0.8279585838317871,-0.27298635244369507,0.5313751697540283,-0.8899732232093811,3.471052408218384
375,115788,115791,-0.41433754563331604,-0.314931184053421,1.069935917854309,21.02952003479004,-13.543540000915527,7.853289604187012,-0.5819708704948425,-0.8399580121040344,-0.28498575091362,0.6730177998542786,-0.6271577477455139,3.5475456714630127
376,115798,115801,-0.18365564942359924,-0.19412915408611298,1.0352243185043335,31.549917221069336,-4.137235164642334,6.671601295471191,-0.5879706144332886,-0.8429578542709351,-0.26998651027679443,0.7072672247886658,-0.3420760929584503,3.6252379417419434
377,115808,115811,-0.07081755995750427,0.02542540617287159,1.0372055768966675,36.08763885498047,4.395948886871338,5.646579742431641,-0.5879706144332886,-0.8459576964378357,-0.28198590874671936,0.7319685220718384,-0.12449561059474945,3.6971688270568848
378,115818,115821,-0.08704948425292969,-0.011319431476294994,1.0254263877868652,32.41047668457031,10.984613418579102,5.383655548095703,-0.5849707126617432,-0.851957380771637,-0.28198590874671936,0.6362057328224182,0.33075374364852905,3.745455741882324
379,115828,115831,-0.15015611052513123,0.013899843208491802,1.0480949878692627,23.586000442504883,10.48019790649414,3.6152188777923584,-0.5864706635475159,-0.8384580612182617,-0.27148643136024475,0.4681682884693146,0.6743054389953613,3.79472279548645
380,115838,115841,-0.22217541933059692,-0.033946383744478226,0.9771693348884583,11.065812110900879,6.335843563079834,1.4011948108673096,-0.5834708213806152,-0.844457745552063,-0.2864856719970703,0.40792837738990784,0.564258873462677,3.848726511001587
381,115848,115851,-0.41135677695274353,-0.2862589955329895,1.0080208778381348,-4.586855888366699,1.1432267427444458,-1.1537346839904785,-0.5924703478813171,-0.850457489490509,-0.277486115694046,0.34492284059524536,0.6566784381866455,3.8458316326141357
382,115858,115861,-0.13730530440807343,-0.08123991638422012,1.0102901458740234,-16.515989303588867,-4.848077774047852,-2.7180426120758057,-0.5834708213806152,-0.8324583768844604,-0.28048595786094666,0.4616887867450714,0.4380494952201843,3.8316633701324463
383,115868,115871,-0.018818354234099388,-0.007760793436318636,1.013771653175354,-22.61769676208496,-10.665661811828613,-4.891190052032471,-0.5744712948799133,-0.8384580612182617,-0.28048595786094666,0.565886378288269,0.13100628554821014,3.7935781478881836
384,115878,115881,-0.14235971868038177,-0.06704751402139664,1.051228642463684,-21.227920532226562,-16.393136978149414,-5.9356369972229,-0.5789710283279419,-0.8399580121040344,-0.27298635244369507,0.6726964116096497,-0.04995929077267647,3.72983980178833
385,115888,115891,-0.3041470944881439,-0.024311786517500877,1.0170118808746338,-16.300907135009766,-16.213510513305664,-6.154470443725586,-0.5639718174934387,-0.8279585838317871,-0.2639867961406708,0.7490347623825073,-0.18111559748649597,3.6679415702819824
386,115898,115901,-0.21166004240512848,-0.06627236306667328,1.0300955772399902,-15.537178993225098,-12.711714744567871,-7.441382884979248,-0.5819708704948425,-0.8429578542709351,-0.27298635244369507,1.0061841011047363,-0.40795406699180603,3.6054747104644775
387,115908,115911,-0.07479419559240341,-0.009850150905549526,0.9918502569198608,-8.194111824035645,-5.881133556365967,-9.759919166564941,-0.5714713931083679,-0.8264586329460144,-0.26248687505722046,1.1285226345062256,-0.5023753046989441,3.5147299766540527
388,115918,115921,-0.15688815712928772,-0.019007565453648567,1.004010558128357,-0.12434207648038864,-1.5092960596084595,-12.211116790771484,-0.5789710283279419,-0.8339582681655884,-0.2759861946105957,1.0656780004501343,-0.4707830846309662,3.397352695465088
389,115928,115931,-0.41956663131713867,-0.040074240416288376,0.9959107637405396,14.982553482055664,1.6646884679794312,-13.530187606811523,-0.5924703478813171,-0.8264586329460144,-0.277486115694046,1.0889885425567627,-0.3123605251312256,3.2622365951538086
390,115938,115941,-0.2583242654800415,0.12245849519968033,0.9947800040245056,29.091629028320312,2.1248385906219482,-15.642455101013184,-0.5969701409339905,-0.8339582681655884,-0.27298635244369507,1.096195936203003,-0.11757313460111618,3.1209497451782227
391,115948,115951,-0.046977438032627106,0.08273501694202423,0.9555647969245911,36.977081298828125,2.8921024799346924,-16.923933029174805,-0.5969701409339905,-0.8309584259986877,-0.2759861946105957,1.0112755298614502,0.4467087388038635,2.9169774055480957
392,115958,115961,-0.19273336231708527,-0.16301625967025757,0.9183231592178345,42.63914489746094,3.205416679382324,-16.58549690246582,-0.5954701900482178,-0.844457745552063,-0.277486115694046,1.0010942220687866,0.8276699781417847,2.757261276245117
393,115968,115971,-0.6034950017929077,-0.4278455078601837,0.9038182497024536,43.41013717651367,5.854588985443115,-16.473417282104492,-0.5954701900482178,-0.8384580612182617,-0.28048595786094666,0.972648024559021,1.1327753067016602,2.6160597801208496
394,115978,115981,-0.965539813041687,-0.8620334267616272,1.0557252168655396,44.70701217651367,7.127765655517578,-17.187393188476562,-0.5894705057144165,-0.8414579033851624,-0.277486115694046,0.8944358825683594,1.7517964839935303,2.421663761138916
395,115988,115991,-0.5206084847450256,-0.893927276134491,1.0091547966003418,41.27248001098633,9.051021575927734,-17.59151268005371,-0.6014699339866638,-0.8474575877189636,-0.277486115694046,0.7641689777374268,1.9308136701583862,2.2928812503814697
396,115998,116001,-0.2194729596376419,-0.5171450972557068,0.991248607635498,30.806032180786133,9.68602466583252,-17.415945053100586,-0.6029698252677917,-0.8459576964378357,-0.27898603677749634,0.6446847915649414,2.491986036300659,2.086897850036621
397,116008,116011,-0.2169945389032364,-0.28570032119750977,0.9636788368225098,14.455835342407227,9.90589714050293,-15.250736236572266,-0.5834708213806152,-0.8564571738243103,-0.2744862735271454,0.8082729578018188,2.6002187728881836,1.9682728052139282
398,116018,116021,-0.31063640117645264,-0.4800473153591156,0.847410261631012,-4.999835968017578,12.704561233520508,-12.925169944763184,-0.5939702987670898,-0.8429578542709351,-0.26998651027679443,0.6507977247238159,2.623093605041504,1.8334755897521973
399,116028,116031,-0.5436918139457703,-0.4149357080459595,0.7663012146949768,-21.658967971801758,19.482465744018555,-11.600738525390625,-0.5969701409339905,-0.8459576964378357,-0.26998651027679443,0.4599681794643402,2.4289674758911133,1.7272659540176392
400,116038,116041,-0.35894933342933655,-0.7559526562690735,0.8039767146110535,-38.274906158447266,22.957996368408203,-10.644445419311523,-0.5879706144332886,-0.8429578542709351,-0.27898603677749634,0.1330047994852066,2.023038864135742,1.6169105768203735
401,116048,116051,-0.23386847972869873,-0.40920624136924744,0.9237314462661743,-47.937095642089844,20.714292526245117,-9.853309631347656,-0.5879706144332886,-0.8549572229385376,-0.2759861946105957,-0.1349942535161972,1.4952725172042847,1.5241739749908447
402,116058,116061,-0.4890129566192627,-0.13621436059474945,1.0510969161987305,-46.879058837890625,16.25554656982422,-8.86706829071045,-0.5909704566001892,-0.836958110332489,-0.2639867961406708,-0.24763399362564087,1.1486209630966187,1.432659387588501
403,116068,116071,-0.34915828704833984,-0.23835571110248566,0.9695560932159424,-39.528663635253906,10.254294395446777,-6.126427173614502,-0.5924703478813171,-0.8414579033851624,-0.2834858298301697,-0.4081822335720062,0.7370001077651978,1.3514589071273804
404,116078,116081,-0.28209611773490906,-0.18115025758743286,0.9667711853981018,-29.28443145751953,4.246745586395264,-3.0602059364318848,-0.5954701900482178,-0.8414579033851624,-0.28048595786094666,-0.5860483050346375,0.28716957569122314,1.2939306497573853
405,116088,116091,-0.9707756638526917,-0.07204131782054901,0.8993251919746399,-17.6894588470459,-1.115055799484253,-0.6280280351638794,-0.6044697761535645,-0.8414579033851624,-0.2744862735271454,-0.41536250710487366,0.14989697933197021,1.3182141780853271
406,116098,116101,-1.3944311141967773,-0.11027627438306808,0.9168535470962524,-4.429588317871094,-4.070348262786865,0.4707258641719818,-0.5804709792137146,-0.8294585347175598,-0.2744862735271454,-0.4353746473789215,0.0641838014125824,1.3073397874832153
407,116108,116111,-0.3768768310546875,-0.33840814232826233,0.9310218095779419,12.692298889160156,-5.9028120040893555,0.9569646716117859,-0.6014699339866638,-0.8414579033851624,-0.28048595786094666,-0.3640895485877991,0.2092861384153366,1.313239336013794
408,116118,116121,-0.16284999251365662,-0.4268099367618561,1.0102338790893555,30.587411880493164,-6.864987850189209,3.405442476272583,-0.6014699339866638,-0.844457745552063,-0.27148643136024475,-0.2277258336544037,0.5594725012779236,1.346010684967041
409,116128,116131,-0.16166894137859344,-0.5257152318954468,1.0423425436019897,38.303001403808594,-7.597323417663574,4.687048435211182,-0.5909704566001892,-0.8459576964378357,-0.27898603677749634,-0.1982894390821457,1.0552144050598145,1.378169298171997
410,116138,116141,-0.20512065291404724,-0.25669243931770325,0.9578118920326233,31.980363845825195,-12.12149715423584,7.0508317947387695,-0.5984700918197632,-0.8534573316574097,-0.2864856719970703,0.004773564636707306,1.2840116024017334,1.4509116411209106
411,116148,116151,-0.19038894772529602,-0.15757347643375397,0.9380205869674683,12.90291976928711,-10.742114067077637,8.221853256225586,-0.5909704566001892,-0.851957380771637,-0.28798559308052063,0.13799479603767395,1.4366284608840942,1.532438039779663
412,116158,116161,-0.6011216640472412,-0.65255206823349,0.9640510678291321,-7.520200729370117,-7.451714515686035,9.108330726623535,-0.5834708213806152,-0.844457745552063,-0.28048595786094666,0.12233656644821167,1.4704878330230713,1.6026774644851685
413,116168,116171,-0.5797245502471924,-0.5155889987945557,0.9907753467559814,-31.20433807373047,-5.99023962020874,8.40719223022461,-0.577471137046814,-0.8474575877189636,-0.277486115694046,0.23416949808597565,1.1460500955581665,1.6943022012710571
414,116178,116181,-0.3104826807975769,-0.27149999141693115,1.074414610862732,-42.1966552734375,-2.4879589080810547,6.290738582611084,-0.5924703478813171,-0.8354582190513611,-0.28048595786094666,0.28550562262535095,0.7448837161064148,1.7679808139801025
415,116188,116191,-0.5087692141532898,-0.08667318522930145,1.1246533393859863,-46.06907272338867,5.420422077178955,5.649365425109863,-0.5834708213806152,-0.8354582190513611,-0.2744862735271454,0.28878316283226013,0.28766995668411255,1.830019474029541
416,116198,116201,-0.3230215907096863,-0.09400151669979095,1.07485032081604,-41.662811279296875,17.077442169189453,4.900627136230469,-0.5804709792137146,-0.8384580612182617,-0.2594870328903198,0.07179807871580124,-0.3098098039627075,1.8606292009353638
417,116208,116211,-0.12944765388965607,-0.06689025461673737,0.996798038482666,-23.5170841217041,25.51996421813965,4.1209211349487305,-0.5999699831008911,-0.8309584259986877,-0.27298635244369507,-0.11630342900753021,-0.5575311779975891,1.9110713005065918
418,116218,116221,-0.10786855220794678,-0.13714471459388733,0.8778496980667114,-1.6924688816070557,27.944629669189453,2.639690399169922,-0.5969701409339905,-0.8189590573310852,-0.26998651027679443,-0.5057329535484314,-0.5249530076980591,1.9247113466262817
419,116228,116231,-0.13497714698314667,-0.06854495406150818,0.9430863261222839,16.711204528808594,24.641464233398438,1.1851475238800049,-0.6119694113731384,-0.8189590573310852,-0.2639867961406708,-0.6475874781608582,-0.3158315420150757,1.96528160572052
420,116238,116241,-0.17156611382961273,-0.11360639333724976,0.967395007610321,29.813261032104492,14.849112510681152,0.4372228980064392,-0.6044697761535645,-0.8294585347175598,-0.2834858298301697,-0.9238650798797607,-0.010725163854658604,1.964367389678955
421,116248,116251,-0.2273198515176773,-0.6251113414764404,1.03828763961792,34.41368865966797,7.709630966186523,-0.27731508016586304,-0.6269686222076416,-0.836958110332489,-0.26998651027679443,-1.0356712341308594,0.35027655959129333,1.9690574407577515
422,116258,116261,-0.5456545352935791,-0.15400639176368713,1.0236233472824097,30.71050262451172,-8.24898910522461,-2.1656579971313477,-0.6074696183204651,-0.8384580612182617,-0.28048595786094666,-0.9879291653633118,0.6580464839935303,1.9574142694473267
423,116268,116271,-0.17318029701709747,0.07654991745948792,0.9743078351020813,22.551198959350586,-20.413671493530273,-2.396245241165161,-0.6149692535400391,-0.8189590573310852,-0.2759861946105957,-0.7687462568283081,0.999237596988678,1.9440875053405762
424,116278,116281,-0.2645420730113983,0.4344465732574463,1.1568163633346558,10.997658729553223,-27.488510131835938,-2.9971988201141357,-0.6119694113731384,-0.8339582681655884,-0.28198590874671936,-0.37697020173072815,0.9592292308807373,1.9014402627944946
425,116288,116291,-0.30998456478118896,0.26498401165008545,1.1737525463104248,-2.164588212966919,-30.57868003845215,-2.270486354827881,-0.6074696183204651,-0.8204589486122131,-0.26248687505722046,0.022895192727446556,0.9851109981536865,1.876710057258606
426,116298,116301,-0.3630869388580322,0.040367770940065384,1.1363158226013184,-20.660263061523438,-26.92987823486328,-0.952706515789032,-0.5984700918197632,-0.8204589486122131,-0.26848655939102173,0.4797961115837097,0.7567903995513916,1.8597729206085205
427,116308,116311,-0.696706235408783,-0.05999961867928505,1.0097864866256714,-31.111948013305664,-18.509571075439453,-0.22969676554203033,-0.6029698252677917,-0.8129593133926392,-0.26998651027679443,0.48534291982650757,0.39684319496154785,1.8222109079360962
428,116318,116321,-0.5601421594619751,0.04900342598557472,0.8984301090240479,-35.53696823120117,-6.61697244644165,-0.22813484072685242,-0.6044697761535645,-0.80545973777771,-0.2564871609210968,0.4003518521785736,0.065236397087574,1.8036199808120728
429,116328,116331,-0.17069168388843536,-0.4194166958332062,0.8795138001441956,-32.25016403198242,4.5678558349609375,-1.2890565395355225,-0.6089695692062378,-0.8069596290588379,-0.2579870820045471,0.46276578307151794,-0.2917705774307251,1.8019672632217407
430,116338,116341,-0.11606865376234055,-0.5670602917671204,0.8929378986358643,-20.28883934020996,12.471904754638672,-1.2414076328277588,-0.6149692535400391,-0.8009599447250366,-0.2579870820045471,0.3870373070240021,-0.7385228276252747,1.7738059759140015
431,116348,116351,-0.030206764116883278,-0.07047339528799057,0.9253642559051514,-4.482952117919922,13.077608108520508,-0.4190593659877777,-0.6149692535400391,-0.8009599447250366,-0.2579870820045471,0.2243279665708542,-0.6768432259559631,1.77145516872406
432,116358,116361,-0.11638480424880981,-0.09181275963783264,0.9531589150428772,12.735520362854004,13.906403541564941,0.5735834836959839,-0.6149692535400391,-0.8009599447250366,-0.2579870820045471,-0.14050495624542236,-0.49891889095306396,1.7656325101852417
433,116368,116371,-0.04009119048714638,0.017418147996068,0.9520382881164551,25.152225494384766,10.897954940795898,0.3116600215435028,-0.6149692535400391,-0.8009599447250366,-0.2579870820045471,-0.139679417014122,0.05169764161109924,1.7933392524719238
434,116378,116381,-0.25474628806114197,-0.2620651125907898,0.9016795754432678,28.82252311706543,4.155986785888672,0.3436134159564972,-0.6209689378738403,-0.8009599447250366,-0.26098695397377014,-0.08357153832912445,0.24714870750904083,1.791271686553955
435,116388,116391,-0.4323255717754364,-0.6438983678817749,0.8382013440132141,26.531612396240234,0.12950028479099274,0.3637200891971588,-0.6134693026542664,-0.80545973777771,-0.2564871609210968,-0.10736844688653946,0.5246202945709229,1.7968510389328003
436,116398,116401,-0.4314124584197998,-0.5894311666488647,0.785584568977356,20.860143661499023,-3.046919822692871,0.7619039416313171,-0.6119694113731384,-0.8129593133926392,-0.27898603677749634,-0.014620794914662838,0.6729633212089539,1.7983534336090088
437,116408,116411,-0.3311602771282196,-0.40234047174453735,0.8475639820098877,9.593945503234863,-1.8933616876602173,3.080798864364624,-0.6209689378738403,-0.8189590573310852,-0.26998651027679443,0.022369081154465675,0.9030457139015198,1.819746494293213
438,116418,116421,-0.37561631202697754,-0.7125864624977112,0.8759064078330994,-7.291199684143066,-0.42782020568847656,6.186150550842285,-0.6029698252677917,-0.8189590573310852,-0.26098695397377014,0.03717395290732384,0.879468560218811,1.8626939058303833
439,116428,116431,-0.5822247266769409,-1.0962915420532227,0.8593891859054565,-22.838653564453125,3.129321813583374,8.056185722351074,-0.6089695692062378,-0.8279585838317871,-0.2759861946105957,0.0008692143601365387,0.583488941192627,1.926697015762329
440,116438,116441,-0.5080330967903137,-0.21595390141010284,0.9242191314697266,-32.185420989990234,12.127187728881836,10.92967414855957,-0.6059696674346924,-0.8279585838317871,-0.28198590874671936,-0.16942322254180908,0.10047806799411774,2.0070722103118896
441,116448,116451,-0.16297517716884613,-0.25548896193504333,0.8720611333847046,-28.98948860168457,20.652097702026367,12.970843315124512,-0.6029698252677917,-0.8189590573310852,-0.26998651027679443,-0.4157634377479553,-0.15350762009620667,2.130305051803589
442,116458,116461,-0.215806245803833,-0.2146226316690445,0.8969234228134155,-18.016735076904297,23.985456466674805,14.36668586730957,-0.5954701900482178,-0.8294585347175598,-0.26248687505722046,-0.6519702672958374,-0.3494850695133209,2.2688584327697754
443,116468,116471,-0.29209208488464355,-0.13354501128196716,0.9064122438430786,-3.6296470165252686,25.79859733581543,14.054402351379395,-0.6074696183204651,-0.8234587907791138,-0.26248687505722046,-1.058060646057129,-0.4761236011981964,2.4057199954986572
444,116478,116481,-0.49364128708839417,-0.276368647813797,0.8113325238227844,11.87360954284668,22.303470611572266,15.418359756469727,-0.6044697761535645,-0.8264586329460144,-0.27148643136024475,-1.1497652530670166,-0.36344674229621887,2.5575993061065674
445,116488,116491,-0.765862762928009,-0.4361790120601654,0.7707111239433289,21.42241668701172,12.377337455749512,15.227113723754883,-0.6044697761535645,-0.8324583768844604,-0.277486115694046,-1.2769874334335327,-0.10075235366821289,2.7184290885925293
446,116498,116501,-0.4317866861820221,-0.6260507106781006,0.8563488721847534,20.17039680480957,-1.1594430208206177,14.950281143188477,-0.5969701409339905,-0.836958110332489,-0.28498575091362,-1.1627122163772583,0.09507602453231812,2.8649587631225586
447,116508,116511,-0.42516329884529114,-0.39136531949043274,0.8891265392303467,7.04827880859375,-13.910904884338379,14.011025428771973,-0.5954701900482178,-0.844457745552063,-0.28048595786094666,-1.0476704835891724,0.24851761758327484,3.0088586807250977
448,116518,116521,-0.35436731576919556,-0.2666212320327759,0.9003276228904724,-10.32857608795166,-27.15593147277832,14.927968978881836,-0.5879706144332886,-0.8429578542709351,-0.29098543524742126,-0.7468342781066895,0.1486699879169464,3.1346168518066406
449,116528,116531,-0.19567811489105225,-0.11449482291936874,0.9785828590393066,-18.00177001953125,-33.7540397644043,14.746906280517578,-0.5849707126617432,-0.851957380771637,-0.28198590874671936,-0.35486459732055664,-0.09849027544260025,3.2644104957580566
450,116538,116541,-0.20955230295658112,0.008134115487337112,1.0332471132278442,-21.63456153869629,-36.52428436279297,15.028430938720703,-0.5834708213806152,-0.850457489490509,-0.28948551416397095,-0.07227782905101776,-0.43750083446502686,3.399266242980957
451,116548,116551,-0.23578092455863953,0.08311226963996887,1.0345486402511597,-18.76767921447754,-24.26149559020996,14.504867553710938,-0.5759711861610413,-0.8549572229385376,-0.28798559308052063,0.15774942934513092,-0.5719578862190247,3.566894292831421
452,116558,116561,-0.3016796410083771,-0.0731232538819313,1.0300283432006836,-10.514817237854004,-6.4158220291137695,12.669169425964355,-0.5729713439941406,-0.836958110332489,-0.27298635244369507,0.33669066429138184,-0.6706294417381287,3.7144627571105957
453,116568,116571,-0.12548235058784485,-0.3510322868824005,0.8487414717674255,1.7754058837890625,7.214495658874512,11.782611846923828,-0.56997150182724,-0.8459576964378357,-0.26998651027679443,0.15555687248706818,-0.6311528086662292,3.852491617202759
454,116578,116581,-0.021096117794513702,-0.1630585491657257,0.9274080395698547,14.868075370788574,31.899402618408203,8.760177612304688,-0.5744712948799133,-0.8414579033851624,-0.2834858298301697,-0.1360117495059967,-0.5748192071914673,3.9609932899475098
455,116588,116591,-0.10170640051364899,-0.02017108164727688,1.057611346244812,20.657855987548828,42.11463928222656,8.952229499816895,-0.5834708213806152,-0.8624568581581116,-0.2834858298301697,-0.651755690574646,-0.30217626690864563,4.066756725311279
456,116598,116601,-0.07268212735652924,-0.029545055702328682,1.0150537490844727,17.65285873413086,46.036495208740234,9.642208099365234,-0.5804709792137146,-0.8594570159912109,-0.2924853563308716,-0.9180033206939697,-0.13762494921684265,4.142422676086426
457,116608,116611,-0.12033876776695251,-0.0632811188697815,1.0419410467147827,8.759822845458984,34.30089569091797,11.17158031463623,-0.5939702987670898,-0.8699564933776855,-0.2939853072166443,-1.606379508972168,-0.06832052767276764,4.258522033691406
458,116618,116621,-0.11072272807359695,-0.1066301017999649,1.0074838399887085,-0.39553526043891907,14.533823013305664,12.081337928771973,-0.5969701409339905,-0.8579570651054382,-0.28198590874671936,-1.57347571849823,-0.20715060830116272,4.3222126960754395
459,116628,116631,-0.18642014265060425,0.021029727533459663,1.0898197889328003,-11.971406936645508,-3.6361076831817627,14.110637664794922,-0.577471137046814,-0.8594570159912109,-0.2864856719970703,-1.6413317918777466,-0.28395354747772217,4.450869560241699
460,116638,116641,0.025703880935907364,0.08014560490846634,0.9982923865318298,-21.158946990966797,-20.91636085510254,14.85757827758789,-0.577471137046814,-0.8414579033851624,-0.28948551416397095,-1.4375168085098267,-0.5375950932502747,4.574961185455322
461,116648,116651,-0.08287058770656586,0.14070501923561096,1.0228224992752075,-25.96957015991211,-35.53260803222656,13.350695610046387,-0.5864706635475159,-0.8384580612182617,-0.2744862735271454,-1.334118127822876,-0.6903056502342224,4.750553131103516
462,116658,116661,-0.19689714908599854,0.009657871909439564,1.0563788414001465,-28.57954978942871,-50.34248352050781,11.469923973083496,-0.5714713931083679,-0.8324583768844604,-0.277486115694046,-0.642859935760498,-0.9782347679138184,4.852333068847656
463,116668,116671,-0.3599407374858856,-0.16892865300178528,1.0728447437286377,-28.0559024810791,-55.65102767944336,9.620100975036621,-0.5714713931083679,-0.8564571738243103,-0.2864856719970703,-0.1857675164937973,-1.230539083480835,4.981956481933594
464,116678,116681,-0.4834056794643402,-0.17752774059772491,1.0650169849395752,-22.54522705078125,-51.391658782958984,4.255429744720459,-0.5744712948799133,-0.844457745552063,-0.28948551416397095,0.35960081219673157,-1.5029284954071045,5.073708534240723
465,116688,116691,-0.6269072890281677,-0.15419252216815948,1.0070979595184326,-14.765006065368652,-46.73931884765625,1.1230419874191284,-0.5534723401069641,-0.8354582190513611,-0.277486115694046,0.7497484087944031,-1.665592908859253,5.133326530456543
466,116698,116701,-0.27641576528549194,-0.028340471908450127,0.9855948090553284,-1.0010552406311035,-30.959367752075195,-2.1357948780059814,-0.5714713931083679,-0.850457489490509,-0.28048595786094666,1.1691542863845825,-1.7191109657287598,5.149064540863037
467,116708,116711,-0.7433421611785889,-0.13510458171367645,0.9992577433586121,8.888541221618652,-20.25189781188965,-5.710193157196045,-0.5579720735549927,-0.8429578542709351,-0.27898603677749634,1.4181971549987793,-1.6374399662017822,5.120918273925781
468,116718,116721,-0.6056075096130371,0.07863079011440277,1.002288818359375,16.883914947509766,-3.4195168018341064,-7.809558868408203,-0.5594720244407654,-0.8324583768844604,-0.2744862735271454,1.375536561012268,-1.4928598403930664,5.092067718505859
469,116728,116731,-0.2479824423789978,0.04545161873102188,1.0399340391159058,20.90890121459961,9.890734672546387,-10.878223419189453,-0.5639718174934387,-0.8549572229385376,-0.27898603677749634,1.3371775150299072,-1.236313819885254,5.006044387817383
470,116738,116741,-0.133371964097023,0.09107676148414612,1.046080231666565,22.658538818359375,19.02920150756836,-12.706071853637695,-0.5714713931083679,-0.844457745552063,-0.29848507046699524,1.116671085357666,-1.0806763172149658,4.900094985961914
471,116748,116751,-0.8888230919837952,0.05997335910797119,1.0291420221328735,25.304946899414062,29.63039779663086,-16.289278030395508,-0.577471137046814,-0.8594570159912109,-0.2864856719970703,0.7636844515800476,-0.7489205598831177,4.783823013305664
472,116758,116761,-0.5243440866470337,-0.03331474959850311,1.0351883172988892,29.1184139251709,30.124160766601562,-19.169626235961914,-0.56997150182724,-0.8489575386047363,-0.29098543524742126,0.3699924945831299,-0.5088004469871521,4.627629280090332
