,timestamp_start,timestamp_end,acc.x,acc.y,acc.z,gyro.x,gyro.y,gyro.z,mag.x,mag.y,mag.z,stabilizer.pitch,stabilizer.roll,stabilizer.yaw
0,191260,191262,-0.730997622013092,-0.42102760076522827,1.0939662456512451,-41.783199310302734,-29.416015625,4.802349090576172,-0.5849707126617432,-0.8639568090438843,-0.29998499155044556,1.2880932092666626,4.045021057128906,-6.766347885131836
1,191270,191272,-0.7733369469642639,-0.38058072328567505,1.0821894407272339,-50.22903823852539,-6.118131637573242,1.5588685274124146,-0.5684715509414673,-0.8414579033851624,-0.2864856719970703,1.6880440711975098,3.5878281593322754,-6.646034240722656
2,191280,191282,-0.23415501415729523,-0.11948706209659576,0.9796454906463623,-49.762550354003906,14.855020523071289,-0.021840626373887062,-0.5669716596603394,-0.851957380771637,-0.28798559308052063,1.5506889820098877,3.087494134902954,-6.704905986785889
3,191290,191292,-0.20123939216136932,-0.03185134008526802,1.0041401386260986,-39.46919631958008,30.42887306213379,-0.7334107756614685,-0.56997150182724,-0.8489575386047363,-0.28798559308052063,1.2612335681915283,2.6359856128692627,-6.748955726623535
4,191300,191302,-0.12848937511444092,-0.18051880598068237,0.9711288213729858,-23.452980041503906,37.92538070678711,-0.7604049444198608,-0.5714713931083679,-0.8534573316574097,-0.2864856719970703,0.8750290870666504,2.5422401428222656,-6.773105621337891
5,191310,191312,-0.1291898488998413,-0.06654686480760574,1.0271100997924805,-7.920785903930664,35.74580001831055,0.44128450751304626,-0.56997150182724,-0.851957380771637,-0.28498575091362,0.4149598777294159,2.3397536277770996,-6.803555488586426
6,191320,191322,-0.046437934041023254,-0.023419205099344254,0.9753276705741882,5.3444085121154785,26.57147789001465,-1.8086364269256592,-0.5804709792137146,-0.8594570159912109,-0.28948551416397095,0.031650252640247345,2.3793208599090576,-6.821564197540283
7,191330,191332,-0.2351880967617035,-0.15051764249801636,0.8690206408500671,15.229284286499023,6.283157825469971,-3.1569221019744873,-0.5834708213806152,-0.8624568581581116,-0.2924853563308716,-0.03610260412096977,2.5882251262664795,-6.775572776794434
8,191340,191342,-0.8467757105827332,-0.17907655239105225,0.9440709948539734,11.590237617492676,-2.8669862747192383,-3.364983558654785,-0.5834708213806152,-0.8624568581581116,-0.2864856719970703,-0.0458492673933506,2.7933104038238525,-6.792672157287598
9,191350,191352,-0.2604764997959137,-0.10633211582899094,1.046876311302185,7.41633415222168,-12.509893417358398,-3.5383079051971436,-0.5834708213806152,-0.8714563846588135,-0.29848507046699524,0.0454711876809597,3.053309440612793,-6.822933197021484
10,191360,191362,-0.43736350536346436,-0.4333152174949646,1.0348559617996216,-3.096081018447876,-22.205995559692383,-1.2264620065689087,-0.5744712948799133,-0.8594570159912109,-0.2924853563308716,0.30433890223503113,3.0471136569976807,-6.824867248535156
11,191370,191372,-0.6723015904426575,-0.4963477849960327,1.034593105316162,-17.385278701782227,-32.63867950439453,1.7177622318267822,-0.5729713439941406,-0.8729563355445862,-0.29998499155044556,0.746100902557373,2.8979833126068115,-6.773437976837158
12,191380,191382,-0.3703387975692749,-0.3057301938533783,0.9865254759788513,-24.57661247253418,-25.173891067504883,1.5003494024276733,-0.5654717087745667,-0.8774561285972595,-0.3044847846031189,0.8270969390869141,2.5482912063598633,-6.841691970825195
13,191390,191392,-0.5044824481010437,-0.5069528818130493,0.9840783476829529,-32.1390380859375,-19.707365036010742,6.243099212646484,-0.5609719157218933,-0.8579570651054382,-0.29998499155044556,1.2183294296264648,2.0817019939422607,-6.756706237792969
14,191400,191402,-0.6049978733062744,-0.5482079982757568,0.8538070321083069,-32.34696578979492,-3.2459301948547363,6.271948337554932,-0.5579720735549927,-0.8699564933776855,-0.29998499155044556,1.4699139595031738,1.5249507427215576,-6.6574225425720215
15,191410,191412,-0.47463759779930115,-0.404400497674942,0.9235355854034424,-32.9173698425293,6.529864311218262,8.915194511413574,-0.5504724383354187,-0.8654567003250122,-0.2924853563308716,1.3599510192871094,1.5841872692108154,-6.641930103302002
16,191420,191422,-0.3309125006198883,-0.018619807437062263,0.9493635892868042,-22.21656608581543,20.8178768157959,8.272454261779785,-0.5639718174934387,-0.8549572229385376,-0.2939853072166443,1.1399067640304565,1.169385313987732,-6.569486141204834
17,191430,191432,-0.1671091914176941,-0.21751493215560913,1.0250153541564941,-14.293501853942871,22.903779983520508,10.276598930358887,-0.5729713439941406,-0.8729563355445862,-0.29998499155044556,0.9591022729873657,1.1962171792984009,-6.485690593719482
18,191440,191442,-0.04223405942320824,-0.10374315083026886,0.9651195406913757,-0.581295907497406,21.28011131286621,10.36380672454834,-0.5564721822738647,-0.8714563846588135,-0.30748462677001953,0.539070725440979,1.0940407514572144,-6.405853271484375
19,191450,191452,-0.28815147280693054,-0.10700594633817673,0.9799277782440186,2.184089422225952,22.88278579711914,11.069761276245117,-0.5759711861610413,-0.8759561777114868,-0.31798410415649414,0.23213480412960052,1.1443554162979126,-6.3087897300720215
20,191460,191462,-0.20930051803588867,-0.07057518512010574,1.0706887245178223,0.8846126198768616,10.71788501739502,12.903057098388672,-0.5714713931083679,-0.8744562864303589,-0.3134843111038208,0.055108532309532166,1.2223916053771973,-6.185888290405273
21,191470,191472,0.0096066789701581,0.02437702752649784,1.0183719396591187,-7.317229270935059,7.9972429275512695,11.788326263427734,-0.562471866607666,-0.8744562864303589,-0.3044847846031189,0.09810978919267654,1.3112283945083618,-6.048104286193848
22,191480,191482,-0.011945976875722408,-0.36207351088523865,1.1304377317428589,-24.69113540649414,-2.7045977115631104,14.073064804077148,-0.5744712948799133,-0.8654567003250122,-0.29848507046699524,0.08949872851371765,1.1543101072311401,-5.912292957305908
23,191490,191492,0.022249383851885796,0.12986207008361816,1.0441572666168213,-36.87937927246094,-8.125298500061035,12.907486915588379,-0.5744712948799133,-0.8654567003250122,-0.29848507046699524,0.21405358612537384,0.6600278615951538,-5.76456880569458
24,191500,191502,-0.08261990547180176,0.026265962049365044,1.1703393459320068,-51.766998291015625,-10.62846851348877,11.765203475952148,-0.5744712948799133,-0.8654567003250122,-0.29848507046699524,0.07066692411899567,0.45041078329086304,-5.645382404327393
25,191510,191512,-0.14310123026371002,0.010346858762204647,1.1061890125274658,-51.155033111572266,-11.26183795928955,7.79741907119751,-0.5744712948799133,-0.8654567003250122,-0.29848507046699524,0.1808173656463623,-0.22683905065059662,-5.536895751953125
26,191520,191522,-0.4248095154762268,0.07365141063928604,1.104697585105896,-45.415103912353516,-5.063695907592773,4.817702770233154,-0.5594720244407654,-0.8534573316574097,-0.3044847846031189,0.14705492556095123,-0.4688663184642792,-5.458862781524658
27,191530,191532,-0.6662707328796387,-0.02554420940577984,1.0724279880523682,-28.066390991210938,-5.882803440093994,5.325375556945801,-0.5459727048873901,-0.8579570651054382,-0.28798559308052063,0.319963663816452,-0.973502516746521,-5.413809776306152
28,191540,191542,-1.0782397985458374,-0.05667487531900406,0.9583397507667542,-11.132037162780762,-8.29851245880127,4.401564598083496,-0.5609719157218933,-0.8579570651054382,-0.2969851493835449,0.3273507058620453,-1.400762915611267,-5.35940408706665
29,191550,191552,-0.748964250087738,-0.14358048141002655,0.9863653182983398,-6.284480094909668,-8.732854843139648,6.434307098388672,-0.5609719157218933,-0.851957380771637,-0.2939853072166443,0.30487489700317383,-1.247318148612976,-5.285470485687256
30,191560,191562,-0.43722009658813477,-0.3533252477645874,1.1125236749649048,-3.515570640563965,-16.881568908691406,8.520435333251953,-0.5579720735549927,-0.8459576964378357,-0.28198590874671936,0.5389016270637512,-1.4436728954315186,-5.245362281799316
31,191570,191572,-0.14034011960029602,0.07429706305265427,1.0427948236465454,-9.908537864685059,-7.976275444030762,6.501694202423096,-0.5579720735549927,-0.8399580121040344,-0.2759861946105957,0.7994437217712402,-1.3677879571914673,-5.195856094360352
32,191580,191582,-0.16133786737918854,0.057652637362480164,1.1533647775650024,-21.20500373840332,-1.6498043537139893,4.457425594329834,-0.5669716596603394,-0.836958110332489,-0.2939853072166443,0.8866430521011353,-1.6917167901992798,-5.138762950897217
33,191590,191592,-0.15929600596427917,-0.013256065547466278,1.1132285594940186,-18.827573776245117,2.4005889892578125,2.377697229385376,-0.5579720735549927,-0.8339582681655884,-0.2669866383075714,0.7948417067527771,-1.8350646495819092,-5.071166515350342
34,191600,191602,-0.12645767629146576,-0.0021364353597164154,1.0640190839767456,-17.38071632385254,4.107445240020752,0.9510923624038696,-0.5639718174934387,-0.8279585838317871,-0.28798559308052063,0.7064295411109924,-2.013467788696289,-5.035541534423828
35,191610,191612,-0.25807327032089233,-0.18720875680446625,1.091922640800476,-19.86111831665039,3.618058919906616,0.7635369300842285,-0.562471866607666,-0.8234587907791138,-0.27148643136024475,0.6095284223556519,-2.184471845626831,-5.010820388793945
36,191620,191622,-0.1935390830039978,-0.04877655208110809,0.9479288458824158,-12.578439712524414,1.0811365842819214,-1.7441449165344238,-0.5489725470542908,-0.8279585838317871,-0.28498575091362,0.6701815128326416,-2.148149251937866,-5.057918071746826
37,191630,191632,-0.054925356060266495,-0.026088936254382133,0.9906768798828125,-13.44827651977539,6.9416375160217285,-5.065473556518555,-0.5804709792137146,-0.8084595799446106,-0.27148643136024475,0.7290821075439453,-2.2632291316986084,-5.12941837310791
38,191640,191642,0.003757470054551959,-0.22302867472171783,1.0774983167648315,-11.444133758544922,4.2442474365234375,-6.6607561111450195,-0.5789710283279419,-0.8069596290588379,-0.27298635244369507,0.6520686745643616,-2.5646424293518066,-5.178212642669678
39,191650,191652,-0.17727625370025635,-0.25292351841926575,1.059735655784607,-0.8448100090026855,11.595440864562988,-10.726734161376953,-0.562471866607666,-0.8144592642784119,-0.26248687505722046,0.6260302662849426,-2.6491408348083496,-5.288849830627441
40,191660,191662,-0.28957095742225647,-0.0387963205575943,1.029933214187622,8.402052879333496,14.547811508178711,-12.018022537231445,-0.5819708704948425,-0.8159592151641846,-0.2669866383075714,0.4387385845184326,-2.4984469413757324,-5.3815741539001465
41,191670,191672,-0.1086370050907135,0.010755892843008041,1.0212846994400024,21.75969886779785,13.73672103881836,-11.947999954223633,-0.5834708213806152,-0.8114594221115112,-0.26248687505722046,0.3025885224342346,-2.5117578506469727,-5.5042405128479
42,191680,191682,-0.050465621054172516,-0.01765594258904457,1.0079413652420044,34.65558624267578,13.087241172790527,-12.710282325744629,-0.5834708213806152,-0.8084595799446106,-0.2744862735271454,0.18719832599163055,-2.293928384780884,-5.639831066131592
43,191690,191692,-0.20335014164447784,-0.237373948097229,1.1469807624816895,38.793052673339844,6.208339214324951,-9.222475051879883,-0.5939702987670898,-0.8279585838317871,-0.2549872398376465,0.11389295756816864,-1.7554516792297363,-5.781394958496094
44,191700,191702,-0.18124356865882874,-0.3365180790424347,0.9800190925598145,43.35630798339844,-5.126228332519531,-5.031766891479492,-0.5804709792137146,-0.80545973777771,-0.27148643136024475,0.1281699538230896,-1.0716605186462402,-5.903975486755371
45,191710,191712,-0.46352726221084595,-0.9646607637405396,1.0628798007965088,34.06549835205078,-8.06971263885498,-2.5447003841400146,-0.577471137046814,-0.8174591064453125,-0.2654867172241211,0.18518713116645813,-0.7372183799743652,-5.959757328033447
46,191720,191722,-0.14032819867134094,-0.8743001222610474,0.8799337148666382,22.33172607421875,-14.379487991333008,1.5444186925888062,-0.5864706635475159,-0.8204589486122131,-0.26848655939102173,0.31923940777778625,-0.5111386775970459,-5.993597507476807
47,191730,191732,-0.21154245734214783,-0.3869251310825348,0.9616578817367554,3.7726023197174072,-12.692342758178711,2.702542304992676,-0.5894705057144165,-0.80545973777771,-0.2744862735271454,0.550390362739563,0.0006763481651432812,-6.020876407623291
48,191740,191742,-0.17697426676750183,-0.2008679062128067,1.1497808694839478,-18.736164093017578,-27.228090286254883,8.012741088867188,-0.5714713931083679,-0.8114594221115112,-0.26848655939102173,0.8659639954566956,0.1808449923992157,-6.034008026123047
49,191750,191752,-0.2749372720718384,-0.377256840467453,0.9617598056793213,-30.117589950561523,-26.68903350830078,8.003710746765137,-0.5759711861610413,-0.8099594712257385,-0.2669866383075714,0.6972461342811584,-0.5401421785354614,-5.739828109741211
50,191760,191762,-0.40815088152885437,-0.8931147456169128,1.0538623332977295,-40.22563171386719,-31.391817092895508,9.13978385925293,-0.5819708704948425,-0.8039597868919373,-0.2639867961406708,2.121677875518799,-0.12075667083263397,-6.184499263763428
51,191770,191772,-0.49127185344696045,-0.9957440495491028,0.9149820804595947,-50.71873474121094,-5.842872142791748,9.495696067810059,-0.56997150182724,-0.8129593133926392,-0.2579870820045471,2.3130717277526855,-0.5553305149078369,-6.077279567718506
52,191780,191782,-0.5276681780815125,-0.416273295879364,0.8963543176651001,-61.18916702270508,9.646724700927734,8.861835479736328,-0.5669716596603394,-0.8039597868919373,-0.27298635244369507,2.1737258434295654,-1.1802042722702026,-5.92194128036499
53,191790,191792,-0.21822595596313477,-0.34420496225357056,1.0493180751800537,-58.323486328125,27.06891632080078,7.149589538574219,-0.5714713931083679,-0.7784610390663147,-0.2654867172241211,1.865193486213684,-1.892511248588562,-5.775325298309326
54,191800,191802,-0.15107235312461853,-0.08657746762037277,0.9870337247848511,-47.53879928588867,39.917503356933594,6.1554484367370605,-0.5789710283279419,-0.7709614634513855,-0.2639867961406708,1.3551197052001953,-2.6295320987701416,-5.6285223960876465
55,191810,191812,-0.21714980900287628,-0.023727597668766975,0.9499648213386536,-33.91966247558594,51.98938751220703,4.055900573730469,-0.5804709792137146,-0.7784610390663147,-0.2564871609210968,0.654707133769989,-3.099550485610962,-5.504406452178955
56,191820,191822,-0.27252304553985596,0.037642136216163635,1.0123292207717896,-14.60145092010498,53.32005310058594,1.7560715675354004,-0.5819708704948425,-0.7709614634513855,-0.2549872398376465,0.16626475751399994,-3.2537143230438232,-5.533697605133057
57,191830,191832,-0.1349077671766281,-0.09131994098424911,1.0210556983947754,3.574880361557007,51.43193435668945,-0.6378343105316162,-0.5984700918197632,-0.7754611968994141,-0.24148792028427124,-0.510719358921051,-3.5108726024627686,-5.469899654388428
58,191840,191842,-0.28107139468193054,-0.17818720638751984,1.0687594413757324,21.01690673828125,29.926305770874023,-1.537108063697815,-0.5954701900482178,-0.7664616703987122,-0.2564871609210968,-0.7600964307785034,-3.4365904331207275,-5.577103614807129
59,191850,191852,-0.7531688809394836,0.08725143224000931,1.1225022077560425,24.49653434753418,21.649497985839844,-3.5376386642456055,-0.5939702987670898,-0.7889605164527893,-0.2549872398376465,-1.1426316499710083,-3.1422297954559326,-5.553449630737305
60,191860,191862,-0.29036638140678406,0.00933548528701067,0.92476886510849,28.279720306396484,2.0088510513305664,-6.315167427062988,-0.6059696674346924,-0.7679615616798401,-0.2639867961406708,-1.2289930582046509,-2.9148311614990234,-5.6416473388671875
61,191870,191872,-0.1445513367652893,-0.30191802978515625,0.8048277497291565,29.80904769897461,-2.4900007247924805,-11.709460258483887,-0.5999699831008911,-0.7769611477851868,-0.2639867961406708,-1.2538655996322632,-2.7172508239746094,-5.727547645568848
62,191880,191882,-0.5007837414741516,-0.18431106209754944,0.9617224931716919,26.863927841186523,-15.699840545654297,-12.24604320526123,-0.616469144821167,-0.790460467338562,-0.2594870328903198,-1.1845782995224,-2.4386584758758545,-5.832650661468506
63,191890,191892,-0.5455248355865479,-0.27449825406074524,1.023977279663086,25.61811637878418,-23.33112144470215,-12.58691120147705,-0.6029698252677917,-0.7769611477851868,-0.2579870820045471,-0.8224573731422424,-2.328671455383301,-6.037527084350586
64,191900,191902,-0.2442472130060196,-0.24267780780792236,0.8930296301841736,28.377016067504883,-35.70347213745117,-9.536202430725098,-0.6029698252677917,-0.782960832118988,-0.26098695397377014,-0.5046109557151794,-2.0448286533355713,-6.171256065368652
65,191910,191912,-0.3698371946811676,-0.39580726623535156,0.8614181280136108,37.70995330810547,-20.7681941986084,-8.394423484802246,-0.5984700918197632,-0.7844607830047607,-0.2474876195192337,-0.14783860743045807,-1.6276763677597046,-6.284825325012207
66,191920,191922,-0.39163291454315186,-0.5165045261383057,0.8988668322563171,42.08452224731445,-15.619824409484863,-6.0082902908325195,-0.5984700918197632,-0.7844607830047607,-0.2474876195192337,-0.01658811792731285,-1.312046766281128,-6.325965881347656
67,191930,191932,-0.11470505595207214,-0.20500241219997406,0.8803858757019043,39.80274200439453,-10.939038276672363,-2.733858585357666,-0.5999699831008911,-0.7799609899520874,-0.2579870820045471,0.1152605190873146,-0.9186814427375793,-6.371002197265625
68,191940,191942,-0.0055267964489758015,-0.2774420976638794,0.8678467869758606,36.18569564819336,-0.9817711710929871,0.6889403462409973,-0.5984700918197632,-0.8084595799446106,-0.2594870328903198,0.05103296786546707,-0.6912102103233337,-6.337729454040527
69,191950,191952,-0.03234858810901642,-0.20693711936473846,0.8638180494308472,24.179393768310547,3.7042794227600098,4.635861873626709,-0.5969701409339905,-0.797960102558136,-0.2549872398376465,0.018746644258499146,-0.4344883859157562,-6.308659553527832
70,191960,191962,-0.07483379542827606,-0.04763057082891464,0.8756604790687561,7.68643045425415,4.869009017944336,8.45598316192627,-0.5894705057144165,-0.7934603095054626,-0.2474876195192337,-0.06399945914745331,-0.2934630811214447,-6.234229564666748
71,191970,191972,-0.12070803344249725,-0.1447780728340149,1.0023071765899658,-11.3948392868042,18.217470169067383,8.67872142791748,-0.5924703478813171,-0.7934603095054626,-0.2594870328903198,-0.14701417088508606,-0.3589388430118561,-6.1517333984375
72,191980,191982,-0.1958286464214325,-0.19118288159370422,0.947579562664032,-28.28112030029297,20.731067657470703,10.585824966430664,-0.5939702987670898,-0.797960102558136,-0.26098695397377014,-0.3796274960041046,-0.6065214276313782,-6.0405144691467285
73,191990,191992,-0.2084984928369522,-0.3369164764881134,0.7946930527687073,-34.37023162841797,23.390195846557617,9.87985610961914,-0.5909704566001892,-0.8099594712257385,-0.2639867961406708,-0.6258187294006348,-1.059267282485962,-5.949066162109375
74,192000,192002,-0.2923086881637573,-0.1274467408657074,0.9550437927246094,-20.782455444335938,36.38483810424805,9.41295337677002,-0.5954701900482178,-0.80545973777771,-0.2654867172241211,-1.0251392126083374,-1.377027153968811,-5.820901870727539
75,192010,192012,-0.43359923362731934,-0.19497914612293243,0.9285945892333984,-7.343203544616699,36.491050720214844,11.132964134216309,-0.5924703478813171,-0.7994599938392639,-0.25048747658729553,-1.38973867893219,-1.5537899732589722,-5.721826076507568
76,192020,192022,-0.27894327044487,-0.54584801197052,0.9464923143386841,15.139920234680176,32.65005111694336,11.371337890625,-0.5924703478813171,-0.8084595799446106,-0.27148643136024475,-1.549730896949768,-1.457007646560669,-5.660677433013916
77,192030,192032,-0.06065627932548523,-0.5381029844284058,0.9230112433433533,38.837345123291016,25.20220375061035,11.099505424499512,-0.6044697761535645,-0.7994599938392639,-0.25348731875419617,-1.956840991973877,-1.0248816013336182,-5.492733001708984
78,192040,192042,-0.0010476282332092524,-0.36292460560798645,0.9382364153862,51.44920349121094,12.117326736450195,10.938843727111816,-0.5969701409339905,-0.8159592151641846,-0.2669866383075714,-2.0621073246002197,-0.633789598941803,-5.425114154815674
79,192050,192052,-0.1351969838142395,-0.09202377498149872,0.9122048020362854,53.963951110839844,-9.410463333129883,12.102401733398438,-0.6029698252677917,-0.8219588994979858,-0.27298635244369507,-2.1604957580566406,0.05146611109375954,-5.269744396209717
80,192060,192062,-0.8158355951309204,-0.19062383472919464,0.9016357064247131,51.92902755737305,-30.835975646972656,12.312055587768555,-0.5909704566001892,-0.8249587416648865,-0.26998651027679443,-1.6477223634719849,0.27830520272254944,-5.315563678741455
81,192070,192072,-0.9615520238876343,-0.5183492302894592,0.8871862292289734,42.12320327758789,-42.49361038208008,13.31452751159668,-0.5849707126617432,-0.8429578542709351,-0.28498575091362,-1.1961005926132202,0.9267028570175171,-5.175203323364258
82,192080,192082,-0.9836961627006531,-0.5230090618133545,0.9053717851638794,27.778011322021484,-46.1836051940918,13.850801467895508,-0.5819708704948425,-0.836958110332489,-0.27298635244369507,-0.6472885012626648,1.379995346069336,-5.049936771392822
83,192090,192092,-0.7703540325164795,-0.2944175899028778,0.9117354154586792,11.614359855651855,-38.37343215942383,14.159188270568848,-0.5849707126617432,-0.8399580121040344,-0.28498575091362,-0.41178131103515625,1.3230915069580078,-4.954493522644043
84,192100,192102,-0.8111967444419861,-0.025793878361582756,0.9363553524017334,-3.0936601161956787,-24.5172061920166,14.42977237701416,-0.5669716596603394,-0.8399580121040344,-0.27898603677749634,0.034243568778038025,1.3536895513534546,-4.839567184448242
85,192110,192112,-0.4418870508670807,0.08717702329158783,1.0169466733932495,-20.508337020874023,-12.515968322753906,15.561100959777832,-0.5654717087745667,-0.844457745552063,-0.28948551416397095,0.09091726690530777,1.2104045152664185,-4.692339897155762
86,192120,192122,-0.47592437267303467,-0.24893437325954437,1.018820881843567,-27.515213012695312,-3.6950597763061523,13.556063652038574,-0.5579720735549927,-0.851957380771637,-0.28798559308052063,0.18314258754253387,0.8454303741455078,-4.572068691253662
87,192130,192132,-0.5425098538398743,-0.20377464592456818,0.9934350848197937,-27.125905990600586,9.293543815612793,12.206585884094238,-0.5639718174934387,-0.836958110332489,-0.28498575091362,0.02645890600979328,0.5384600758552551,-4.438511848449707
88,192140,192142,-0.23716647922992706,-0.17016804218292236,0.9484749436378479,-18.234390258789062,20.120941162109375,9.54981517791748,-0.56997150182724,-0.8489575386047363,-0.28798559308052063,-0.18022659420967102,0.2785070538520813,-4.327670097351074
89,192150,192152,-0.13354824483394623,-0.22831378877162933,0.955538809299469,-1.805816888809204,23.616973876953125,7.932155132293701,-0.56997150182724,-0.836958110332489,-0.2969851493835449,-0.46189865469932556,0.3339753746986389,-4.2034711837768555
90,192160,192162,-0.050186630338430405,-0.11928892135620117,0.9438199996948242,15.616338729858398,26.214828491210938,8.646471977233887,-0.5789710283279419,-0.8489575386047363,-0.28198590874671936,-0.6722114086151123,0.4584168791770935,-4.107480049133301
91,192170,192172,-0.37801891565322876,-0.3234139680862427,0.9577793478965759,34.44366455078125,16.07783317565918,8.54976749420166,-0.5759711861610413,-0.8459576964378357,-0.28198590874671936,-0.9860858917236328,0.7238938212394714,-4.015474796295166
92,192180,192182,-0.15908345580101013,-0.3036394715309143,1.009544849395752,43.943450927734375,0.9436638355255127,9.558439254760742,-0.5744712948799133,-0.8564571738243103,-0.2924853563308716,-0.9759798645973206,1.2467787265777588,-3.899193048477173
93,192190,192192,-0.4420851171016693,-0.2683069407939911,0.9606590270996094,46.6690673828125,-16.31331443786621,10.03004264831543,-0.5684715509414673,-0.8774561285972595,-0.29848507046699524,-0.850318431854248,1.6723101139068604,-3.804190158843994
94,192200,192202,-0.5602452158927917,-0.04236678406596184,0.9495790600776672,37.33346939086914,-28.030168533325195,10.482065200805664,-0.5744712948799133,-0.8774561285972595,-0.2924853563308716,-0.6123353838920593,2.07828426361084,-3.710737466812134
95,192210,192212,-0.3433212637901306,-0.6845402121543884,1.0643037557601929,27.420019149780273,-33.81999588012695,10.978669166564941,-0.5714713931083679,-0.8684565424919128,-0.29848507046699524,-0.40710654854774475,2.3183181285858154,-3.641204833984375
96,192220,192222,-0.25183823704719543,-0.3679199516773224,1.043607473373413,13.921401023864746,-34.90787887573242,12.20489501953125,-0.56997150182724,-0.8759561777114868,-0.28498575091362,0.030466480180621147,2.52215838432312,-3.5339648723602295
97,192230,192232,-0.16491474211215973,-0.09232287853956223,1.0430034399032593,3.370059013366699,-27.680665969848633,12.426947593688965,-0.5579720735549927,-0.8759561777114868,-0.3029848337173462,0.3038715124130249,2.6691505908966064,-3.4297120571136475
98,192240,192242,-0.3714998960494995,-0.05457509309053421,1.003585934638977,-11.58038330078125,-14.045050621032715,12.411606788635254,-0.5609719157218933,-0.8699564933776855,-0.2969851493835449,0.5036993622779846,2.5532307624816895,-3.334085702896118
99,192250,192252,-0.21221023797988892,0.007480619940906763,0.9700599312782288,-19.578842163085938,2.0175764560699463,11.082773208618164,-0.5459727048873901,-0.8549572229385376,-0.2939853072166443,0.5507394075393677,2.430542469024658,-3.2246086597442627
100,192260,192262,-0.12668277323246002,-0.12868094444274902,1.0707882642745972,-25.04464340209961,15.549569129943848,10.263378143310547,-0.5594720244407654,-0.8624568581581116,-0.28948551416397095,0.3932083249092102,2.1564810276031494,-3.1357245445251465
101,192270,192272,-0.13724133372306824,-0.08990699052810669,1.0669372081756592,-25.262771606445312,22.062070846557617,10.482444763183594,-0.5504724383354187,-0.8714563846588135,-0.2954852283000946,0.11511437594890594,1.9204216003417969,-3.046755790710449
102,192280,192282,-0.21376807987689972,0.012373099103569984,1.0284147262573242,-24.054664611816406,18.854084014892578,10.191383361816406,-0.5519723892211914,-0.8729563355445862,-0.29998499155044556,-0.06688527017831802,1.8185482025146484,-2.913637638092041
103,192290,192292,-0.11725576221942902,-0.025991782546043396,1.0134836435317993,-27.49888801574707,12.096109390258789,9.415487289428711,-0.5564721822738647,-0.8654567003250122,-0.2954852283000946,-0.1964212954044342,1.5755480527877808,-2.793198347091675
104,192300,192302,-0.26427340507507324,-0.016563579440116882,1.05467689037323,-33.41005325317383,-1.252073884010315,6.518956661224365,-0.5579720735549927,-0.8579570651054382,-0.2969851493835449,-0.3102259039878845,1.3877651691436768,-2.71181321144104
105,192310,192312,-0.8971694111824036,-0.21078844368457794,1.077876329421997,-39.69712829589844,-7.305119514465332,2.340780735015869,-0.5579720735549927,-0.8579570651054382,-0.2969851493835449,-0.24167093634605408,1.020896315574646,-2.6492209434509277
106,192320,192322,-0.45318230986595154,-0.09141113609075546,1.1116172075271606,-38.061561584472656,-7.609716415405273,-3.1456141471862793,-0.5579720735549927,-0.8579570651054382,-0.2969851493835449,-0.09328705817461014,0.5177529454231262,-2.6316657066345215
107,192330,192332,-0.06121901795268059,0.006808315869420767,1.0704705715179443,-32.095855712890625,-1.5729063749313354,-8.825152397155762,-0.5489725470542908,-0.851957380771637,-0.29998499155044556,0.01800624281167984,0.33903539180755615,-2.6592824459075928
108,192340,192342,-0.051323916763067245,-0.014492557384073734,1.0752027034759521,-14.09697151184082,3.976872682571411,-13.040693283081055,-0.5414729118347168,-0.8534573316574097,-0.2864856719970703,-0.11483417451381683,-0.13215099275112152,-2.810310125350952
109,192350,192352,-0.21883536875247955,-0.09533309191465378,1.0451971292495728,9.893077850341797,4.7036824226379395,-14.277593612670898,-0.5534723401069641,-0.8594570159912109,-0.28948551416397095,-0.16320914030075073,0.10857606679201126,-2.932581901550293
110,192360,192362,-0.19436441361904144,-0.0925280824303627,1.0503419637680054,30.778173446655273,-0.5564318895339966,-15.319478034973145,-0.5534723401069641,-0.8564571738243103,-0.2924853563308716,-0.19689391553401947,0.3598696291446686,-3.0774872303009033
111,192370,192372,-0.056150682270526886,-0.04795457795262337,1.0247389078140259,40.40322494506836,-6.89828634262085,-13.614439010620117,-0.5789710283279419,-0.8609569072723389,-0.29098543524742126,-0.12559442222118378,0.8178179860115051,-3.2094533443450928
112,192380,192382,-0.028583217412233353,-0.12340185791254044,1.0732187032699585,31.84547996520996,-8.46945571899414,-12.291706085205078,-0.562471866607666,-0.8624568581581116,-0.28948551416397095,0.012798105366528034,1.0575319528579712,-3.3344552516937256
113,192390,192392,-0.09416614472866058,-0.07251191884279251,1.029985785484314,11.844837188720703,-8.40621280670166,-10.181929588317871,-0.5744712948799133,-0.8654567003250122,-0.2924853563308716,0.028572017326951027,1.3814547061920166,-3.4598987102508545
114,192400,192402,-0.07119548320770264,-0.030305858701467514,1.0013282299041748,-15.951018333435059,-5.629103183746338,-9.842389106750488,-0.562471866607666,-0.8714563846588135,-0.28948551416397095,0.10559189319610596,1.418920874595642,-3.5620219707489014
115,192410,192412,-0.18236440420150757,-0.059134114533662796,1.0762934684753418,-42.10869216918945,-1.1139483451843262,-12.154694557189941,-0.5759711861610413,-0.8579570651054382,-0.28498575091362,0.21078723669052124,0.9835137724876404,-3.6584970951080322
116,192420,192422,-0.03763372078537941,-0.1743689328432083,1.0429679155349731,-57.465309143066406,5.851124286651611,-15.220476150512695,-0.5579720735549927,-0.8489575386047363,-0.2939853072166443,0.2180948406457901,0.254621684551239,-3.7937588691711426
117,192430,192432,-0.3571436405181885,-0.527289867401123,1.0868772268295288,-57.83970260620117,10.067646980285645,-18.68882942199707,-0.562471866607666,-0.8354582190513611,-0.2864856719970703,0.13105398416519165,-0.009905919432640076,-3.9596641063690186
118,192440,192442,-0.30192333459854126,-0.4868387281894684,1.0209431648254395,-42.45741653442383,12.983668327331543,-19.19508934020996,-0.5534723401069641,-0.8384580612182617,-0.2834858298301697,-0.018192678689956665,-0.6342701315879822,-4.162766933441162
119,192450,192452,-0.071233831346035,-0.16906613111495972,1.0252599716186523,-22.34469985961914,15.106679916381836,-16.6227970123291,-0.5609719157218933,-0.8279585838317871,-0.28198590874671936,-0.14841900765895844,-0.8424948453903198,-4.349035739898682
120,192460,192462,-0.04556286707520485,-0.1729978770017624,1.0515778064727783,2.3543593883514404,12.64713191986084,-12.3963041305542,-0.562471866607666,-0.8354582190513611,-0.2834858298301697,-0.28357136249542236,-0.9245054125785828,-4.5014238357543945
121,192470,192472,-0.36384549736976624,-0.2961463928222656,1.0314959287643433,27.910926818847656,8.340834617614746,-8.213275909423828,-0.5789710283279419,-0.8279585838317871,-0.27298635244369507,-0.3764609396457672,-0.7438026666641235,-4.609644412994385
122,192480,192482,-0.3920140862464905,-0.35131940245628357,1.0681655406951904,40.47379684448242,0.5539566874504089,-4.617513656616211,-0.5744712948799133,-0.8264586329460144,-0.26848655939102173,-0.4384344220161438,-0.2706773579120636,-4.677184581756592
123,192490,192492,-1.040330171585083,-0.22121644020080566,1.0199823379516602,41.456207275390625,-11.19994831085205,-1.716306209564209,-0.5714713931083679,-0.8324583768844604,-0.2744862735271454,-0.28311586380004883,0.2102145552635193,-4.706408977508545
124,192500,192502,-1.3784537315368652,-0.3184863030910492,1.0886342525482178,33.24456024169922,-18.312345504760742,2.012298345565796,-0.5804709792137146,-0.850457489490509,-0.2864856719970703,-0.06320846080780029,0.5166293382644653,-4.7094831466674805
125,192510,192512,-1.174593448638916,-0.41645118594169617,1.0809686183929443,15.96890926361084,-19.021364212036133,6.558908939361572,-0.5669716596603394,-0.8429578542709351,-0.27298635244369507,0.08804064244031906,0.8492123484611511,-4.675390243530273
126,192520,192522,-0.6430745720863342,-0.5909825563430786,1.1050739288330078,-2.5610640048980713,-13.269651412963867,9.672102928161621,-0.5819708704948425,-0.8459576964378357,-0.2759861946105957,0.15562716126441956,0.8865369558334351,-4.602194309234619
127,192530,192532,-0.7449597716331482,-0.942442774772644,0.9934158325195312,-23.42530632019043,-8.641777038574219,13.582106590270996,-0.5849707126617432,-0.8309584259986877,-0.26998651027679443,0.3094900846481323,0.673348069190979,-4.490742206573486
128,192540,192542,-0.4408333897590637,-0.3584936559200287,1.017101526260376,-38.474796295166016,-3.736299753189087,15.471158027648926,-0.5534723401069641,-0.8294585347175598,-0.2744862735271454,0.4459312856197357,0.15793858468532562,-4.343808650970459
129,192550,192552,-0.6951647996902466,-0.19374029338359833,1.0761648416519165,-48.72419738769531,-3.084728240966797,15.712496757507324,-0.5729713439941406,-0.8249587416648865,-0.26998651027679443,0.5249645709991455,-0.20695605874061584,-4.183591365814209
130,192560,192562,-0.7987408638000488,-0.37250828742980957,1.0393494367599487,-43.787689208984375,-7.873352527618408,16.549753189086914,-0.5489725470542908,-0.8219588994979858,-0.2759861946105957,0.557144820690155,-0.7907516360282898,-4.024847507476807
131,192570,192572,-0.33492571115493774,-0.6395556926727295,0.9893644452095032,-33.26400375366211,5.03165340423584,13.735379219055176,-0.5744712948799133,-0.8084595799446106,-0.26848655939102173,0.5787413120269775,-1.078505516052246,-3.874338388442993
132,192580,192582,-0.4031491279602051,-0.35041141510009766,1.0047481060028076,-13.97065544128418,1.4563552141189575,14.637784004211426,-0.5669716596603394,-0.8219588994979858,-0.2669866383075714,0.4183143377304077,-1.37187659740448,-3.738276243209839
133,192590,192592,-0.1814856231212616,-0.01878044568002224,1.0023738145828247,8.21660327911377,10.584904670715332,11.137834548950195,-0.5654717087745667,-0.8204589486122131,-0.27148643136024475,0.3398570418357849,-1.3242290019989014,-3.6141445636749268
134,192600,192602,-0.09421306103467941,0.02842172235250473,0.9250438213348389,25.929826736450195,10.4213285446167,9.944306373596191,-0.5714713931083679,-0.8174591064453125,-0.2744862735271454,0.31727033853530884,-1.065375804901123,-3.514666795730591
135,192610,192612,-0.7372465133666992,-0.15053309500217438,1.0465904474258423,32.75408172607422,3.8733878135681152,10.323629379272461,-0.5714713931083679,-0.8354582190513611,-0.28048595786094666,0.1590982973575592,-0.6447702646255493,-3.41821026802063
136,192620,192622,-0.7067397832870483,-0.2707694470882416,1.0323752164840698,25.774568557739258,-10.121686935424805,10.39356803894043,-0.5819708704948425,-0.8279585838317871,-0.27298635244369507,0.12615223228931427,-0.33523324131965637,-3.3129758834838867
137,192630,192632,-0.6979315876960754,-0.3030354082584381,1.023724913597107,4.414007663726807,-11.855380058288574,7.441882610321045,-0.5834708213806152,-0.844457745552063,-0.2834858298301697,0.3480731248855591,-0.28317365050315857,-3.2255916595458984
138,192640,192642,-0.26816326379776,-0.3839865028858185,0.9041815400123596,-12.164641380310059,-13.799286842346191,5.44094181060791,-0.56997150182724,-0.8189590573310852,-0.2639867961406708,0.518836498260498,-0.34091874957084656,-3.159477472305298
139,192650,192652,-0.19695691764354706,-0.14215625822544098,0.9760446548461914,-24.34840202331543,-13.649964332580566,3.571608543395996,-0.5609719157218933,-0.8159592151641846,-0.28198590874671936,0.5867947936058044,-0.5371442437171936,-3.1041507720947266
140,192660,192662,-0.6201117634773254,-0.2423580139875412,0.9467900991439819,-20.605131149291992,-9.424933433532715,1.07088303565979,-0.5579720735549927,-0.8189590573310852,-0.28498575091362,0.7106097340583801,-0.8932286500930786,-3.063913583755493
141,192670,192672,-0.4996436834335327,-0.11986706405878067,0.9371270537376404,-11.835477828979492,-8.21591567993164,2.038632392883301,-0.562471866607666,-0.8114594221115112,-0.277486115694046,0.7941307425498962,-1.0099841356277466,-3.0481178760528564
142,192680,192682,-0.15049079060554504,-0.39376452565193176,0.9151389598846436,-3.0075533390045166,0.3746766448020935,2.1765096187591553,-0.5609719157218933,-0.8189590573310852,-0.27298635244369507,0.8042457103729248,-1.051355004310608,-3.0271148681640625
143,192690,192692,-0.18446704745292664,-0.4228282868862152,0.8803405165672302,8.090760231018066,13.290650367736816,2.110853672027588,-0.5714713931083679,-0.8234587907791138,-0.28048595786094666,0.7082057595252991,-1.0209012031555176,-3.0026819705963135
144,192700,192702,-0.17110516130924225,-0.3135335445404053,0.8605257272720337,9.852716445922852,13.753890991210938,4.479538440704346,-0.5579720735549927,-0.8219588994979858,-0.26998651027679443,0.5528980493545532,-0.9286981821060181,-2.9746272563934326
145,192710,192712,-0.5272176861763,-0.2539762854576111,0.8891928195953369,8.515332221984863,23.353290557861328,1.7476457357406616,-0.5684715509414673,-0.8204589486122131,-0.27148643136024475,0.3447769284248352,-0.8145805597305298,-2.941864490509033
146,192720,192722,-0.2956998348236084,-0.07175713032484055,0.8692420721054077,6.459084987640381,24.05732536315918,0.3538357615470886,-0.5564721822738647,-0.8234587907791138,-0.26848655939102173,0.09299056977033615,-0.7921100854873657,-2.9221086502075195
147,192730,192732,-0.45334264636039734,-0.12893573939800262,0.9504719376564026,-0.890286922454834,26.220256805419922,0.17236070334911346,-0.5609719157218933,-0.8309584259986877,-0.28798559308052063,-0.19338774681091309,-0.8286338448524475,-2.911644458770752
148,192740,192742,-0.12530101835727692,-0.195206880569458,1.0116028785705566,-6.11700963973999,23.067766189575195,-1.1233302354812622,-0.562471866607666,-0.8354582190513611,-0.27148643136024475,-0.5435445308685303,-0.888950526714325,-2.9001832008361816
149,192750,192752,-0.026394102722406387,-0.3156968653202057,1.1003625392913818,-18.8262996673584,18.959545135498047,-1.0191510915756226,-0.5819708704948425,-0.8489575386047363,-0.28498575091362,-0.6080843210220337,-0.93569415807724,-2.9377949237823486
150,192760,192762,-0.3496096134185791,-0.11198220402002335,1.0510663986206055,-22.12523078918457,0.34731534123420715,-1.4615479707717896,-0.5669716596603394,-0.8249587416648865,-0.29098543524742126,-0.8056901097297668,-1.2927145957946777,-2.928532123565674
151,192770,192772,-0.6513652205467224,-0.2962917983531952,1.007883906364441,-18.975481033325195,-12.812521934509277,-1.366470456123352,-0.5564721822738647,-0.844457745552063,-0.27148643136024475,-0.7450100183486938,-1.5220966339111328,-2.9443721771240234
152,192780,192782,-0.27787813544273376,-0.2740688621997833,1.058592677116394,-10.19717788696289,-24.482051849365234,-1.3783948421478271,-0.5804709792137146,-0.8264586329460144,-0.2744862735271454,-0.46097099781036377,-1.6664315462112427,-2.968264579772949
153,192790,192792,-0.49445840716362,-0.13568973541259766,1.1183503866195679,-1.5232276916503906,-22.07591438293457,-0.4596482813358307,-0.5609719157218933,-0.8219588994979858,-0.28498575091362,-0.10914814472198486,-1.6601860523223877,-2.9888412952423096
154,192800,192802,-0.2486862689256668,-0.05117010325193405,1.044049620628357,16.80902099609375,-29.37309455871582,0.9402143359184265,-0.5534723401069641,-0.844457745552063,-0.28048595786094666,0.16080091893672943,-1.5937602519989014,-2.9821815490722656
155,192810,192812,-0.042873259633779526,-0.13020874559879303,0.9975085258483887,28.852561950683594,-18.908008575439453,2.9540657997131348,-0.5639718174934387,-0.8309584259986877,-0.28498575091362,0.5840831398963928,-1.3428397178649902,-2.9888036251068115
156,192820,192822,0.013274913653731346,-0.24693834781646729,0.9177983999252319,38.351505279541016,-6.087188243865967,3.9825785160064697,-0.5639718174934387,-0.8399580121040344,-0.26998651027679443,0.5169378519058228,-1.0548295974731445,-2.908590078353882
157,192830,192832,-0.1934095323085785,-0.32843321561813354,1.0058578252792358,43.810218811035156,12.242256164550781,6.098328113555908,-0.5654717087745667,-0.8354582190513611,-0.277486115694046,0.4968498647212982,-0.4797767996788025,-2.8639578819274902
158,192840,192842,-0.25540199875831604,-0.06068681180477142,0.914287269115448,41.7731819152832,24.513994216918945,7.099793434143066,-0.5639718174934387,-0.836958110332489,-0.28198590874671936,0.2879725694656372,-0.14140158891677856,-2.7901394367218018
159,192850,192852,-0.1103600263595581,-0.26918408274650574,0.9536470174789429,27.483503341674805,26.174518585205078,8.946763038635254,-0.5789710283279419,-0.851957380771637,-0.28498575091362,-0.0635284036397934,0.3321009576320648,-2.6909871101379395
160,192860,192862,-0.09885681420564651,-0.2510572075843811,1.0276050567626953,4.170517444610596,26.725812911987305,8.851773262023926,-0.5669716596603394,-0.8459576964378357,-0.29098543524742126,-0.4175041615962982,0.5068938732147217,-2.576251268386841
161,192870,192872,-0.04498279094696045,-0.03556143119931221,1.0550017356872559,-25.411901473999023,14.144164085388184,9.551403045654297,-0.5714713931083679,-0.8384580612182617,-0.277486115694046,-0.674836277961731,0.34939518570899963,-2.468726634979248
162,192880,192882,-0.18881583213806152,-0.042076971381902695,0.9799433946609497,-48.362464904785156,3.059187889099121,5.426671504974365,-0.56997150182724,-0.836958110332489,-0.27898603677749634,-0.5981164574623108,-0.20505158603191376,-2.412736415863037
163,192890,192892,-0.07620712369680405,-0.155607670545578,1.0575225353240967,-53.983543395996094,-2.2044825553894043,3.1204073429107666,-0.5534723401069641,-0.8324583768844604,-0.28948551416397095,-0.8068429231643677,-0.6718337535858154,-2.340378761291504
164,192900,192902,-0.0851360633969307,-0.16046887636184692,1.0860021114349365,-46.524375915527344,-0.22843831777572632,0.725029468536377,-0.5534723401069641,-0.8414579033851624,-0.28948551416397095,-0.5124490261077881,-1.2316044569015503,-2.347853422164917
165,192910,192912,-0.04817499965429306,0.09553731232881546,1.1316286325454712,-28.237411499023438,-5.2504191398620605,0.43208199739456177,-0.5564721822738647,-0.8174591064453125,-0.28048595786094666,-0.5893014073371887,-1.6126337051391602,-2.325514316558838
166,192920,192922,0.01350430492311716,0.07391853630542755,1.0388926267623901,-4.322207450866699,-4.703831195831299,-0.8230921626091003,-0.5534723401069641,-0.8204589486122131,-0.27148643136024475,-0.489939421415329,-1.736851692199707,-2.3298656940460205
167,192930,192932,0.05301493778824806,-0.2409425526857376,1.018546462059021,13.137802124023438,-10.484325408935547,-1.592047095298767,-0.5654717087745667,-0.8264586329460144,-0.27148643136024475,-0.4639856517314911,-1.6446253061294556,-2.332350492477417
168,192940,192942,-0.3881978392601013,-0.15085338056087494,1.0125703811645508,30.950611114501953,-12.560138702392578,-1.111264944076538,-0.5579720735549927,-0.8399580121040344,-0.26998651027679443,-0.28989672660827637,-1.3988932371139526,-2.352952003479004
169,192950,192952,-0.9369053840637207,-0.6159167289733887,1.0366284847259521,38.361656188964844,-11.432853698730469,-0.2616989314556122,-0.562471866607666,-0.8354582190513611,-0.2834858298301697,-0.08977588266134262,-1.1128888130187988,-2.3769965171813965
170,192960,192962,-0.9187314510345459,-0.6891241669654846,1.0117753744125366,30.478681564331055,-6.242852687835693,0.13711264729499817,-0.5654717087745667,-0.8264586329460144,-0.27148643136024475,0.061093542724847794,-0.7931996583938599,-2.387587547302246
171,192970,192972,-0.5335023403167725,-0.18549056351184845,1.0529332160949707,17.035154342651367,3.659834861755371,1.637239694595337,-0.5729713439941406,-0.8309584259986877,-0.28498575091362,0.10272283107042313,-0.42930346727371216,-2.380394458770752
172,192980,192982,-0.271716833114624,-0.2694403827190399,1.001912236213684,2.6374945640563965,13.369208335876465,3.6000595092773438,-0.56997150182724,-0.8189590573310852,-0.28198590874671936,-0.014881317503750324,-0.4843096435070038,-2.3598458766937256
173,192990,192992,-0.11649888008832932,-0.17242668569087982,1.0040429830551147,-11.346413612365723,17.400285720825195,3.8919668197631836,-0.562471866607666,-0.8234587907791138,-0.26848655939102173,-0.25977951288223267,-0.4745688736438751,-2.3080830574035645
174,193000,193002,-0.13497711718082428,-0.15986625850200653,0.960197389125824,-23.83673858642578,17.27068519592285,1.113416314125061,-0.5654717087745667,-0.8324583768844604,-0.27148643136024475,-0.5384346842765808,-0.690980851650238,-2.2659308910369873
175,193010,193012,-0.08412635326385498,-0.17046667635440826,0.9480065107345581,-29.726469039916992,12.656254768371582,-1.9905259609222412,-0.5729713439941406,-0.8159592151641846,-0.2759861946105957,-0.5613310933113098,-1.0251513719558716,-2.2881276607513428
176,193020,193022,-0.1723463237285614,-0.07715636491775513,1.0151630640029907,-26.014089584350586,9.45110034942627,-5.546523571014404,-0.5729713439941406,-0.8159592151641846,-0.2669866383075714,-0.40248721837997437,-1.3943086862564087,-2.362928628921509
177,193030,193032,-0.3182487487792969,-0.3169451355934143,0.9681323766708374,-13.787768363952637,8.848917007446289,-9.433403015136719,-0.5564721822738647,-0.8204589486122131,-0.26248687505722046,-0.5136477947235107,-1.5916554927825928,-2.4300830364227295
178,193040,193042,-0.49224889278411865,-0.17951492965221405,1.0325596332550049,0.5530539751052856,7.727193355560303,-12.541667938232422,-0.5639718174934387,-0.8129593133926392,-0.27298635244369507,-0.6792582273483276,-1.5775569677352905,-2.522618532180786
179,193050,193052,-0.26807647943496704,-0.3815031051635742,0.9990047216415405,13.240123748779297,4.348537445068359,-13.375608444213867,-0.5789710283279419,-0.8069596290588379,-0.27298635244369507,-0.6532408595085144,-1.47791588306427,-2.6619582176208496
180,193060,193062,-0.40448975563049316,-0.41266146302223206,0.8937177658081055,30.665626525878906,0.7959810495376587,-16.40230941772461,-0.5924703478813171,-0.8324583768844604,-0.2564871609210968,-0.6076705455780029,-1.2923213243484497,-2.8268301486968994
181,193070,193072,-0.8338786363601685,-0.12995180487632751,0.9498032927513123,41.74051284790039,-8.167405128479004,-16.131244659423828,-0.5744712948799133,-0.8234587907791138,-0.26848655939102173,-0.596783459186554,-0.7765114307403564,-2.9754834175109863
182,193080,193082,-0.7179000973701477,0.08376073092222214,0.9830658435821533,49.04328918457031,-8.816864013671875,-18.362728118896484,-0.5759711861610413,-0.8459576964378357,-0.26998651027679443,-0.5062235593795776,-0.3265834152698517,-3.1495165824890137
183,193090,193092,-1.1298502683639526,-0.20591489970684052,1.0775350332260132,44.628116607666016,-9.201784133911133,-17.99837303161621,-0.5849707126617432,-0.8309584259986877,-0.2759861946105957,-0.38183489441871643,0.048293016850948334,-3.3437628746032715
184,193100,193102,-1.1878149509429932,-0.06996645033359528,1.176313877105713,42.83231735229492,-11.337295532226562,-17.425289154052734,-0.5759711861610413,-0.8309584259986877,-0.2639867961406708,-0.23225820064544678,0.6530434489250183,-3.5237667560577393
185,193110,193112,-0.37508612871170044,-0.10943132638931274,1.0831298828125,35.32122039794922,-11.530892372131348,-13.843043327331543,-0.5864706635475159,-0.8354582190513611,-0.2954852283000946,-0.21456174552440643,0.7100880742073059,-3.6988041400909424
186,193120,193122,-0.1923903226852417,-0.19648362696170807,0.9461072683334351,32.15932083129883,-9.439600944519043,-10.270770072937012,-0.5789710283279419,-0.8279585838317871,-0.2759861946105957,-0.1278911679983139,1.2464382648468018,-3.8158340454101562
187,193130,193132,-0.3049536645412445,-0.36281999945640564,0.8520877361297607,23.811946868896484,-13.930460929870605,-6.517087459564209,-0.5834708213806152,-0.8354582190513611,-0.277486115694046,0.0371694415807724,1.4250656366348267,-3.9238243103027344
188,193140,193142,-0.30667972564697266,-0.42903149127960205,0.9513564705848694,15.441347122192383,-6.318048000335693,-4.118295669555664,-0.5834708213806152,-0.8354582190513611,-0.277486115694046,0.04515284672379494,1.6707960367202759,-3.977196216583252
189,193150,193152,-0.3666110932826996,-0.22995471954345703,1.0687921047210693,8.338305473327637,-6.3620429039001465,0.5699633359909058,-0.5834708213806152,-0.8354582190513611,-0.277486115694046,0.15329468250274658,1.7711122035980225,-4.007879257202148
190,193160,193162,-0.3313587009906769,-0.2559460699558258,0.9775481224060059,2.2274203300476074,0.474317342042923,4.670724868774414,-0.5834708213806152,-0.8294585347175598,-0.2744862735271454,0.07924780994653702,1.8283107280731201,-3.992757558822632
191,193170,193172,-0.2614935040473938,-0.29843878746032715,0.899429440498352,-0.495783269405365,4.425537109375,7.6594343185424805,-0.577471137046814,-0.8354582190513611,-0.2744862735271454,0.06255599111318588,1.8108139038085938,-3.9418561458587646
192,193180,193182,-0.6071874499320984,-0.4171887934207916,0.9857856035232544,-5.938408374786377,8.917672157287598,11.938232421875,-0.5744712948799133,-0.8414579033851624,-0.277486115694046,0.03277856484055519,1.8057414293289185,-3.840224027633667
193,193190,193192,-0.627008855342865,-0.5083988904953003,0.8527868986129761,-7.217914581298828,17.66522789001465,14.008614540100098,-0.5789710283279419,-0.8339582681655884,-0.27898603677749634,-0.1712701916694641,1.73926842212677,-3.7183189392089844
194,193200,193202,-0.5255419611930847,-0.26500046253204346,0.9412314295768738,-7.372593879699707,15.330293655395508,14.59594440460205,-0.5834708213806152,-0.8354582190513611,-0.2834858298301697,-0.37134042382240295,1.7105461359024048,-3.5773563385009766
195,193210,193212,-0.653667151927948,-0.549350380897522,1.0895309448242188,-16.267993927001953,7.749673366546631,15.179108619689941,-0.5834708213806152,-0.844457745552063,-0.2744862735271454,-0.49236196279525757,1.5636147260665894,-3.426179885864258
196,193220,193222,-0.21752099692821503,-0.39235562086105347,0.9797617793083191,-22.349735260009766,5.510664463043213,15.771424293518066,-0.5759711861610413,-0.836958110332489,-0.27898603677749634,-0.5432189106941223,1.3093239068984985,-3.268768787384033
197,193230,193232,-0.34018996357917786,-0.5721130967140198,0.9725975394248962,-28.353673934936523,-2.947965145111084,15.02271556854248,-0.56997150182724,-0.8399580121040344,-0.28498575091362,-0.4547280967235565,1.0864582061767578,-3.091261863708496
198,193240,193242,-0.2028767615556717,-0.31922468543052673,0.8281265497207642,-31.413074493408203,-0.37333860993385315,14.393138885498047,-0.5609719157218933,-0.8309584259986877,-0.27898603677749634,-0.43760231137275696,0.6347272992134094,-2.9488234519958496
199,193250,193252,-0.348335862159729,-0.15821082890033722,0.9722973704338074,-31.523799896240234,-8.798205375671387,15.090782165527344,-0.5639718174934387,-0.836958110332489,-0.28498575091362,-0.3820502758026123,0.2904530167579651,-2.7983269691467285
200,193260,193262,-0.5763401389122009,-0.2899512052536011,1.0654360055923462,-31.742088317871094,-7.481362342834473,14.967480659484863,-0.56997150182724,-0.8279585838317871,-0.26998651027679443,-0.24796512722969055,0.06768295913934708,-2.630492925643921
201,193270,193272,-0.24079705774784088,-0.09163502603769302,1.0399008989334106,-21.595726013183594,-4.774192810058594,12.746705055236816,-0.5684715509414673,-0.8234587907791138,-0.28048595786094666,-0.1353759914636612,-0.3149239122867584,-2.482861042022705
202,193280,193282,-0.6187154054641724,-0.06607742607593536,1.0288883447647095,-10.566670417785645,8.083370208740234,7.899575233459473,-0.5744712948799133,-0.8354582190513611,-0.2834858298301697,-0.21402518451213837,-0.17664223909378052,-2.3743667602539062
203,193290,193292,-0.16000451147556305,-0.04094233736395836,0.9560516476631165,-5.912622928619385,22.696407318115234,2.8304195404052734,-0.5654717087745667,-0.8234587907791138,-0.2744862735271454,-0.4238086938858032,-0.3095155358314514,-2.3290212154388428
204,193300,193302,-0.0856911838054657,-0.2622467577457428,0.9874329566955566,-3.2755327224731445,29.825227737426758,0.44753867387771606,-0.5759711861610413,-0.8399580121040344,-0.28498575091362,-0.8430278897285461,-0.2540193796157837,-2.3316121101379395
205,193310,193312,-0.1423685997724533,-0.12853050231933594,0.9750137329101562,0.9520473480224609,25.793365478515625,-0.6631073355674744,-0.5744712948799133,-0.8324583768844604,-0.28048595786094666,-1.028232216835022,-0.28582096099853516,-2.3185791969299316
206,193320,193322,-0.34431686997413635,-0.006049231626093388,1.0280182361602783,5.453078746795654,13.162088394165039,0.5613152384757996,-0.577471137046814,-0.8264586329460144,-0.2744862735271454,-1.3189760446548462,-0.2552728056907654,-2.3326187133789062
207,193330,193332,-0.40204429626464844,-0.010007592849433422,0.985863208770752,9.909387588500977,-4.011253833770752,0.9627071022987366,-0.5804709792137146,-0.8264586329460144,-0.27148643136024475,-1.234938383102417,-0.13682225346565247,-2.300739288330078
208,193340,193342,-0.424337774515152,-0.1735200434923172,0.9688593745231628,8.597864151000977,-16.092039108276367,0.15431717038154602,-0.56997150182724,-0.8249587416648865,-0.2759861946105957,-1.1004793643951416,-0.05154312402009964,-2.286985158920288
209,193350,193352,-0.5023486614227295,-0.3073773980140686,0.9641563296318054,8.600356101989746,-28.69176483154297,0.6928728818893433,-0.5714713931083679,-0.8264586329460144,-0.28048595786094666,-0.8212912678718567,0.09869850426912308,-2.272686719894409
210,193360,193362,-0.20239466428756714,-0.6565925478935242,1.0185576677322388,7.956181049346924,-22.01816177368164,-0.16041213274002075,-0.5684715509414673,-0.8324583768844604,-0.28048595786094666,-0.5353918075561523,0.012504682876169682,-2.2872917652130127
211,193370,193372,-0.40709781646728516,-0.3879237473011017,1.0820868015289307,8.866931915283203,-15.07078742980957,2.255183696746826,-0.5729713439941406,-0.8279585838317871,-0.28798559308052063,-0.1900067776441574,0.08712030202150345,-2.270085334777832
212,193380,193382,-0.8784679174423218,-0.13042764365673065,1.1213510036468506,8.26347827911377,-6.286886692047119,4.660123348236084,-0.5729713439941406,-0.8309584259986877,-0.2759861946105957,-0.1317119300365448,0.1773572564125061,-2.2477340698242188
213,193390,193392,-0.5780927538871765,-0.04462045058608055,1.0313998460769653,5.319464206695557,5.870504379272461,8.125320434570312,-0.56997150182724,-0.8309584259986877,-0.28198590874671936,-0.0911228358745575,0.25283706188201904,-2.18977689743042
214,193400,193402,-0.8544760942459106,-0.1731385439634323,0.9303223490715027,1.544233798980713,16.972007751464844,10.146139144897461,-0.5834708213806152,-0.8264586329460144,-0.28948551416397095,-0.2579903304576874,0.3259536623954773,-2.1027321815490723
215,193410,193412,-0.3721919655799866,-0.21543407440185547,1.0239548683166504,-2.1792373657226562,10.834800720214844,12.745264053344727,-0.5819708704948425,-0.8429578542709351,-0.27898603677749634,-0.5264929533004761,0.34974128007888794,-2.0000786781311035
216,193420,193422,-0.21377445757389069,-0.1340034008026123,1.1385902166366577,-5.77692174911499,5.024219989776611,17.075777053833008,-0.5819708704948425,-0.8279585838317871,-0.26998651027679443,-0.6077606678009033,0.24338963627815247,-1.8611705303192139
217,193430,193432,-0.635075032711029,-0.19474168121814728,1.0211321115493774,-17.598020553588867,-1.5303386449813843,18.139089584350586,-0.5759711861610413,-0.8219588994979858,-0.27298635244369507,-0.5094732642173767,0.10916098952293396,-1.6784558296203613
218,193440,193442,-0.3383474349975586,-0.45773401856422424,1.1332296133041382,-29.765548706054688,-1.419953465461731,18.323453903198242,-0.5594720244407654,-0.8354582190513611,-0.27148643136024475,-0.49429553747177124,-0.22776350378990173,-1.5039637088775635
219,193450,193452,-0.37409594655036926,-0.21850845217704773,1.0188313722610474,-32.622901916503906,-6.160473346710205,17.031187057495117,-0.5714713931083679,-0.8324583768844604,-0.28048595786094666,-0.5395814180374146,-0.5722761154174805,-1.3316583633422852
220,193460,193462,-0.4093170762062073,-0.021389052271842957,1.0962307453155518,-22.51449966430664,-12.886131286621094,18.54892921447754,-0.5759711861610413,-0.8189590573310852,-0.2669866383075714,-0.4145446717739105,-0.9688553214073181,-1.1561336517333984
221,193470,193472,-0.820048451423645,-0.2231736034154892,0.9814450144767761,-9.137804985046387,-8.140542984008789,19.526958465576172,-0.5639718174934387,-0.8159592151641846,-0.2639867961406708,-0.2316218465566635,-1.1786963939666748,-0.9641904234886169
222,193480,193482,-0.6257140636444092,-0.22865432500839233,0.9874745607376099,8.313413619995117,-8.573265075683594,21.584917068481445,-0.5669716596603394,-0.836958110332489,-0.26098695397377014,-0.0876244530081749,-1.05927312374115,-0.7447081804275513
223,193490,193492,-0.3171837329864502,-0.29750126600265503,1.0344247817993164,17.465927124023438,0.6382249593734741,22.850013732910156,-0.5594720244407654,-0.8354582190513611,-0.28048595786094666,-0.00019937180331908166,-0.920156717300415,-0.525040864944458
224,193500,193502,-0.44389447569847107,-0.1923239678144455,1.0059701204299927,19.484399795532227,5.1210737228393555,25.718097686767578,-0.5729713439941406,-0.8249587416648865,-0.28498575091362,-0.04913267120718956,-0.7142801880836487,-0.28490930795669556
225,193510,193512,-0.6140618920326233,-0.21524359285831451,0.994933009147644,11.82602596282959,9.977701187133789,28.048307418823242,-0.5654717087745667,-0.8384580612182617,-0.26848655939102173,-0.1669631153345108,-0.4052029848098755,-0.011722382158041
226,193520,193522,-0.48242899775505066,-0.2297675758600235,0.9877287149429321,4.412899017333984,12.630460739135742,29.390987396240234,-0.554972231388092,-0.8279585838317871,-0.27898603677749634,-0.2768946886062622,-0.4469817280769348,0.27031341195106506
227,193530,193532,-0.34335562586784363,-0.5151143074035645,0.997735857963562,-1.3578894138336182,11.540019035339355,30.745315551757812,-0.5744712948799133,-0.8294585347175598,-0.277486115694046,-0.48549994826316833,-0.3741893172264099,0.5757444500923157
228,193540,193542,-0.9624856114387512,-0.36244210600852966,1.0170832872390747,-5.555706024169922,10.575292587280273,30.0044002532959,-0.5594720244407654,-0.8144592642784119,-0.277486115694046,-0.6920674443244934,-0.40169715881347656,0.8825328946113586
229,193550,193552,-1.4923242330551147,-0.438059002161026,0.9909277558326721,-2.9242074489593506,2.6388328075408936,29.733165740966797,-0.5579720735549927,-0.8219588994979858,-0.2759861946105957,-0.2711486220359802,-0.8605004549026489,1.1479239463806152
230,193560,193562,-0.7528570294380188,-0.20340262353420258,0.9343971610069275,0.20590446889400482,-0.3142625391483307,31.152719497680664,-0.5639718174934387,-0.8159592151641846,-0.26998651027679443,-0.2599720060825348,-0.8333700299263,1.4499491453170776
231,193570,193572,-0.34851279854774475,-0.20742005109786987,0.985385000705719,9.81499195098877,-0.5214282870292664,32.59147644042969,-0.5519723892211914,-0.8279585838317871,-0.2639867961406708,-0.23138347268104553,-0.8739584684371948,1.7641149759292603
232,193580,193582,-0.14637066423892975,-0.02572018839418888,1.0286282300949097,21.141067504882812,-2.6269285678863525,34.02783203125,-0.5594720244407654,-0.8294585347175598,-0.2744862735271454,-0.04529181867837906,-0.5957218408584595,2.089794158935547
233,193590,193592,-0.033105865120887756,-0.049978502094745636,1.017379879951477,26.872156143188477,-3.336578607559204,35.95859909057617,-0.5579720735549927,-0.8249587416648865,-0.28198590874671936,-0.059384122490882874,-0.3020789623260498,2.444242000579834
234,193600,193602,-0.5912104845046997,-0.4582202136516571,0.971694827079773,22.600618362426758,-3.5264365673065186,34.563777923583984,-0.5579720735549927,-0.8459576964378357,-0.27898603677749634,-0.04885629564523697,-0.3150855004787445,2.7999391555786133
235,193610,193612,-1.4109078645706177,-0.2623533010482788,0.9966005086898804,15.234129905700684,-4.191799640655518,29.63482093811035,-0.5609719157218933,-0.8399580121040344,-0.28498575091362,-0.022453442215919495,-0.03837387636303902,3.133748769760132
236,193620,193622,-0.948910117149353,0.0605706088244915,1.0321851968765259,8.366028785705566,0.7506186366081238,23.58077049255371,-0.5519723892211914,-0.8399580121040344,-0.2759861946105957,0.07138204574584961,-0.09886961430311203,3.405777931213379
237,193630,193632,-0.15040519833564758,0.16694052517414093,1.063405990600586,-0.6562550067901611,18.68212127685547,17.415435791015625,-0.5474725961685181,-0.8414579033851624,-0.2864856719970703,-0.07416771352291107,0.07513496279716492,3.6304075717926025
238,193640,193642,0.008102665655314922,0.03267844021320343,1.0307871103286743,-8.309882164001465,32.893802642822266,9.174272537231445,-0.5459727048873901,-0.8339582681655884,-0.2759861946105957,-0.488754540681839,0.02283964864909649,3.789830207824707
239,193650,193652,-0.05191294103860855,0.02434912882745266,1.0567083358764648,-13.032197952270508,39.22496032714844,2.007444143295288,-0.5459727048873901,-0.8249587416648865,-0.28198590874671936,-0.8029477000236511,-0.1308552622795105,3.8575901985168457
240,193660,193662,-0.006825227290391922,0.18685249984264374,0.9962638020515442,-12.046319961547852,44.705528259277344,-5.364936828613281,-0.5579720735549927,-0.8459576964378357,-0.2759861946105957,-1.2934120893478394,-0.32795071601867676,3.85274600982666
241,193670,193672,-0.027803698554635048,0.02358871139585972,0.9860615134239197,-5.737347602844238,37.64693069458008,-11.222302436828613,-0.5669716596603394,-0.8309584259986877,-0.28198590874671936,-1.5259069204330444,-0.42310914397239685,3.7661149501800537
242,193680,193682,-0.11281152069568634,-0.01821175403892994,0.994803249835968,5.502099514007568,24.04160499572754,-13.663464546203613,-0.562471866607666,-0.8354582190513611,-0.28048595786094666,-1.83439040184021,-0.3807939887046814,3.641869068145752
243,193690,193692,-0.4405958950519562,-0.07714121043682098,1.0012524127960205,14.239542007446289,10.413819313049316,-12.54492473602295,-0.5669716596603394,-0.8249587416648865,-0.26998651027679443,-2.0515973567962646,-0.2441428303718567,3.5123531818389893
244,193700,193702,-0.5736948251724243,-0.012134579010307789,1.0044515132904053,24.134765625,4.446296691894531,-13.192115783691406,-0.5729713439941406,-0.8249587416648865,-0.2639867961406708,-2.032058000564575,-0.03616078943014145,3.3813893795013428
245,193710,193712,-0.20716731250286102,0.05473604425787926,1.0520033836364746,32.87662887573242,-1.7326300144195557,-12.854830741882324,-0.577471137046814,-0.8354582190513611,-0.27148643136024475,-1.9890382289886475,0.33629709482192993,3.255929946899414
246,193720,193722,-0.3737567961215973,-0.12462981790304184,1.0049036741256714,33.57048416137695,-6.514639854431152,-10.46839427947998,-0.5804709792137146,-0.850457489490509,-0.277486115694046,-2.049269676208496,0.5854319334030151,3.124992609024048
247,193730,193732,-0.4777379035949707,-0.4356665015220642,0.9951054453849792,30.01205825805664,-5.013408660888672,-7.959084510803223,-0.5759711861610413,-0.8399580121040344,-0.2759861946105957,-1.9157652854919434,0.9107776284217834,3.0239176750183105
248,193740,193742,-0.5772331953048706,-0.48723480105400085,1.0673253536224365,23.572202682495117,-0.08019501715898514,-6.0355634689331055,-0.5759711861610413,-0.8489575386047363,-0.28498575091362,-1.956178903579712,1.0267435312271118,2.9225850105285645
249,193750,193752,-0.12404422461986542,-0.2332177758216858,1.0276000499725342,15.86152172088623,5.917642116546631,-6.2560014724731445,-0.56997150182724,-0.8489575386047363,-0.28198590874671936,-1.9430630207061768,1.322101354598999,2.8777048587799072
250,193760,193762,0.013172711245715618,-0.3264216482639313,1.0354928970336914,9.100156784057617,12.200425148010254,-7.311804294586182,-0.5684715509414673,-0.8474575877189636,-0.2864856719970703,-2.0869810581207275,1.4150422811508179,2.8062000274658203
251,193770,193772,-0.39406803250312805,-0.3892783224582672,1.075454592704773,7.81826114654541,18.001953125,-8.282196044921875,-0.5759711861610413,-0.836958110332489,-0.28198590874671936,-2.2020297050476074,1.341355800628662,2.7016186714172363
252,193780,193782,-0.7610531449317932,-0.8022361397743225,0.9314352869987488,9.725503921508789,16.837665557861328,-10.002427101135254,-0.5789710283279419,-0.836958110332489,-0.26998651027679443,-2.5134220123291016,1.5608288049697876,2.6418490409851074
253,193790,193792,-0.9923157691955566,-0.688545286655426,0.9901288747787476,7.475133895874023,11.331132888793945,-11.50306510925293,-0.577471137046814,-0.844457745552063,-0.2834858298301697,-2.6516144275665283,1.4302650690078735,2.4884722232818604
254,193800,193802,-0.31237947940826416,-0.14222966134548187,0.9767528772354126,6.558365821838379,1.4616622924804688,-13.050575256347656,-0.5939702987670898,-0.8249587416648865,-0.27298635244369507,-2.6449172496795654,1.6393823623657227,2.4162869453430176
255,193810,193812,-0.11904173344373703,-0.16556696593761444,1.0349351167678833,4.96846342086792,-8.311945915222168,-15.470452308654785,-0.5729713439941406,-0.8309584259986877,-0.26998651027679443,-2.6455729007720947,1.7487499713897705,2.289057731628418
256,193820,193822,-0.08556680381298065,-0.11913686990737915,1.0350269079208374,6.02946662902832,-16.438703536987305,-16.825042724609375,-0.5744712948799133,-0.8474575877189636,-0.28048595786094666,-2.477511405944824,1.6970638036727905,2.104144334793091
257,193830,193832,-0.6138957142829895,-0.05254949629306793,1.0213100910186768,0.7469336986541748,-20.278114318847656,-17.296680450439453,-0.5819708704948425,-0.8399580121040344,-0.27298635244369507,-2.2725374698638916,1.7567611932754517,1.9470716714859009
258,193840,193842,-0.8017066717147827,-0.10165999829769135,0.9976054430007935,5.020300388336182,-23.85660171508789,-18.835256576538086,-0.5759711861610413,-0.8429578542709351,-0.28198590874671936,-2.1381466388702393,1.775961995124817,1.7477335929870605
259,193850,193852,-0.6363725066184998,-0.27549469470977783,1.10834801197052,6.089982986450195,-20.320844650268555,-17.145936965942383,-0.5729713439941406,-0.8549572229385376,-0.28498575091362,-1.9140007495880127,1.8503395318984985,1.5660598278045654
260,193860,193862,-1.1082355976104736,-0.4739530384540558,1.1086221933364868,14.109793663024902,-15.09462833404541,-16.979814529418945,-0.5924703478813171,-0.8414579033851624,-0.2864856719970703,-1.7394134998321533,1.9795995950698853,1.3952587842941284
261,193870,193872,-0.6205853819847107,-1.1205331087112427,1.0313347578048706,18.423227310180664,-9.591374397277832,-13.568946838378906,-0.5744712948799133,-0.8324583768844604,-0.277486115694046,-1.6399236917495728,2.070751905441284,1.2040642499923706
262,193880,193882,-0.7862628102302551,-0.5013142824172974,1.0462698936462402,21.30740737915039,-2.6307430267333984,-13.296361923217773,-0.5849707126617432,-0.851957380771637,-0.28198590874671936,-1.6024576425552368,2.2418155670166016,1.0501477718353271
263,193890,193892,-1.2773936986923218,-0.729988694190979,0.8788430690765381,17.499164581298828,-1.9167574644088745,-9.692007064819336,-0.5819708704948425,-0.8459576964378357,-0.27898603677749634,-1.6228946447372437,2.440507650375366,0.917366623878479
264,193900,193902,-0.9749059677124023,-1.5088090896606445,0.9939110279083252,6.375009536743164,-7.939805030822754,-8.835053443908691,-0.5789710283279419,-0.8459576964378357,-0.28498575091362,-1.6483128070831299,2.5849390029907227,0.8142576217651367
265,193910,193912,-0.031903281807899475,-1.1789305210113525,0.9475880861282349,-5.985418796539307,-13.560542106628418,-8.428072929382324,-0.5939702987670898,-0.8429578542709351,-0.27298635244369507,-1.4901093244552612,2.544243097305298,0.7213618755340576
266,193920,193922,-0.45073139667510986,-0.43978941440582275,0.9935333132743835,-18.809961318969727,-25.03227996826172,-8.653633117675781,-0.5729713439941406,-0.8399580121040344,-0.27898603677749634,-1.1931822299957275,2.352717161178589,0.6409722566604614
267,193930,193932,-0.4999100863933563,-0.33813488483428955,0.9608020186424255,-25.88055419921875,-39.01306915283203,-11.302896499633789,-0.56997150182724,-0.836958110332489,-0.28498575091362,-0.7698065638542175,2.0532238483428955,0.5468727350234985
268,193940,193942,-0.7024146914482117,-0.1624721884727478,1.0085809230804443,-30.469022750854492,-41.80056381225586,-11.987279891967773,-0.5609719157218933,-0.8549572229385376,-0.27298635244369507,-0.6028462648391724,1.676005482673645,0.3196219801902771
269,193950,193952,-0.80794757604599,-0.14823347330093384,0.8447643518447876,-23.712984085083008,-38.33700180053711,-16.226978302001953,-0.5579720735549927,-0.836958110332489,-0.28198590874671936,-0.12716497480869293,1.5549440383911133,0.24069556593894958
270,193960,193962,-0.728830873966217,-0.20166528224945068,0.8650822043418884,-12.556318283081055,-37.63738250732422,-16.930156707763672,-0.5654717087745667,-0.8474575877189636,-0.277486115694046,0.10718031227588654,1.4651768207550049,0.04560082405805588
271,193970,193972,-0.24494518339633942,-0.2230459749698639,0.9751325249671936,2.6623525619506836,-29.25258445739746,-17.836071014404297,-0.5654717087745667,-0.8474575877189636,-0.277486115694046,0.5637183785438538,1.370074987411499,-0.1070302426815033
272,193980,193982,-0.08764102309942245,-0.11483477801084518,0.890937328338623,25.108074188232422,-16.64066505432129,-17.926956176757812,-0.5654717087745667,-0.8474575877189636,-0.277486115694046,0.8491571545600891,1.5623353719711304,-0.26522722840309143
273,193990,193992,-0.10390321910381317,-0.06321021914482117,0.9198229908943176,35.202999114990234,-8.760889053344727,-18.453584671020508,-0.5609719157218933,-0.8459576964378357,-0.28498575091362,0.7259945273399353,1.932008147239685,-0.5195248126983643
274,194000,194002,-0.010015969164669514,0.0736159011721611,0.9743366837501526,42.722347259521484,-5.519413948059082,-20.10541534423828,-0.5609719157218933,-0.8489575386047363,-0.27898603677749634,0.8027442693710327,2.412069320678711,-0.6966952085494995
275,194010,194012,-0.05076846107840538,-0.053292155265808105,1.0011783838272095,46.216312408447266,-5.078339099884033,-19.813838958740234,-0.5684715509414673,-0.8384580612182617,-0.28048595786094666,0.841049313545227,2.796759605407715,-0.9047277569770813
276,194020,194022,-0.5722615718841553,-0.3813459277153015,0.9234769344329834,45.577693939208984,-7.811248302459717,-18.720661163330078,-0.5714713931083679,-0.844457745552063,-0.2864856719970703,0.9722675681114197,3.285895586013794,-1.0857223272323608
277,194030,194032,-0.6303423643112183,-0.5308459997177124,0.9474076628684998,37.06483459472656,-9.052142143249512,-14.377142906188965,-0.562471866607666,-0.8474575877189636,-0.2744862735271454,1.0727328062057495,3.7341082096099854,-1.2546595335006714
278,194040,194042,-0.675014078617096,-0.614482581615448,0.8339844942092896,20.230329513549805,-10.41866683959961,-10.73161506652832,-0.5669716596603394,-0.8639568090438843,-0.30898454785346985,1.108500361442566,3.935093641281128,-1.4034464359283447
279,194050,194052,-0.3817330002784729,-0.24375692009925842,0.8110145926475525,-0.6802944540977478,-9.869500160217285,-7.697939395904541,-0.5684715509414673,-0.8564571738243103,-0.2924853563308716,1.154372215270996,3.9852819442749023,-1.5211745500564575
280,194060,194062,-0.16669967770576477,0.007309614215046167,0.9756919145584106,-24.265588760375977,-13.629597663879395,-4.182086944580078,-0.562471866607666,-0.8654567003250122,-0.28948551416397095,1.311919093132019,3.875504732131958,-1.5830556154251099
281,194070,194072,-0.44078004360198975,-0.07850024849176407,0.9914267063140869,-41.398250579833984,-6.475253582000732,-1.785027027130127,-0.5639718174934387,-0.8609569072723389,-0.28498575091362,1.5283217430114746,3.406705379486084,-1.5654038190841675
282,194080,194082,-0.5244669318199158,-0.35869133472442627,0.8583593368530273,-50.03376007080078,0.23387810587882996,-0.9620562195777893,-0.554972231388092,-0.8579570651054382,-0.29098543524742126,1.5530304908752441,2.8549959659576416,-1.575643539428711
283,194090,194092,-0.4050552546977997,-0.18523794412612915,1.0112627744674683,-60.98263168334961,8.271428108215332,0.8773128390312195,-0.5429728627204895,-0.8609569072723389,-0.29098543524742126,1.516344666481018,2.5000317096710205,-1.606230616569519
284,194100,194102,-0.5742151141166687,0.010439928621053696,1.0621731281280518,-63.93342590332031,23.12908172607422,-0.2743985652923584,-0.5414729118347168,-0.8534573316574097,-0.2924853563308716,1.2350825071334839,1.7776497602462769,-1.642135739326477
285,194110,194112,-0.18666715919971466,-0.17770889401435852,1.1740788221359253,-59.38436508178711,28.834617614746094,0.9260591268539429,-0.5579720735549927,-0.8429578542709351,-0.28198590874671936,0.8678894639015198,1.3264381885528564,-1.7232502698898315
286,194120,194122,0.05931359902024269,-0.42539161443710327,1.000117301940918,-43.41402053833008,34.46424865722656,-3.0862009525299072,-0.5534723401069641,-0.8354582190513611,-0.28948551416397095,0.5309572815895081,0.7729887366294861,-1.7299004793167114
287,194130,194132,-0.04213662073016167,-0.1446102112531662,1.115554690361023,-25.459001541137695,23.7955322265625,-3.035655975341797,-0.5594720244407654,-0.8354582190513611,-0.277486115694046,0.25661584734916687,0.2717824876308441,-1.7136545181274414
288,194140,194142,-0.21996989846229553,-0.07110493630170822,1.0598385334014893,1.7599899768829346,1.7158164978027344,-3.970933675765991,-0.5759711861610413,-0.8339582681655884,-0.28198590874671936,0.0691082626581192,0.40487632155418396,-1.8252077102661133
289,194150,194152,-0.3042498230934143,-0.14562128484249115,1.0974712371826172,21.203392028808594,-15.534584045410156,-1.2761516571044922,-0.5669716596603394,-0.8399580121040344,-0.2939853072166443,0.3036434054374695,0.5761839747428894,-1.804714560508728
290,194160,194162,-0.28340965509414673,-0.3490370512008667,1.1139017343521118,27.61625099182129,-26.916471481323242,4.0178422927856445,-0.5819708704948425,-0.851957380771637,-0.28798559308052063,0.6195967197418213,0.8608005046844482,-1.7768315076828003
291,194170,194172,-0.1403900533914566,0.08382642269134521,1.0251470804214478,24.61913299560547,-29.55415916442871,9.18302059173584,-0.56997150182724,-0.8429578542709351,-0.27898603677749634,1.0105161666870117,1.2817926406860352,-1.7305439710617065
292,194180,194182,-0.19149945676326752,-0.24836711585521698,1.0085299015045166,11.774063110351562,-22.392719268798828,13.703964233398438,-0.5849707126617432,-0.8489575386047363,-0.29098543524742126,1.133036494255066,1.3700200319290161,-1.6447010040283203
293,194190,194192,-0.6672443747520447,-0.303204745054245,1.0085736513137817,-8.75521183013916,-7.88286828994751,14.141485214233398,-0.562471866607666,-0.850457489490509,-0.2834858298301697,1.3947378396987915,1.354331612586975,-1.4761674404144287
294,194200,194202,-0.6170782446861267,-0.18919788300991058,1.0986851453781128,-28.325824737548828,8.101327896118164,16.164207458496094,-0.5684715509414673,-0.850457489490509,-0.2834858298301697,1.4572755098342896,1.0871003866195679,-1.290669322013855
295,194210,194212,-0.3355162739753723,-0.3380863070487976,0.9759505391120911,-44.64580535888672,29.447500228881836,16.828903198242188,-0.5639718174934387,-0.851957380771637,-0.28498575091362,1.2099965810775757,0.7853162884712219,-1.15933096408844
296,194220,194222,-0.5189248323440552,-0.22199028730392456,0.9660947918891907,-48.13098907470703,39.831600189208984,17.453941345214844,-0.5729713439941406,-0.8309584259986877,-0.28798559308052063,0.6882370114326477,0.13149596750736237,-0.9816095232963562
297,194230,194232,-0.5436729192733765,-0.22898684442043304,1.0342060327529907,-47.748016357421875,45.9881477355957,17.820871353149414,-0.5594720244407654,-0.8264586329460144,-0.2744862735271454,0.3748161196708679,-0.19232645630836487,-0.8272245526313782
298,194240,194242,-0.21804417669773102,-0.12253019213676453,1.0858708620071411,-45.309200286865234,36.8691291809082,18.900142669677734,-0.5744712948799133,-0.8264586329460144,-0.277486115694046,-0.12486960738897324,-0.6954777836799622,-0.6487545967102051
299,194250,194252,-0.4146120548248291,-0.465814471244812,1.0740041732788086,-40.045997619628906,27.170833587646484,16.17522621154785,-0.5714713931083679,-0.8294585347175598,-0.27148643136024475,-0.48863399028778076,-1.1474345922470093,-0.47136685252189636
300,194260,194262,-0.8859243392944336,-0.1868513822555542,1.0214518308639526,-28.61394500732422,10.3207426071167,12.686966896057129,-0.5594720244407654,-0.8264586329460144,-0.2744862735271454,-0.4894191026687622,-1.4921953678131104,-0.3076529800891876
301,194270,194272,-0.6263856887817383,-0.08695939928293228,0.9630798697471619,-15.467413902282715,-0.9973741173744202,9.933000564575195,-0.5684715509414673,-0.8234587907791138,-0.277486115694046,-0.5957509875297546,-1.6503252983093262,-0.2123676836490631
302,194280,194282,-0.2199777364730835,-0.12503479421138763,0.9511702060699463,0.48798176646232605,-9.73337173461914,7.5066633224487305,-0.5759711861610413,-0.8279585838317871,-0.28198590874671936,-0.4592249095439911,-1.7119417190551758,-0.12528952956199646
303,194290,194292,-0.4367349147796631,-0.06517580896615982,1.0516213178634644,12.044693946838379,-5.8395795822143555,5.057883262634277,-0.5744712948799133,-0.8174591064453125,-0.26848655939102173,-0.26505810022354126,-1.6115336418151855,-0.0688546821475029
304,194300,194302,-0.272981196641922,-0.02901153638958931,1.0061531066894531,21.80975341796875,-3.153007745742798,4.144307613372803,-0.5744712948799133,-0.8204589486122131,-0.26848655939102173,-0.19148722290992737,-1.3960834741592407,-0.03012138605117798
305,194310,194312,-0.8353186249732971,-0.20832759141921997,1.0252628326416016,21.471853256225586,5.544278144836426,1.4082015752792358,-0.5744712948799133,-0.8234587907791138,-0.2744862735271454,-0.20570051670074463,-1.2116879224777222,0.012224755249917507
306,194320,194322,-0.4192469120025635,-0.0632442831993103,1.0254820585250854,15.491141319274902,2.978732109069824,-1.6870414018630981,-0.5654717087745667,-0.8174591064453125,-0.2654867172241211,-0.2962651550769806,-0.9850563406944275,0.019641581922769547
307,194330,194332,-0.8103327751159668,-0.10912619531154633,1.0205605030059814,1.662056565284729,2.8437938690185547,-7.402712345123291,-0.5684715509414673,-0.8174591064453125,-0.27148643136024475,-0.23297566175460815,-1.0440694093704224,-0.012907586991786957
308,194340,194342,-0.690924346446991,0.07222380489110947,1.0043573379516602,-8.189285278320312,2.0970277786254883,-12.275490760803223,-0.5729713439941406,-0.8129593133926392,-0.26998651027679443,-0.2872285544872284,-1.0860377550125122,-0.09427602589130402
309,194350,194352,-0.49703526496887207,-0.07103748619556427,1.1639407873153687,-18.74648666381836,2.6466753482818604,-14.208463668823242,-0.5669716596603394,-0.8039597868919373,-0.2639867961406708,-0.33969810605049133,-1.2940540313720703,-0.20780783891677856
310,194360,194362,-0.602784276008606,-0.36313697695732117,1.1081198453903198,-11.445825576782227,1.2468247413635254,-16.848207473754883,-0.5729713439941406,-0.8039597868919373,-0.2669866383075714,-0.25840049982070923,-1.5131592750549316,-0.3788840174674988
311,194370,194372,-0.573006808757782,-0.46204882860183716,1.0019779205322266,0.10177787393331528,-2.567918300628662,-15.792561531066895,-0.5759711861610413,-0.8039597868919373,-0.2639867961406708,-0.2799493670463562,-1.5768362283706665,-0.5384485125541687
312,194380,194382,-0.2648090422153473,-0.041774820536375046,1.0098559856414795,10.166769027709961,-2.897261619567871,-14.542125701904297,-0.577471137046814,-0.8264586329460144,-0.28048595786094666,-0.2594355046749115,-1.5366756916046143,-0.6912088394165039
313,194390,194392,-0.1465321034193039,-0.2845350503921509,1.1651240587234497,16.810550689697266,-5.453583717346191,-10.973885536193848,-0.5729713439941406,-0.8069596290588379,-0.27298635244369507,-0.14074143767356873,-1.344366431236267,-0.8460220694541931
314,194400,194402,-0.4303780496120453,-0.9519011974334717,1.0356029272079468,22.552722930908203,0.17634733021259308,-8.359957695007324,-0.5819708704948425,-0.8189590573310852,-0.2579870820045471,-0.028079163283109665,-1.1763986349105835,-0.9673805832862854
315,194410,194412,-0.2583106756210327,-0.7447083592414856,0.9068548083305359,20.445938110351562,5.2781081199646,-6.4547505378723145,-0.5729713439941406,-0.8279585838317871,-0.2669866383075714,-0.06428993493318558,-1.0272964239120483,-1.0274665355682373
316,194420,194422,-0.22526589035987854,-0.20210383832454681,0.9631133675575256,17.632701873779297,8.684948921203613,-5.712573528289795,-0.577471137046814,-0.8174591064453125,-0.277486115694046,-0.18374893069267273,-0.916000247001648,-1.067031979560852
317,194430,194432,-0.5115653872489929,-0.29788339138031006,0.9721432328224182,15.205368041992188,2.418919086456299,-4.603976726531982,-0.5819708704948425,-0.8159592151641846,-0.26998651027679443,-0.1691814512014389,-0.8293867707252502,-1.1407445669174194
318,194440,194442,-0.32780253887176514,-0.4182652235031128,0.7280200123786926,14.335714340209961,0.13169236481189728,-3.6033687591552734,-0.56997150182724,-0.8099594712257385,-0.2759861946105957,-0.17247961461544037,-0.6256071329116821,-1.1972647905349731
319,194450,194452,-0.5047969222068787,-0.2643984258174896,0.8559645414352417,7.040976524353027,-5.097634315490723,-2.0591280460357666,-0.5789710283279419,-0.8159592151641846,-0.28498575091362,-0.04316001385450363,-0.6899961233139038,-1.2566261291503906
320,194460,194462,-0.24164502322673798,-0.3400704562664032,1.0364413261413574,7.213555812835693,-7.2042388916015625,-2.4291837215423584,-0.5744712948799133,-0.8354582190513611,-0.2744862735271454,0.004478407558053732,-0.5358521938323975,-1.2780749797821045
321,194470,194472,-0.2668567895889282,-0.7262486219406128,1.0234086513519287,5.090991497039795,-3.066682815551758,-2.1771092414855957,-0.5654717087745667,-0.8294585347175598,-0.26848655939102173,0.06225491687655449,-0.477679967880249,-1.3001004457473755
322,194480,194482,-0.19793204963207245,-0.1406591683626175,0.9769852161407471,7.373395919799805,2.0303590297698975,-3.7858824729919434,-0.5789710283279419,-0.8429578542709351,-0.28498575091362,0.052838265895843506,-0.364631712436676,-1.324984073638916
323,194490,194492,-0.79645836353302,0.07193482667207718,1.1414008140563965,13.219653129577637,3.463442325592041,-2.0516257286071777,-0.5804709792137146,-0.8264586329460144,-0.28048595786094666,-0.011089480482041836,-0.32995882630348206,-1.3351469039916992
324,194500,194502,-1.07966148853302,-0.18552465736865997,1.0224435329437256,18.423297882080078,5.889853000640869,-4.435873508453369,-0.5804709792137146,-0.8324583768844604,-0.28048595786094666,-0.06003708764910698,-0.12455030530691147,-1.3687866926193237
325,194510,194512,-0.7825396656990051,-0.13526546955108643,1.0165388584136963,23.25391960144043,3.3540942668914795,-5.584453105926514,-0.56997150182724,-0.8399580121040344,-0.28498575091362,-0.12270434200763702,0.08650705963373184,-1.4162867069244385
326,194520,194522,-0.22653286159038544,-0.06784481555223465,1.0668874979019165,23.495725631713867,2.7912514209747314,-7.937565803527832,-0.5684715509414673,-0.844457745552063,-0.2834858298301697,-0.12867902219295502,0.2786218523979187,-1.4813491106033325
327,194530,194532,-0.12207336723804474,-0.5714470744132996,1.0487744808197021,20.774078369140625,-0.7353617548942566,-8.65636920928955,-0.5759711861610413,-0.8459576964378357,-0.27298635244369507,-0.04945208877325058,0.4105032980442047,-1.5778617858886719
328,194540,194542,-0.4468488395214081,-0.3480321168899536,0.998907744884491,18.044157028198242,7.286293983459473,-12.073780059814453,-0.5759711861610413,-0.8549572229385376,-0.2759861946105957,-0.1350313276052475,0.705118715763092,-1.6694427728652954
329,194550,194552,-0.7742242217063904,-0.13450372219085693,1.0280686616897583,15.731307983398438,9.139801025390625,-13.727241516113281,-0.5789710283279419,-0.8429578542709351,-0.28798559308052063,-0.15328921377658844,0.8090839385986328,-1.8038082122802734
330,194560,194562,-1.6751652956008911,-0.4748573303222656,1.0291743278503418,7.954071521759033,9.93535327911377,-14.892461776733398,-0.5669716596603394,-0.8459576964378357,-0.27898603677749634,-0.2652745246887207,0.9241594672203064,-1.93655526638031
331,194570,194572,-0.7264453172683716,-0.628485918045044,0.8266623616218567,3.9620234966278076,9.290066719055176,-16.715044021606445,-0.5879706144332886,-0.8459576964378357,-0.28198590874671936,-0.39307692646980286,0.86601722240448,-2.08031964302063
332,194580,194582,-0.7466011047363281,-0.35068047046661377,0.8302463293075562,0.6684483289718628,20.21539878845215,-19.784048080444336,-0.5759711861610413,-0.8459576964378357,-0.2939853072166443,-0.6459862589836121,0.8724203705787659,-2.2384157180786133
333,194590,194592,-0.6641852259635925,-0.2426697313785553,1.0129789113998413,1.6172547340393066,20.49159049987793,-22.467653274536133,-0.5759711861610413,-0.8339582681655884,-0.28198590874671936,-0.7961360216140747,1.0028265714645386,-2.4549484252929688
334,194600,194602,-0.14840273559093475,-0.08433662354946136,1.0293279886245728,5.411956787109375,23.744138717651367,-23.651779174804688,-0.5654717087745667,-0.8594570159912109,-0.28948551416397095,-0.8485149145126343,1.073488712310791,-2.7012267112731934
335,194610,194612,-0.1447729617357254,-0.28045064210891724,1.0270508527755737,7.374970436096191,19.004764556884766,-22.554723739624023,-0.5819708704948425,-0.8729563355445862,-0.2969851493835449,-1.133513331413269,1.141273856163025,-2.9243216514587402
336,194620,194622,-0.24937783181667328,-0.696103572845459,0.9724435210227966,2.881059408187866,14.544608116149902,-21.32959747314453,-0.5879706144332886,-0.8729563355445862,-0.28798559308052063,-1.2597476243972778,1.1787785291671753,-3.1469452381134033
337,194630,194632,-0.6534069180488586,-0.832556962966919,1.286524772644043,-1.2592971324920654,2.712179183959961,-18.332094192504883,-0.5744712948799133,-0.8684565424919128,-0.2864856719970703,-1.465086817741394,1.2199499607086182,-3.342668294906616
338,194640,194642,-1.0061832666397095,-0.5471469759941101,0.9978004693984985,5.303478717803955,-1.7456672191619873,-17.388612747192383,-0.5759711861610413,-0.8699564933776855,-0.28198590874671936,-1.4028704166412354,1.184985637664795,-3.5322072505950928
339,194650,194652,-1.0686393976211548,-0.5463575124740601,1.065618872642517,4.290393352508545,-3.5855789184570312,-15.365825653076172,-0.5669716596603394,-0.8639568090438843,-0.2939853072166443,-1.3435732126235962,1.252990484237671,-3.6999223232269287
340,194660,194662,-0.9188201427459717,-0.21237142384052277,1.3374760150909424,-0.4239487051963806,-14.667424201965332,-11.432265281677246,-0.5804709792137146,-0.8714563846588135,-0.2834858298301697,-1.2567580938339233,1.306564450263977,-3.8367044925689697
341,194670,194672,-0.531647801399231,-0.05262922868132591,1.117092490196228,0.4657726287841797,-22.59160804748535,-7.642427444458008,-0.577471137046814,-0.8774561285972595,-0.3014849126338959,-1.0261198282241821,1.1746362447738647,-3.959162950515747
342,194680,194682,-0.8746682405471802,-0.5275248289108276,0.9897185564041138,0.34515032172203064,-19.677690505981445,-5.819331169128418,-0.5714713931083679,-0.8564571738243103,-0.2864856719970703,-0.7256227135658264,1.1940791606903076,-4.030301570892334
343,194690,194692,-0.6366327404975891,-0.3922271132469177,1.0719259977340698,0.11067679524421692,-24.121803283691406,-1.3301963806152344,-0.5654717087745667,-0.8594570159912109,-0.2864856719970703,-0.5597091913223267,1.2188938856124878,-4.073945999145508
344,194700,194702,-0.09787707030773163,-0.2248307764530182,0.8420335650444031,0.9074714779853821,-24.70347785949707,2.14782977104187,-0.56997150182724,-0.8669566512107849,-0.3029848337173462,-0.27302315831184387,1.2458195686340332,-4.079505920410156
345,194710,194712,-0.38541820645332336,-0.1362641602754593,0.960844874382019,-5.508009433746338,-11.827665328979492,4.278076648712158,-0.5879706144332886,-0.8639568090438843,-0.2939853072166443,-0.052336350083351135,1.2458548545837402,-4.055833339691162
346,194720,194722,-0.6710714101791382,-0.20653028786182404,0.966902494430542,-11.296087265014648,-6.124105930328369,5.401843547821045,-0.5849707126617432,-0.8489575386047363,-0.28198590874671936,-0.003362443530932069,1.124138355255127,-4.016589641571045
347,194730,194732,-0.2415233552455902,-0.251356840133667,1.0509896278381348,-14.80079174041748,3.3303816318511963,5.589267730712891,-0.5744712948799133,-0.8414579033851624,-0.28048595786094666,-0.003705341601744294,1.0669301748275757,-3.956557273864746
348,194740,194742,-0.14038631319999695,-0.04164182394742966,1.0449479818344116,-12.82245922088623,6.981075763702393,6.280760288238525,-0.5744712948799133,-0.850457489490509,-0.2834858298301697,-0.1364467591047287,0.836095929145813,-3.910677433013916
349,194750,194752,-0.9162799119949341,-0.08338714390993118,1.1001430749893188,-6.90141487121582,9.368245124816895,4.483212471008301,-0.5759711861610413,-0.8399580121040344,-0.28498575091362,-0.1617080122232437,0.9398592710494995,-3.8311262130737305
350,194760,194762,-0.7912429571151733,-0.05888012796640396,1.1134229898452759,1.5896700620651245,17.485658645629883,1.1194367408752441,-0.5729713439941406,-0.8609569072723389,-0.27898603677749634,-0.4051501452922821,0.8492791652679443,-3.810333013534546
351,194770,194772,-0.281136691570282,-0.19099083542823792,1.0796067714691162,5.762888431549072,26.83793830871582,1.9630353450775146,-0.5714713931083679,-0.8534573316574097,-0.2834858298301697,-0.6161500811576843,0.9689778685569763,-3.7870988845825195
352,194780,194782,-0.43620216846466064,0.1039358600974083,1.133015751838684,4.998356819152832,34.47737503051758,1.7228449583053589,-0.5939702987670898,-0.8609569072723389,-0.2939853072166443,-1.1164228916168213,1.064099907875061,-3.7826948165893555
353,194790,194792,-0.9359129667282104,0.15149159729480743,1.207353115081787,-1.321820855140686,41.594261169433594,0.07731422036886215,-0.5939702987670898,-0.8609569072723389,-0.2939853072166443,-1.511355996131897,1.0945407152175903,-3.7643282413482666
354,194800,194802,-0.44339829683303833,-0.4829295575618744,1.0568872690200806,-6.424001693725586,40.55885314941406,-0.407852441072464,-0.5939702987670898,-0.8609569072723389,-0.2939853072166443,-1.7592027187347412,1.026811122894287,-3.740018844604492
355,194810,194812,-0.41732993721961975,-0.7276021838188171,0.9408335089683533,-7.492748260498047,29.61251449584961,-1.0968399047851562,-0.5879706144332886,-0.8549572229385376,-0.28498575091362,-2.177673578262329,0.8907372951507568,-3.7562222480773926
356,194820,194822,-0.9094393253326416,-0.4437602758407593,0.8972948789596558,-9.726799011230469,25.441852569580078,-2.3145968914031982,-0.5954701900482178,-0.8564571738243103,-0.2834858298301697,-2.334127426147461,0.815025269985199,-3.752068519592285
357,194830,194832,-0.9248098134994507,-0.6295415759086609,1.0667600631713867,-8.60952091217041,11.964021682739258,-0.2966771423816681,-0.5864706635475159,-0.844457745552063,-0.277486115694046,-2.573219060897827,0.717551589012146,-3.7678890228271484
358,194840,194842,-0.8799269199371338,-0.25988906621932983,1.089097023010254,-3.080789566040039,-6.7231221199035645,-1.464180827140808,-0.5984700918197632,-0.8384580612182617,-0.28048595786094666,-2.3435184955596924,0.5933050513267517,-3.7573957443237305
359,194850,194852,-0.45416510105133057,-0.2664540112018585,0.9534599781036377,1.5460644960403442,-22.230186462402344,0.8866122961044312,-0.5984700918197632,-0.850457489490509,-0.2864856719970703,-2.1888647079467773,0.5457435846328735,-3.770292282104492
360,194860,194862,-0.4506599009037018,-0.5856292843818665,1.1069644689559937,0.9271933436393738,-36.54380416870117,1.169437289237976,-0.5729713439941406,-0.8579570651054382,-0.2939853072166443,-1.8365329504013062,0.633358895778656,-3.7441396713256836
361,194870,194872,-0.8188018798828125,-0.15085092186927795,1.0808383226394653,1.4371740818023682,-35.06325149536133,0.7811219692230225,-0.5804709792137146,-0.844457745552063,-0.2924853563308716,-1.4318697452545166,0.7216911315917969,-3.7158968448638916
362,194880,194882,-0.5431244969367981,-0.16192442178726196,0.8903102278709412,4.153169631958008,-29.484432220458984,0.4940260648727417,-0.5744712948799133,-0.8684565424919128,-0.3014849126338959,-1.0332995653152466,0.7347472310066223,-3.7097702026367188
363,194890,194892,-0.9348517656326294,-0.052177801728248596,1.1632832288742065,-4.378787040710449,-14.902920722961426,1.5324487686157227,-0.5894705057144165,-0.8564571738243103,-0.2834858298301697,-0.9631511569023132,0.7780259847640991,-3.707458019256592
364,194900,194902,-1.4745452404022217,-0.4533693194389343,1.0721633434295654,-4.051447868347168,-6.05074405670166,0.7110829949378967,-0.5684715509414673,-0.8534573316574097,-0.28948551416397095,-1.0080630779266357,0.7504765391349792,-3.7097294330596924
365,194910,194912,-1.221243977546692,-0.9879031777381897,1.2511699199676514,-7.459997177124023,-4.202960968017578,3.924213409423828,-0.577471137046814,-0.8594570159912109,-0.2834858298301697,-0.8579995632171631,0.640232264995575,-3.6941328048706055
366,194920,194922,-0.44198882579803467,-0.518255889415741,0.8910660743713379,-1.3418221473693848,-0.9305949211120605,7.798652172088623,-0.5894705057144165,-0.844457745552063,-0.2744862735271454,-0.8407869338989258,0.5944200158119202,-3.645282030105591
367,194930,194932,-0.3813835680484772,-0.2862986624240875,0.9981048703193665,-4.832204341888428,5.201138496398926,12.530661582946777,-0.577471137046814,-0.8534573316574097,-0.2864856719970703,-0.8755877017974854,0.5799860954284668,-3.5482330322265625
368,194940,194942,-0.6776873469352722,-0.8233056664466858,1.0164262056350708,-3.2028043270111084,0.9384341835975647,16.210575103759766,-0.5954701900482178,-0.8564571738243103,-0.3044847846031189,-0.9406809210777283,0.485598623752594,-3.4240379333496094
369,194950,194952,-0.4033398926258087,-0.7094316482543945,1.064746618270874,-3.2600784301757812,-2.1954123973846436,18.528728485107422,-0.5924703478813171,-0.8414579033851624,-0.2864856719970703,-0.951836347579956,0.4712471663951874,-3.2497036457061768
370,194960,194962,-0.13568927347660065,-0.24532575905323029,1.0333150625228882,-11.51218318939209,-7.55115270614624,22.38483428955078,-0.5954701900482178,-0.8354582190513611,-0.28048595786094666,-0.8152673244476318,0.4250844717025757,-3.0429580211639404
371,194970,194972,-0.6825507283210754,-0.05951324477791786,0.957263708114624,-13.148173332214355,0.8613688349723816,22.74395751953125,-0.577471137046814,-0.8384580612182617,-0.27148643136024475,-0.757219672203064,0.4119454324245453,-2.7992944717407227
372,194980,194982,-0.6133277416229248,-0.38086727261543274,0.9688572883605957,-18.814128875732422,6.037850856781006,24.19136619567871,-0.5864706635475159,-0.8474575877189636,-0.2864856719970703,-0.7301969528198242,0.12476213276386261,-2.586121082305908
373,194990,194992,-0.29135820269584656,-0.12671031057834625,0.9705097675323486,-21.8560848236084,9.785152435302734,22.297481536865234,-0.5804709792137146,-0.8384580612182617,-0.277486115694046,-0.7349111437797546,-0.008940444327890873,-2.3383681774139404
374,195000,195002,-0.34263235330581665,-0.2970004379749298,1.0332372188568115,-27.792692184448242,10.256141662597656,20.683420181274414,-0.5909704566001892,-0.836958110332489,-0.2939853072166443,-0.911992073059082,-0.2786259055137634,-2.1287992000579834
375,195010,195012,-0.09541525691747665,-0.3734537959098816,0.8834079504013062,-29.672008514404297,10.317440032958984,18.132240295410156,-0.5669716596603394,-0.8339582681655884,-0.28198590874671936,-0.9574978947639465,-0.4012323021888733,-1.907177448272705
376,195020,195022,-0.7290787696838379,-0.8803343176841736,1.0291924476623535,-30.19434928894043,12.878754615783691,15.561189651489258,-0.5729713439941406,-0.8399580121040344,-0.2759861946105957,-1.1741043329238892,-0.9410019516944885,-1.7690367698669434
377,195030,195032,-0.21300123631954193,-0.7441595196723938,0.9016351699829102,-20.9951171875,5.569102764129639,13.37069320678711,-0.5804709792137146,-0.8324583768844604,-0.2744862735271454,-1.2241257429122925,-1.1294509172439575,-1.607979655265808
378,195040,195042,-0.21233022212982178,-0.0944972112774849,0.8908392190933228,-8.58797550201416,1.8925701379776,10.224677085876465,-0.5744712948799133,-0.8144592642784119,-0.28048595786094666,-1.3231717348098755,-1.2406326532363892,-1.4750605821609497
379,195050,195052,-0.2339848130941391,0.007558279205113649,0.9523428082466125,7.171480178833008,-6.642674922943115,8.248058319091797,-0.56997150182724,-0.8249587416648865,-0.2759861946105957,-1.2356411218643188,-1.2729815244674683,-1.380327820777893
380,195060,195062,-0.24499264359474182,-0.248922199010849,0.9424728155136108,18.99627113342285,-19.54806900024414,4.217942714691162,-0.5879706144332886,-0.8129593133926392,-0.28498575091362,-1.0752758979797363,-1.0637826919555664,-1.298181176185608
381,195070,195072,-0.65085369348526,-0.878541111946106,0.9724786281585693,26.619495391845703,-23.067527770996094,1.8040385246276855,-0.5804709792137146,-0.8354582190513611,-0.28948551416397095,-0.7493760585784912,-0.7614274621009827,-1.258087396621704
382,195080,195082,-0.865900456905365,-0.5510064959526062,1.0230002403259277,29.599576950073242,-18.687185287475586,-1.5183254480361938,-0.5714713931083679,-0.8354582190513611,-0.2924853563308716,-0.5483430027961731,-0.41402724385261536,-1.238813877105713
383,195090,195092,-0.4985401928424835,-0.47081995010375977,0.9569723010063171,26.578712463378906,-10.018834114074707,0.5698034167289734,-0.5744712948799133,-0.850457489490509,-0.2864856719970703,-0.29479238390922546,-0.1906823366880417,-1.2731211185455322
384,195100,195102,-0.1560308039188385,-0.179351806640625,0.8718525171279907,20.75419044494629,2.0233821868896484,2.6952755451202393,-0.5834708213806152,-0.8474575877189636,-0.2924853563308716,-0.35270917415618896,0.04096618667244911,-1.2459901571273804
385,195110,195112,-0.2859223186969757,-0.28112733364105225,0.9270990490913391,11.738412857055664,14.406455993652344,4.774683475494385,-0.5849707126617432,-0.851957380771637,-0.29998499155044556,-0.46495625376701355,0.15049922466278076,-1.2110246419906616
386,195120,195122,-0.20868924260139465,-0.27623099088668823,0.9971452951431274,4.318209171295166,21.99549674987793,8.00815200805664,-0.56997150182724,-0.8459576964378357,-0.28498575091362,-0.7620540261268616,0.20380531251430511,-1.1375335454940796
387,195130,195132,-0.20971299707889557,-0.3283960819244385,1.0006663799285889,-3.0288422107696533,16.419729232788086,11.160661697387695,-0.5714713931083679,-0.8564571738243103,-0.2864856719970703,-0.8979821801185608,0.20967280864715576,-1.057996392250061
388,195140,195142,-0.4046461582183838,-0.1448664367198944,1.0364998579025269,-11.271095275878906,10.361205101013184,10.607553482055664,-0.5609719157218933,-0.8549572229385376,-0.28198590874671936,-1.02181077003479,0.10761294513940811,-0.9602683186531067
389,195150,195152,-0.4155173897743225,-0.07297386229038239,1.030550241470337,-17.555635452270508,-0.6841151714324951,14.512210845947266,-0.5804709792137146,-0.8654567003250122,-0.29848507046699524,-1.1292732954025269,-0.1459321826696396,-0.8393530249595642
390,195160,195162,-0.17129379510879517,0.04334348440170288,1.0496330261230469,-18.08937644958496,-1.044503927230835,14.800711631774902,-0.5504724383354187,-0.850457489490509,-0.2924853563308716,-1.1338722705841064,-0.25018972158432007,-0.6850326657295227
391,195170,195172,-0.13949958980083466,-0.012120968662202358,1.1387219429016113,-15.934228897094727,-1.9463515281677246,16.60370445251465,-0.56997150182724,-0.8579570651054382,-0.2969851493835449,-0.977060854434967,-0.5617770552635193,-0.5554612874984741
392,195180,195182,0.002125354018062353,-0.10141760855913162,1.1156911849975586,-12.002557754516602,-6.730068683624268,15.659838676452637,-0.5759711861610413,-0.851957380771637,-0.27898603677749634,-0.94236820936203,-0.6636154055595398,-0.38932865858078003
393,195190,195192,-0.1299707591533661,-0.31665730476379395,1.1452968120574951,-11.942756652832031,-12.091164588928223,14.592057228088379,-0.56997150182724,-0.8639568090438843,-0.28798559308052063,-0.8332476019859314,-0.806637704372406,-0.23754025995731354
394,195200,195202,-0.15489044785499573,-0.24962735176086426,1.030210256576538,-1.720445156097412,-18.08536720275879,10.14039134979248,-0.5669716596603394,-0.8429578542709351,-0.2969851493835449,-0.6755383610725403,-0.8953871726989746,-0.1039598286151886
395,195210,195212,-0.8839572072029114,-0.19394174218177795,1.0170296430587769,9.855123519897461,-16.05351448059082,5.1627278327941895,-0.554972231388092,-0.8459576964378357,-0.28498575091362,-0.5439459085464478,-0.8166751265525818,-0.0034121419303119183
396,195220,195222,-0.33205896615982056,-0.16265203058719635,0.962596595287323,22.54389190673828,-23.154644012451172,-0.5107554793357849,-0.5654717087745667,-0.8474575877189636,-0.28048595786094666,-0.3297479748725891,-0.6637733578681946,0.02734251506626606
397,195230,195232,-0.054185960441827774,-0.024647338315844536,1.038968801498413,25.30186653137207,-27.446033477783203,-5.25892972946167,-0.5639718174934387,-0.8459576964378357,-0.28498575091362,-0.15650780498981476,-0.3609355688095093,0.024764085188508034
398,195240,195242,-0.13799330592155457,-0.002826905343681574,0.967377245426178,24.23453712463379,-29.68836784362793,-11.085583686828613,-0.5669716596603394,-0.8279585838317871,-0.2759861946105957,0.3012544810771942,-0.0408434197306633,-0.07457942515611649
399,195250,195252,-0.23594015836715698,-0.22734597325325012,1.013216495513916,18.290729522705078,-22.166473388671875,-12.684536933898926,-0.5579720735549927,-0.836958110332489,-0.2939853072166443,0.6710079908370972,0.16681426763534546,-0.20868772268295288
400,195260,195262,-0.8000979423522949,-0.5573800802230835,1.0218863487243652,12.021806716918945,-4.597420692443848,-14.728012084960938,-0.5519723892211914,-0.8309584259986877,-0.28798559308052063,0.8461137413978577,0.2736552357673645,-0.3474430739879608
401,195270,195272,-0.49914973974227905,-0.40097740292549133,1.0000545978546143,2.963714838027954,9.54805850982666,-13.54759407043457,-0.577471137046814,-0.8384580612182617,-0.28048595786094666,0.7095592617988586,0.42580267786979675,-0.4673045575618744
402,195280,195282,-0.1253301203250885,-0.19731852412223816,0.9881907105445862,-9.055508613586426,30.481393814086914,-13.688078880310059,-0.5744712948799133,-0.8324583768844604,-0.28048595786094666,0.5480101108551025,0.24921782314777374,-0.5992425680160522
403,195290,195292,-0.053936462849378586,-0.1320878267288208,1.018987774848938,-17.80352020263672,40.79926681518555,-12.031667709350586,-0.5714713931083679,-0.8264586329460144,-0.2744862735271454,-0.016536643728613853,0.05277010798454285,-0.6967524886131287
404,195300,195302,-0.1653619259595871,-0.33882585167884827,1.023133397102356,-22.59897232055664,39.3135986328125,-11.32100772857666,-0.56997150182724,-0.8309584259986877,-0.26998651027679443,-0.5984517931938171,-0.185830220580101,-0.7876694202423096
405,195310,195312,-0.24146141111850739,-0.16692647337913513,0.9652710556983948,-16.515169143676758,29.46040916442871,-10.833778381347656,-0.5789710283279419,-0.8159592151641846,-0.27298635244369507,-0.700527548789978,-0.3218402862548828,-0.9397194385528564
406,195320,195322,-0.251414030790329,-0.38766810297966003,0.8965420126914978,-16.435043334960938,20.80890464782715,-9.929035186767578,-0.5939702987670898,-0.8219588994979858,-0.2759861946105957,-1.0926324129104614,-0.5377708077430725,-1.0326439142227173
407,195330,195332,-0.22730723023414612,-0.3080410957336426,1.032960057258606,-8.51830768585205,1.2495547533035278,-9.006866455078125,-0.5864706635475159,-0.8204589486122131,-0.26848655939102173,-1.1845797300338745,-0.6942369937896729,-1.1321603059768677
408,195340,195342,-0.1706511229276657,0.0035618110559880733,0.8662278056144714,0.589957594871521,-9.451241493225098,-7.872872829437256,-0.56997150182724,-0.8219588994979858,-0.2669866383075714,-1.044321894645691,-0.5929430723190308,-1.2406047582626343
409,195350,195352,-0.4248373806476593,-0.5816345810890198,0.9647529125213623,13.091291427612305,-28.43754768371582,-1.821143627166748,-0.5894705057144165,-0.8264586329460144,-0.27148643136024475,-0.8584398627281189,-0.5296607613563538,-1.2926247119903564
410,195360,195362,-0.7290988564491272,-0.29385873675346375,0.9673921465873718,16.606712341308594,-33.23558807373047,0.028321506455540657,-0.5804709792137146,-0.8234587907791138,-0.277486115694046,-0.368719220161438,-0.3829025328159332,-1.322489619255066
411,195370,195372,-0.6806273460388184,-0.39643394947052,1.1690771579742432,15.339027404785156,-35.571964263916016,0.9853271842002869,-0.5804709792137146,-0.8234587907791138,-0.2744862735271454,0.18965239822864532,-0.19194959104061127,-1.3423092365264893
412,195380,195382,-0.40307021141052246,-0.1459410935640335,1.0230575799942017,15.504976272583008,-20.874433517456055,0.6726664304733276,-0.5729713439941406,-0.8279585838317871,-0.2759861946105957,0.22718122601509094,-0.008876601234078407,-1.3062524795532227
413,195390,195392,-0.742636501789093,-0.5634341835975647,1.074637532234192,12.150473594665527,-6.005558013916016,0.7622464895248413,-0.5729713439941406,-0.8279585838317871,-0.27298635244369507,0.47662076354026794,0.230543315410614,-1.3168928623199463
414,195400,195402,-1.0330791473388672,-0.4251365661621094,0.9816933274269104,2.616307020187378,9.547738075256348,0.36715149879455566,-0.5939702987670898,-0.8279585838317871,-0.2759861946105957,0.46695685386657715,0.37753885984420776,-1.3087334632873535
415,195410,195412,-0.8786695003509521,-0.006863302085548639,1.1068402528762817,-8.144967079162598,29.728515625,0.20675358176231384,-0.5729713439941406,-0.8159592151641846,-0.26998651027679443,0.11384982615709305,0.27627822756767273,-1.2778836488723755
416,195420,195422,-1.1954511404037476,-0.4374723732471466,0.9930639863014221,-18.656269073486328,46.81832504272461,0.25442102551460266,-0.5849707126617432,-0.8099594712257385,-0.26998651027679443,-0.2440439760684967,0.07132767140865326,-1.2682580947875977
417,195430,195432,-0.9854079484939575,-1.0147719383239746,0.9893026947975159,-24.60999298095703,51.77870559692383,0.763305127620697,-0.5879706144332886,-0.8159592151641846,-0.2759861946105957,-0.822216808795929,-0.20091848075389862,-1.25426185131073
418,195440,195442,-1.11232590675354,-0.7262626886367798,0.9751369953155518,-30.753156661987305,55.607582092285156,1.3489800691604614,-0.6044697761535645,-0.8114594221115112,-0.26848655939102173,-1.504593849182129,-0.6514149904251099,-1.2278335094451904
419,195450,195452,-0.27763310074806213,-0.5986981987953186,0.9782266616821289,-20.931175231933594,51.31040573120117,-0.2777622640132904,-0.5999699831008911,-0.8069596290588379,-0.2669866383075714,-1.6378111839294434,-0.8958868384361267,-1.2618467807769775
420,195460,195462,0.0122096361592412,-0.6064839959144592,0.9846735000610352,-11.828805923461914,39.79770278930664,-1.0736390352249146,-0.5939702987670898,-0.8009599447250366,-0.2669866383075714,-2.3456597328186035,-1.0742512941360474,-1.2544068098068237
421,195470,195472,-0.3526768684387207,-0.7612245678901672,0.9268671274185181,0.36529263854026794,17.38767433166504,0.15208318829536438,-0.6104694604873657,-0.8174591064453125,-0.2594870328903198,-2.6068363189697266,-1.0030944347381592,-1.2733436822891235
422,195480,195482,-0.21467672288417816,-0.32965490221977234,0.9289847016334534,12.507108688354492,-2.9205167293548584,3.435131072998047,-0.6089695692062378,-0.8099594712257385,-0.2669866383075714,-2.6342222690582275,-0.9234064221382141,-1.2683415412902832
423,195490,195492,-0.7467460036277771,-0.1381542682647705,0.9419030547142029,14.208157539367676,-21.784534454345703,7.8595290184021,-0.6104694604873657,-0.8114594221115112,-0.27148643136024475,-2.5113677978515625,-0.7070198655128479,-1.2151936292648315
424,195500,195502,-0.40739765763282776,-0.24994853138923645,0.8571768403053284,13.3817720413208,-43.50788497924805,10.68791675567627,-0.6029698252677917,-0.8129593133926392,-0.2669866383075714,-2.181253433227539,-0.4829311668872833,-1.1251057386398315
425,195510,195512,-0.2116258293390274,-0.12189944088459015,0.8997145891189575,5.830249309539795,-48.296409606933594,12.156495094299316,-0.5984700918197632,-0.8114594221115112,-0.26248687505722046,-1.6885404586791992,-0.5123158097267151,-1.034211277961731
426,195520,195522,0.00828103069216013,0.08107217401266098,0.9998917579650879,-1.1397687196731567,-49.15996551513672,13.768518447875977,-0.5819708704948425,-0.8189590573310852,-0.2669866383075714,-0.9955877661705017,-0.4506412446498871,-0.9271973967552185
427,195530,195532,-0.13548746705055237,-0.12108242511749268,0.9947021007537842,-4.93635368347168,-40.42243194580078,13.290910720825195,-0.5819708704948425,-0.8249587416648865,-0.29098543524742126,-0.6731565594673157,-0.49452337622642517,-0.7700911164283752
428,195540,195542,-0.10886034369468689,-0.33200573921203613,0.8937923312187195,-8.559530258178711,-30.517210006713867,10.633129119873047,-0.5759711861610413,-0.8249587416648865,-0.27298635244369507,-0.2009664922952652,-0.5975469946861267,-0.6609148383140564
429,195550,195552,-0.12486616522073746,-0.554641604423523,0.962453305721283,-6.839103698730469,-17.648082733154297,7.569203853607178,-0.5819708704948425,-0.8099594712257385,-0.26998651027679443,-0.06975628435611725,-0.7276972532272339,-0.5523122549057007
430,195560,195562,-0.09735522419214249,-0.2957369387149811,0.9531053900718689,-1.893090844154358,-3.219576120376587,5.494786262512207,-0.5639718174934387,-0.8219588994979858,-0.2669866383075714,0.04929741844534874,-0.669387698173523,-0.4707672894001007
431,195570,195572,-0.010272427462041378,-0.06461919844150543,0.9308983087539673,5.699915885925293,6.82175874710083,4.2721734046936035,-0.5879706144332886,-0.8189590573310852,-0.2759861946105957,-0.034245897084474564,-0.7446539402008057,-0.41758307814598083
432,195580,195582,-0.6770157217979431,-0.18341229856014252,0.9586327075958252,11.536255836486816,13.926835060119629,3.4619758129119873,-0.577471137046814,-0.8264586329460144,-0.27148643136024475,-0.2092086374759674,-0.6160721182823181,-0.36450624465942383
433,195590,195592,-0.30350884795188904,-0.1709984838962555,0.9369288086891174,18.935340881347656,13.874015808105469,2.8296475410461426,-0.5789710283279419,-0.8189590573310852,-0.28198590874671936,-0.3749188780784607,-0.5406364798545837,-0.3333350718021393
434,195600,195602,-0.464372843503952,-0.218126118183136,0.9336137771606445,19.84825897216797,3.00221586227417,4.377740859985352,-0.5834708213806152,-0.8324583768844604,-0.26248687505722046,-0.5395219922065735,-0.28695955872535706,-0.28577253222465515
435,195610,195612,-0.40471887588500977,-0.43409979343414307,0.9559793472290039,20.804603576660156,-0.7809638977050781,5.752826690673828,-0.5759711861610413,-0.8309584259986877,-0.2759861946105957,-0.5658040642738342,-0.07045231759548187,-0.23868802189826965
436,195620,195622,-0.23834936320781708,-0.10571055114269257,0.9298970699310303,16.81987953186035,-8.793468475341797,6.5120344161987305,-0.5759711861610413,-0.8309584259986877,-0.2759861946105957,-0.5001494288444519,0.058333080261945724,-0.1852618306875229
437,195630,195632,-0.32239460945129395,-0.07783301174640656,0.9646350741386414,11.847686767578125,-16.386165618896484,7.9861955642700195,-0.5759711861610413,-0.8309584259986877,-0.2759861946105957,-0.3213457763195038,0.31030136346817017,-0.11974852532148361
438,195640,195642,-1.1718517541885376,-0.23285187780857086,0.9439690113067627,10.984999656677246,-20.502655029296875,9.242201805114746,-0.577471137046814,-0.8324583768844604,-0.27148643136024475,-0.03492103889584541,0.363722562789917,-0.05224265158176422
439,195650,195652,-1.572721242904663,-0.17744053900241852,1.0100278854370117,12.040639877319336,-17.625621795654297,11.7807035446167,-0.5729713439941406,-0.8309584259986877,-0.2759861946105957,0.1311119794845581,0.47454333305358887,0.0571451410651207
440,195660,195662,-1.4640552997589111,-0.7216541171073914,0.9784029722213745,10.168089866638184,-8.031789779663086,11.997103691101074,-0.5804709792137146,-0.8384580612182617,-0.2834858298301697,0.2384929358959198,0.6566635966300964,0.17905369400978088
441,195670,195672,-0.4924205541610718,-0.5873252749443054,1.0005546808242798,5.731149673461914,0.5752631425857544,13.624184608459473,-0.562471866607666,-0.8384580612182617,-0.277486115694046,0.1592904031276703,0.5220493078231812,0.31967368721961975
442,195680,195682,-0.3181008994579315,-0.7612382173538208,0.999279260635376,3.225250720977783,7.596287250518799,13.970610618591309,-0.5714713931083679,-0.844457745552063,-0.2864856719970703,0.06318564713001251,0.5515114665031433,0.46096694469451904
443,195690,195692,-0.19497761130332947,-0.48050132393836975,0.9278814196586609,6.1072096824646,8.964936256408691,15.932010650634766,-0.56997150182724,-0.836958110332489,-0.27898603677749634,-0.050018854439258575,0.6447842121124268,0.6074053645133972
444,195700,195702,-0.4098263680934906,-0.5247861742973328,0.9494662880897522,4.916650772094727,7.46268367767334,16.879438400268555,-0.5579720735549927,-0.8309584259986877,-0.26998651027679443,-0.1741853952407837,0.6941103339195251,0.7730980515480042
445,195710,195712,-0.6586901545524597,-0.25414204597473145,0.9731557369232178,-0.5978928208351135,-3.8605501651763916,16.233312606811523,-0.5714713931083679,-0.8474575877189636,-0.2654867172241211,-0.2217630296945572,0.6937772631645203,0.9411203861236572
446,195720,195722,-0.28892946243286133,-0.20164449512958527,0.9601722359657288,-7.775413990020752,-14.126816749572754,13.952288627624512,-0.5714713931083679,-0.8414579033851624,-0.2744862735271454,-0.09571076929569244,0.6655380725860596,1.09686279296875
447,195730,195732,-0.1952097862958908,-0.7560450434684753,1.0127787590026855,-14.913749694824219,-20.34998893737793,10.256821632385254,-0.5594720244407654,-0.8324583768844604,-0.2834858298301697,0.11517494916915894,0.4342552721500397,1.2324528694152832
448,195740,195742,-0.48161688446998596,-0.4258800148963928,0.9371779561042786,-16.890094757080078,-24.376995086669922,8.22081184387207,-0.5594720244407654,-0.8414579033851624,-0.28948551416397095,0.4809448719024658,0.20273855328559875,1.3336493968963623
449,195750,195752,-0.3162323534488678,-0.3208716809749603,0.9576778411865234,-15.980298042297363,-28.716115951538086,5.776756763458252,-0.5519723892211914,-0.851957380771637,-0.28798559308052063,0.6914528012275696,0.03218965604901314,1.407020092010498
450,195760,195762,-0.1008526161313057,0.05773475766181946,0.9483149647712708,-13.725314140319824,-26.385610580444336,3.7166788578033447,-0.5489725470542908,-0.8669566512107849,-0.27898603677749634,1.1482042074203491,0.019775163382291794,1.4492028951644897
451,195770,195772,-0.24162909388542175,-0.02467839978635311,0.9892889261245728,-7.517305850982666,-24.76858901977539,3.409456491470337,-0.5534723401069641,-0.8564571738243103,-0.28948551416397095,1.1805262565612793,-0.16261862218379974,1.4861584901809692
452,195780,195782,-0.14700432121753693,-0.041531436145305634,1.058666706085205,0.1548968106508255,-9.003317832946777,3.9444878101348877,-0.5429728627204895,-0.8549572229385376,-0.28798559308052063,1.4520097970962524,0.04851684719324112,1.4847173690795898
453,195790,195792,-0.1420159935951233,-0.08395030349493027,1.036473035812378,5.953332901000977,6.862323760986328,3.4970669746398926,-0.5459727048873901,-0.851957380771637,-0.3029848337173462,1.3305919170379639,-0.056862253695726395,1.5396455526351929
454,195800,195802,-0.0559721440076828,-0.016296079382300377,0.9951789975166321,9.711662292480469,21.15636444091797,2.3261923789978027,-0.5684715509414673,-0.844457745552063,-0.2954852283000946,1.1596550941467285,-0.007605057675391436,1.5765496492385864
455,195810,195812,-0.13697263598442078,0.044284917414188385,1.078576922416687,10.712616920471191,31.714191436767578,1.311933159828186,-0.554972231388092,-0.8459576964378357,-0.2759861946105957,0.8452655076980591,0.17508457601070404,1.5772101879119873
456,195820,195822,-0.7233850359916687,0.019478226080536842,1.0564024448394775,9.816641807556152,31.83531379699707,0.728456437587738,-0.5684715509414673,-0.8654567003250122,-0.28048595786094666,0.48285582661628723,0.2900039255619049,1.5882881879806519
457,195830,195832,-0.9196375012397766,0.0027508854400366545,1.0309244394302368,6.71364688873291,29.3492488861084,0.472617506980896,-0.554972231388092,-0.8549572229385376,-0.28198590874671936,0.137259840965271,0.36308783292770386,1.5976938009262085
458,195840,195842,-0.5751423239707947,-0.052064090967178345,1.097829818725586,5.938377380371094,21.889995574951172,1.1618019342422485,-0.5639718174934387,-0.8549572229385376,-0.28498575091362,-0.06705379486083984,0.3328135907649994,1.6300157308578491
459,195850,195852,-0.24699993431568146,-0.26700690388679504,1.0563793182373047,4.768487453460693,11.998469352722168,-1.434130072593689,-0.5684715509414673,-0.8384580612182617,-0.2744862735271454,-0.16995228826999664,0.4333058297634125,1.6233397722244263
460,195860,195862,-0.41675737500190735,-0.16381485760211945,1.0464982986450195,2.0181658267974854,0.8636354207992554,-1.5460419654846191,-0.5594720244407654,-0.8534573316574097,-0.2834858298301697,-0.22201134264469147,0.5128567814826965,1.6023750305175781
461,195870,195872,-0.980198085308075,-0.3448511064052582,1.0566670894622803,-7.086472988128662,-6.888584136962891,-3.522216558456421,-0.562471866607666,-0.8654567003250122,-0.2924853563308716,-0.18550145626068115,0.49941250681877136,1.5813783407211304
462,195880,195882,-0.3341130316257477,-0.21841192245483398,1.0267115831375122,-8.96143627166748,-15.890689849853516,-5.256796360015869,-0.5609719157218933,-0.8609569072723389,-0.2759861946105957,-0.018270432949066162,0.3645707666873932,1.5510152578353882
463,195890,195892,-0.35269442200660706,-0.7109867930412292,1.0182019472122192,-5.077935695648193,-22.414243698120117,-6.703948974609375,-0.5474725961685181,-0.8534573316574097,-0.2954852283000946,0.2817581295967102,0.24449770152568817,1.5043327808380127
464,195900,195902,-0.3309570252895355,-0.9856979250907898,1.056978702545166,-4.302241325378418,-23.32980728149414,-6.125365257263184,-0.5564721822738647,-0.850457489490509,-0.2924853563308716,0.5152189135551453,0.18162348866462708,1.4406323432922363
465,195910,195912,-0.1537885069847107,-0.3702485263347626,1.0304611921310425,-5.347594738006592,-16.179384231567383,-5.725757122039795,-0.5474725961685181,-0.8414579033851624,-0.2924853563308716,0.7165171504020691,0.1170855239033699,1.3831552267074585
466,195920,195922,-0.24917161464691162,0.032812751829624176,1.0337077379226685,-4.579710960388184,-4.277236461639404,-5.211495876312256,-0.5594720244407654,-0.8414579033851624,-0.2834858298301697,0.7749394774436951,0.03774886205792427,1.3289929628372192
467,195930,195932,-1.599233627319336,-0.06620814651250839,1.0766834020614624,2.1545400619506836,8.127714157104492,-4.06233024597168,-0.5534723401069641,-0.8354582190513611,-0.2954852283000946,0.7593792080879211,0.07581353187561035,1.2680542469024658
468,195940,195942,-1.022328495979309,-0.0748283714056015,1.0450305938720703,5.294379711151123,15.332528114318848,-4.008114814758301,-0.5504724383354187,-0.8264586329460144,-0.2864856719970703,0.5799938440322876,0.13507330417633057,1.2189692258834839
469,195950,195952,-0.8859639763832092,-0.044800564646720886,1.1068789958953857,7.562613010406494,20.296361923217773,-3.987600326538086,-0.56997150182724,-0.8399580121040344,-0.27898603677749634,0.3667602241039276,0.17639374732971191,1.1814805269241333
470,195960,195962,-0.2845807373523712,-0.009139481000602245,1.0637720823287964,6.743231773376465,21.400901794433594,-3.0625879764556885,-0.5714713931083679,-0.8474575877189636,-0.277486115694046,0.09840090572834015,0.30200865864753723,1.1279022693634033
471,195970,195972,-0.13185860216617584,-0.06656505167484283,1.0597947835922241,3.4705400466918945,18.317729949951172,-2.5760498046875,-0.577471137046814,-0.8294585347175598,-0.2834858298301697,-0.026164526119828224,0.41345471143722534,1.0968703031539917
472,195980,195982,-0.4419996738433838,-0.15088249742984772,1.0125640630722046,4.608623504638672,10.330716133117676,-3.137143611907959,-0.5744712948799133,-0.8414579033851624,-0.2834858298301697,-0.16739509999752045,0.47394493222236633,1.06703782081604
