,timestamp_start,timestamp_end,acc.x,acc.y,acc.z,gyro.x,gyro.y,gyro.z,mag.x,mag.y,mag.z,stabilizer.pitch,stabilizer.roll,stabilizer.yaw
0,366724,366726,-0.9888618588447571,-0.13401849567890167,1.1823121309280396,-4.669472694396973,5.900646209716797,7.5622968673706055,-0.5669716596603394,-0.8459576964378357,-0.2969851493835449,0.15239743888378143,-0.5784732103347778,-7.302188873291016
1,366734,366736,-0.14397874474525452,-0.32739588618278503,1.033933401107788,-4.522782325744629,10.337677001953125,5.69594669342041,-0.5804709792137146,-0.8324583768844604,-0.2954852283000946,0.011973516084253788,-0.6606874465942383,-7.233095645904541
2,366744,366746,-0.011416876688599586,-0.07917671650648117,1.0575200319290161,-0.25250810384750366,10.590373039245605,2.909349203109741,-0.5924703478813171,-0.844457745552063,-0.29848507046699524,-0.3311644196510315,-0.6814853549003601,-7.175076484680176
3,366754,366756,-0.027056707069277763,-0.01482921838760376,1.0535507202148438,4.9302592277526855,9.314597129821777,2.029510021209717,-0.5924703478813171,-0.844457745552063,-0.29848507046699524,-0.5048934817314148,-0.6178904175758362,-7.145782470703125
4,366764,366766,-0.038227733224630356,0.019798990339040756,1.0275695323944092,6.1107683181762695,3.54290771484375,1.9309139251708984,-0.5924703478813171,-0.844457745552063,-0.29848507046699524,-0.8012532591819763,-0.3949079215526581,-7.099029064178467
5,366774,366776,-0.4096592366695404,-0.20126557350158691,1.1054279804229736,11.163566589355469,-8.977709770202637,1.7136499881744385,-0.5864706635475159,-0.8324583768844604,-0.29848507046699524,-0.6145305037498474,-0.2763390839099884,-7.098536968231201
6,366784,366786,-0.881089448928833,-0.6279180645942688,1.044960379600525,7.116334915161133,-19.238483428955078,1.6417700052261353,-0.577471137046814,-0.8564571738243103,-0.2924853563308716,-0.23562942445278168,-0.16469205915927887,-7.1094160079956055
7,366794,366796,-0.45671534538269043,-0.33051496744155884,1.0389982461929321,4.901217937469482,-24.420087814331055,1.491313099861145,-0.5864706635475159,-0.844457745552063,-0.3014849126338959,0.1510714292526245,-0.2376735508441925,-7.11287260055542
8,366804,366806,-0.1482134461402893,-0.29488426446914673,1.058806300163269,5.288072109222412,-24.249462127685547,0.7545275092124939,-0.5819708704948425,-0.8429578542709351,-0.30898454785346985,0.6098262071609497,-0.037320733070373535,-7.119316577911377
9,366814,366816,-0.25584352016448975,-0.2656589448451996,1.2500889301300049,11.030147552490234,-20.1259765625,0.3977130651473999,-0.56997150182724,-0.836958110332489,-0.2939853072166443,1.6281813383102417,-1.0304656028747559,-7.170886993408203
10,366824,366826,-0.5006940960884094,-0.6805399060249329,1.118481159210205,15.013407707214355,-16.244033813476562,0.9104671478271484,-0.5864706635475159,-0.8414579033851624,-0.28048595786094666,1.8574544191360474,-0.5561330318450928,-7.18632698059082
11,366834,366836,-0.8489466309547424,-0.770907998085022,1.067869782447815,20.816850662231445,-7.241504669189453,1.325395941734314,-0.5789710283279419,-0.8399580121040344,-0.3029848337173462,1.704606294631958,-0.3695240020751953,-7.141944885253906
12,366844,366846,-0.49673256278038025,-0.2497287094593048,1.1429232358932495,26.43014907836914,5.200047492980957,3.4328079223632812,-0.5969701409339905,-0.8219588994979858,-0.2969851493835449,1.9241758584976196,-0.1662619560956955,-7.128124713897705
13,366854,366856,-0.5200933218002319,-0.026976244524121284,1.0424524545669556,30.29476547241211,16.75579833984375,7.379689693450928,-0.5969701409339905,-0.8219588994979858,-0.28498575091362,1.6441365480422974,0.26559776067733765,-7.081948280334473
14,366864,366866,-0.27986711263656616,-0.33591726422309875,0.9349592328071594,23.596721649169922,28.730159759521484,11.51258659362793,-0.5924703478813171,-0.8234587907791138,-0.28948551416397095,1.2055648565292358,0.8084759712219238,-7.017586708068848
15,366874,366876,-0.8741241097450256,-0.30305013060569763,0.9031063914299011,9.968022346496582,32.92852020263672,15.0201416015625,-0.6029698252677917,-0.8219588994979858,-0.28498575091362,0.7439061999320984,1.0930761098861694,-6.889191150665283
16,366884,366886,-1.0330588817596436,-0.592742919921875,0.9211387634277344,-8.263750076293945,31.30208969116211,16.94384002685547,-0.5999699831008911,-0.8099594712257385,-0.2759861946105957,0.19687266647815704,1.4242998361587524,-6.795740127563477
17,366894,366896,-0.7954214811325073,-0.5020122528076172,0.933666467666626,-22.26995277404785,22.58262062072754,20.063249588012695,-0.6104694604873657,-0.80545973777771,-0.2744862735271454,-0.2338677942752838,0.897895097732544,-6.515691757202148
18,366904,366906,-1.1539849042892456,-0.0025153369642794132,0.9154928922653198,-37.45423889160156,12.034252166748047,21.776531219482422,-0.6059696674346924,-0.8219588994979858,-0.28198590874671936,-0.5259875655174255,1.3670791387557983,-6.451827049255371
19,366914,366916,-0.6151140928268433,-0.3247535526752472,1.1333810091018677,-48.80005645751953,-1.6259288787841797,24.611785888671875,-0.6089695692062378,-0.8159592151641846,-0.28498575091362,-0.44350776076316833,0.21801424026489258,-6.095229625701904
20,366924,366926,-0.6782287955284119,-0.22017690539360046,1.0100526809692383,-55.070091247558594,-9.848648071289062,23.397655487060547,-0.5894705057144165,-0.7994599938392639,-0.2834858298301697,-0.26455453038215637,-1.1900601387023926,-5.7347798347473145
21,366934,366936,-1.2414358854293823,-0.6052977442741394,1.0915138721466064,-48.3846549987793,-16.104562759399414,17.299850463867188,-0.6074696183204651,-0.8084595799446106,-0.27148643136024475,0.5600738525390625,-1.3973885774612427,-5.520755767822266
22,366944,366946,-0.8542342185974121,-0.35485509037971497,0.9768181443214417,-25.678930282592773,-24.002166748046875,10.441751480102539,-0.5849707126617432,-0.8099594712257385,-0.2759861946105957,0.9709700345993042,-0.13888593018054962,-5.556102275848389
23,366954,366956,-0.25966572761535645,-0.16728250682353973,0.8715792894363403,11.495002746582031,-23.466690063476562,6.546478271484375,-0.5909704566001892,-0.8099594712257385,-0.28198590874671936,1.1347708702087402,-0.18744683265686035,-5.48117208480835
24,366964,366966,-0.1684885323047638,-0.25320062041282654,1.0229130983352661,42.79814529418945,-19.72442054748535,5.446656227111816,-0.5999699831008911,-0.8099594712257385,-0.2639867961406708,1.0192095041275024,0.3238127529621124,-5.446953773498535
25,366974,366976,-0.20804086327552795,-0.09491290897130966,0.9838787913322449,60.073490142822266,-9.40102481842041,5.1685686111450195,-0.6089695692062378,-0.8039597868919373,-0.27298635244369507,0.9895710945129395,1.047253966331482,-5.420027256011963
26,366984,366986,-0.16300630569458008,-0.08558205515146255,0.8429848551750183,65.69770812988281,2.3379273414611816,3.774273157119751,-0.6029698252677917,-0.8249587416648865,-0.27298635244369507,0.7084749341011047,1.4729794263839722,-5.34954833984375
27,366994,366996,-0.3395831882953644,-0.5555274486541748,0.7928309440612793,55.71022033691406,7.006819725036621,2.200031280517578,-0.6104694604873657,-0.8354582190513611,-0.28048595786094666,0.48839738965034485,2.176586389541626,-5.3352580070495605
28,367004,367006,-0.8258481621742249,-0.8293391466140747,0.8743153810501099,32.568389892578125,9.766788482666016,2.02386736869812,-0.5999699831008911,-0.8279585838317871,-0.27898603677749634,0.2483091652393341,2.4970078468322754,-5.299562454223633
29,367014,367016,-1.1225398778915405,-0.548496663570404,0.9493480920791626,1.253291368484497,6.925990581512451,3.239625930786133,-0.6104694604873657,-0.8174591064453125,-0.2954852283000946,0.050849057734012604,2.6241607666015625,-5.277960777282715
30,367024,367026,-0.34963008761405945,-0.1599942445755005,0.8779173493385315,-31.944665908813477,-2.250269889831543,5.260428428649902,-0.6014699339866638,-0.8204589486122131,-0.28048595786094666,0.1218862533569336,2.250826597213745,-5.203428268432617
31,367034,367036,-0.7674641609191895,-0.05783436819911003,0.9046440720558167,-60.98702621459961,-4.4498677253723145,6.976171970367432,-0.577471137046814,-0.8144592642784119,-0.2834858298301697,-0.31973862648010254,1.732555866241455,-5.209834098815918
32,367044,367046,-1.116991400718689,-0.15920019149780273,0.9785474538803101,-86.59719848632812,-8.501068115234375,9.606294631958008,-0.5894705057144165,-0.8144592642784119,-0.27148643136024475,-0.20422698557376862,0.7557559013366699,-5.1032586097717285
33,367054,367056,-0.7367703914642334,-0.43692585825920105,0.9472045302391052,-98.44259643554688,-15.039340019226074,9.906888008117676,-0.577471137046814,-0.8084595799446106,-0.28048595786094666,-0.14038614928722382,-0.06828106194734573,-5.037121772766113
34,367064,367066,-0.589579164981842,-0.4913869798183441,0.8849517703056335,-88.68266296386719,-21.739126205444336,11.619938850402832,-0.5744712948799133,-0.8204589486122131,-0.2864856719970703,0.11067364364862442,-1.0576852560043335,-4.904987812042236
35,367074,367076,-0.9190288782119751,-0.15143771469593048,0.9627253413200378,-64.73698425292969,-27.751352310180664,13.346802711486816,-0.554972231388092,-0.8009599447250366,-0.28198590874671936,0.27120843529701233,-1.8909443616867065,-4.784480571746826
36,367084,367086,-0.8816295862197876,-0.11758004128932953,1.0551048517227173,-42.17321014404297,-39.36532211303711,14.286014556884766,-0.5714713931083679,-0.80545973777771,-0.277486115694046,0.6551430225372314,-2.078662872314453,-4.6379570960998535
37,367094,367096,-0.6495319604873657,-0.0022068903781473637,0.9020957350730896,-18.44915199279785,-42.6615104675293,15.678406715393066,-0.577471137046814,-0.8024598360061646,-0.27148643136024475,1.1563105583190918,-2.4490036964416504,-4.463809490203857
38,367104,367106,-0.40437766909599304,0.037349313497543335,0.9406379461288452,1.1810598373413086,-43.20912170410156,17.29778289794922,-0.562471866607666,-0.8084595799446106,-0.2744862735271454,1.2745633125305176,-2.552513360977173,-4.286270618438721
39,367114,367116,-0.9316267967224121,-0.17971166968345642,0.9369944930076599,17.56899070739746,-32.41509246826172,18.505619049072266,-0.577471137046814,-0.7994599938392639,-0.2654867172241211,1.5404385328292847,-2.342341184616089,-4.092129230499268
40,367124,367126,-0.6822414398193359,-0.06321308016777039,0.9114036560058594,34.536251068115234,-21.8399715423584,16.355457305908203,-0.56997150182724,-0.8159592151641846,-0.2759861946105957,2.044563055038452,-2.002241849899292,-3.9415371417999268
41,367134,367136,-0.4433521032333374,-0.16263902187347412,0.9888034462928772,42.72089385986328,-12.556249618530273,15.886028289794922,-0.5579720735549927,-0.8339582681655884,-0.2939853072166443,1.6785342693328857,-1.5716322660446167,-3.7186641693115234
42,367144,367146,-0.33150142431259155,-0.11531461030244827,0.9157726168632507,46.01915740966797,-4.155925273895264,13.639076232910156,-0.5654717087745667,-0.8264586329460144,-0.29848507046699524,1.8747446537017822,-1.1193301677703857,-3.599519729614258
43,367154,367156,-0.4196045696735382,-0.1353418380022049,0.9218950867652893,39.82681655883789,-0.3307901620864868,11.82738208770752,-0.577471137046814,-0.8354582190513611,-0.28948551416397095,1.7949390411376953,-0.7698262929916382,-3.4506635665893555
44,367164,367166,-0.9795007705688477,-0.8599502444267273,1.0086017847061157,30.04181480407715,1.4697599411010742,10.699387550354004,-0.5654717087745667,-0.8354582190513611,-0.28048595786094666,1.8437608480453491,-0.4239922761917114,-3.349907398223877
45,367174,367176,-0.7569040060043335,-0.6481834650039673,1.0414557456970215,12.758275032043457,1.6495330333709717,11.428207397460938,-0.56997150182724,-0.8249587416648865,-0.2759861946105957,1.8882560729980469,-0.3175947070121765,-3.223517894744873
46,367184,367186,-0.32564789056777954,-0.20903280377388,1.0415111780166626,-8.247057914733887,-0.6962632536888123,11.199749946594238,-0.562471866607666,-0.8234587907791138,-0.2924853563308716,1.9991995096206665,-0.36924391984939575,-3.1186587810516357
47,367194,367196,-0.16724315285682678,-0.3237283527851105,0.9959098100662231,-27.95524024963379,-3.9757235050201416,12.38843059539795,-0.5534723401069641,-0.8354582190513611,-0.28948551416397095,2.134476900100708,-0.674697995185852,-2.9918220043182373
48,367204,367206,-0.1926807314157486,-0.4695284962654114,0.956756055355072,-38.84341812133789,-5.8974928855896,12.531070709228516,-0.562471866607666,-0.8174591064453125,-0.2834858298301697,2.0225110054016113,-0.7921916246414185,-2.8974997997283936
49,367214,367216,-0.3467412292957306,-0.4387103319168091,1.0043081045150757,-42.96582794189453,-4.516607761383057,13.059810638427734,-0.5519723892211914,-0.8219588994979858,-0.2669866383075714,1.9675278663635254,-1.5771658420562744,-2.658602476119995
50,367224,367226,-0.7833022475242615,-0.3372432589530945,0.9338927865028381,-39.1436767578125,-5.746363162994385,11.794046401977539,-0.5444727540016174,-0.8084595799446106,-0.2744862735271454,2.0286312103271484,-1.8375540971755981,-2.574010133743286
51,367234,367236,-0.34881120920181274,-0.038645658642053604,0.9718087911605835,-27.921043395996094,0.688080370426178,11.434347152709961,-0.562471866607666,-0.80545973777771,-0.2744862735271454,1.9909085035324097,-2.0309627056121826,-2.4917845726013184
52,367244,367246,-0.11774932593107224,0.0015907014021649957,0.9701132774353027,-14.602662086486816,0.8001830577850342,11.125408172607422,-0.5594720244407654,-0.8144592642784119,-0.28948551416397095,2.048440933227539,-2.299229860305786,-2.3743298053741455
53,367254,367256,-0.9774714708328247,-0.01943250559270382,1.0004191398620605,-1.199793815612793,1.6677043437957764,12.213220596313477,-0.5474725961685181,-0.8234587907791138,-0.27148643136024475,2.088503837585449,-2.2071664333343506,-2.3193607330322266
54,367264,367266,-0.9072282314300537,-0.3274039924144745,0.9990646839141846,10.267512321472168,4.295289039611816,12.273391723632812,-0.5504724383354187,-0.8144592642784119,-0.2864856719970703,2.047961711883545,-2.0723612308502197,-2.2109906673431396
55,367274,367276,-0.7572905421257019,-0.54305499792099,1.0431255102157593,17.717247009277344,10.885059356689453,9.413971900939941,-0.562471866607666,-0.8264586329460144,-0.2744862735271454,1.972917914390564,-1.8448047637939453,-2.133249521255493
56,367284,367286,-0.43030959367752075,-0.366094708442688,0.9379399418830872,19.137895584106445,14.555693626403809,5.667220592498779,-0.5669716596603394,-0.8249587416648865,-0.28198590874671936,1.8182402849197388,-1.6380696296691895,-2.0701963901519775
57,367294,367296,-0.8142843246459961,-0.12812188267707825,0.9517127275466919,18.072296142578125,16.71330451965332,3.475292682647705,-0.554972231388092,-0.8189590573310852,-0.27898603677749634,1.6833349466323853,-1.4412119388580322,-2.043405771255493
58,367304,367306,-0.6395585536956787,-0.24245572090148926,0.8739734292030334,18.414642333984375,15.598323822021484,3.3569743633270264,-0.5654717087745667,-0.8174591064453125,-0.2954852283000946,1.5722345113754272,-1.3003102540969849,-2.0231692790985107
59,367314,367316,-0.4772268235683441,-0.356444388628006,1.0307642221450806,13.40295124053955,10.256688117980957,3.0950591564178467,-0.5594720244407654,-0.8234587907791138,-0.2864856719970703,1.5005944967269897,-1.1990690231323242,-2.0062026977539062
60,367324,367326,-0.3049103319644928,-0.20344188809394836,1.0177690982818604,3.0863289833068848,0.7659614682197571,3.624678373336792,-0.5639718174934387,-0.8219588994979858,-0.27898603677749634,1.4494926929473877,-1.1832693815231323,-1.9562793970108032
61,367334,367336,-0.4596434533596039,-0.2509356439113617,0.9834615588188171,-8.831076622009277,-4.023163795471191,1.9536229372024536,-0.5654717087745667,-0.8234587907791138,-0.2954852283000946,1.4648683071136475,-1.3593339920043945,-1.8985391855239868
62,367344,367346,-0.24153783917427063,-0.42923057079315186,1.0193066596984863,-15.537846565246582,-5.86507511138916,0.7273659110069275,-0.5579720735549927,-0.8279585838317871,-0.29098543524742126,1.5566908121109009,-1.5049359798431396,-1.89447820186615
63,367354,367356,-0.3774295747280121,-0.4687984585762024,1.0900243520736694,-17.04901695251465,-3.867980480194092,1.2132434844970703,-0.5489725470542908,-0.8219588994979858,-0.28498575091362,1.5892879962921143,-1.581756353378296,-1.896931529045105
64,367364,367366,-0.7735801935195923,-0.3187349736690521,1.1366758346557617,-11.429930686950684,2.2025210857391357,1.5503934621810913,-0.5564721822738647,-0.8174591064453125,-0.2834858298301697,1.5957083702087402,-1.8826401233673096,-1.8436750173568726
65,367374,367376,-0.36742743849754333,-0.3584666848182678,1.0964891910552979,-1.9615941047668457,2.9017245769500732,1.333065390586853,-0.5654717087745667,-0.8174591064453125,-0.2834858298301697,1.595315933227539,-2.0151517391204834,-1.8133171796798706
66,367384,367386,-0.29968562722206116,-0.24156294763088226,1.0633821487426758,3.3473336696624756,1.6888628005981445,4.682375907897949,-0.5534723401069641,-0.8114594221115112,-0.2834858298301697,1.602271556854248,-1.9656085968017578,-1.7861406803131104
67,367394,367396,-0.570202112197876,-0.23233795166015625,1.0186091661453247,1.2031372785568237,5.285000324249268,5.281466484069824,-0.5639718174934387,-0.8159592151641846,-0.2759861946105957,1.6162503957748413,-1.9732882976531982,-1.7396838665008545
68,367404,367406,-0.16704809665679932,-0.2645038068294525,1.0288244485855103,-1.664143681526184,12.357467651367188,3.8404781818389893,-0.562471866607666,-0.80545973777771,-0.2834858298301697,1.485744833946228,-2.0201590061187744,-1.6645991802215576
69,367414,367416,-0.808846116065979,-0.06998516619205475,1.0769273042678833,-1.9216456413269043,20.53907012939453,2.0005877017974854,-0.5669716596603394,-0.797960102558136,-0.2639867961406708,1.1738407611846924,-1.948331594467163,-1.626476764678955
70,367424,367426,-0.8243582844734192,-0.17435616254806519,1.0575748682022095,0.5949397087097168,21.24355125427246,0.3747882544994354,-0.5594720244407654,-0.8084595799446106,-0.27148643136024475,0.9626455307006836,-2.05220890045166,-1.6090079545974731
71,367434,367436,-0.7295132279396057,-0.09700542688369751,1.0796602964401245,7.560795307159424,13.929712295532227,0.6737167835235596,-0.5594720244407654,-0.8024598360061646,-0.27148643136024475,0.9264864921569824,-2.0004799365997314,-1.6374369859695435
72,367444,367446,-0.23781968653202057,-0.07640950381755829,1.0449817180633545,15.446427345275879,5.198019027709961,-0.5802624821662903,-0.5579720735549927,-0.8009599447250366,-0.27298635244369507,1.130811333656311,-1.815086841583252,-1.7383341789245605
73,367454,367456,-0.8135745525360107,-0.5214987397193909,1.04063880443573,22.819507598876953,3.74930739402771,0.8956840634346008,-0.5789710283279419,-0.8039597868919373,-0.27898603677749634,1.1598154306411743,-1.525190830230713,-1.77790367603302
74,367464,367466,-0.4349299669265747,-0.19918446242809296,1.0847773551940918,29.278257369995117,6.342665195465088,3.2367937564849854,-0.5834708213806152,-0.8114594221115112,-0.2654867172241211,1.0263198614120483,-1.1326930522918701,-1.7540678977966309
75,367474,367476,-0.5602359175682068,-0.09775078296661377,1.0074008703231812,32.90205764770508,13.391580581665039,4.162675380706787,-0.577471137046814,-0.8174591064453125,-0.2744862735271454,0.9631261229515076,-0.9185770153999329,-1.70973539352417
76,367484,367486,-1.176910638809204,-0.3815016746520996,1.0583164691925049,28.267091751098633,19.289949417114258,6.347958087921143,-0.5819708704948425,-0.8219588994979858,-0.28498575091362,0.8482906818389893,-0.5872369408607483,-1.6589490175247192
77,367494,367496,-0.8025303483009338,-0.7176945209503174,0.9876879453659058,15.209280014038086,25.385324478149414,7.947058200836182,-0.5849707126617432,-0.8189590573310852,-0.2759861946105957,0.837092936038971,-0.2874658405780792,-1.6532814502716064
78,367504,367506,-0.9249342679977417,-0.5360555052757263,1.0926945209503174,0.5853347778320312,30.354167938232422,9.444999694824219,-0.5654717087745667,-0.8084595799446106,-0.2924853563308716,0.5236470699310303,-0.2336815893650055,-1.5562046766281128
79,367514,367516,-0.6618152260780334,-0.4367406964302063,0.9098895192146301,-11.886503219604492,30.23531723022461,10.363943099975586,-0.5789710283279419,-0.8069596290588379,-0.26998651027679443,0.07148411124944687,-0.35581204295158386,-1.4281293153762817
80,367524,367526,-0.6117005944252014,-0.6561627984046936,0.8642457723617554,-23.9647274017334,31.05466651916504,10.124970436096191,-0.5759711861610413,-0.797960102558136,-0.2669866383075714,-0.10235123336315155,-0.6214151382446289,-1.3421822786331177
81,367534,367536,-0.48077499866485596,-0.6233446002006531,0.9626842141151428,-31.902210235595703,30.0178279876709,10.768436431884766,-0.5849707126617432,-0.797960102558136,-0.26098695397377014,-0.4021627604961395,-0.9839907288551331,-1.241315484046936
82,367544,367546,-0.11024554818868637,0.08287828415632248,1.0582475662231445,-30.85940170288086,26.003009796142578,11.23633861541748,-0.5924703478813171,-0.8024598360061646,-0.2744862735271454,-0.6600903868675232,-1.2437201738357544,-1.14578378200531
83,367554,367556,-0.24440060555934906,0.059950485825538635,1.1211639642715454,-23.203868865966797,16.13652801513672,11.552449226379395,-0.5789710283279419,-0.8009599447250366,-0.27298635244369507,-0.867879331111908,-1.614012598991394,-1.0221378803253174
84,367564,367566,-0.2877984941005707,-0.03779872879385948,0.9774429798126221,-9.808664321899414,12.639212608337402,11.31380558013916,-0.5789710283279419,-0.8009599447250366,-0.27898603677749634,-0.947228729724884,-1.7204680442810059,-0.9065098166465759
85,367574,367576,-0.09909562766551971,-0.25049686431884766,0.915084719657898,6.221070766448975,16.651500701904297,8.51190185546875,-0.5894705057144165,-0.7994599938392639,-0.24148792028427124,-1.1282292604446411,-1.7149029970169067,-0.8060227632522583
86,367584,367586,-0.15906302630901337,-0.187835231423378,0.9518043994903564,18.66728973388672,18.730642318725586,5.1644673347473145,-0.5894705057144165,-0.80545973777771,-0.277486115694046,-1.2666369676589966,-1.4799470901489258,-0.7412189245223999
87,367594,367596,-0.32508933544158936,-0.33923301100730896,1.0006059408187866,28.94143295288086,21.903749465942383,2.8048017024993896,-0.5894705057144165,-0.80545973777771,-0.277486115694046,-1.3145288228988647,-1.2119884490966797,-0.7214516997337341
88,367604,367606,-0.23136140406131744,-0.5300601720809937,1.0608795881271362,31.856409072875977,22.24886703491211,1.751272201538086,-0.5894705057144165,-0.80545973777771,-0.277486115694046,-1.5826765298843384,-0.7721235156059265,-0.6784465312957764
89,367614,367616,-0.3584376871585846,-0.2959180772304535,0.9256176948547363,27.117403030395508,24.87687110900879,1.3703131675720215,-0.5894705057144165,-0.80545973777771,-0.277486115694046,-1.9193214178085327,-0.516177773475647,-0.65724778175354
90,367624,367626,-1.4400978088378906,-0.8138781189918518,0.9323588013648987,17.727294921875,22.192731857299805,0.13428083062171936,-0.5939702987670898,-0.8219588994979858,-0.27298635244369507,-2.100644588470459,-0.4505629539489746,-0.6922830939292908
91,367634,367636,-1.2104564905166626,-0.4821512997150421,0.975089967250824,8.445290565490723,14.41050910949707,-1.8672246932983398,-0.5984700918197632,-0.8144592642784119,-0.28948551416397095,-2.27323317527771,-0.2569202780723572,-0.69170081615448
92,367644,367646,-0.2665466070175171,-0.7426732778549194,0.9454451203346252,0.5637074708938599,5.472165584564209,-2.215318441390991,-0.6014699339866638,-0.8174591064453125,-0.26848655939102173,-2.139270544052124,-0.28659456968307495,-0.7554495334625244
93,367654,367656,-0.3640526235103607,-0.3538188934326172,0.9846687316894531,-1.660139799118042,-4.726317405700684,-1.024977445602417,-0.5849707126617432,-0.8219588994979858,-0.28498575091362,-2.1931865215301514,-0.31043097376823425,-0.7678739428520203
94,367664,367666,-0.540733277797699,-0.30995306372642517,0.9595047235488892,-2.0002200603485107,-12.585492134094238,0.16418994963169098,-0.5804709792137146,-0.8234587907791138,-0.28048595786094666,-2.08288836479187,-0.33569642901420593,-0.7734655737876892
95,367674,367676,-0.4630853235721588,-0.3862510025501251,0.9972599744796753,-7.831026554107666,-19.231046676635742,3.1769402027130127,-0.5744712948799133,-0.8234587907791138,-0.28048595786094666,-1.7984554767608643,-0.4057261645793915,-0.7685726881027222
96,367684,367686,-0.23876000940799713,-0.0851529911160469,1.0463757514953613,-12.132853507995605,-18.350357055664062,4.715681076049805,-0.5834708213806152,-0.8384580612182617,-0.277486115694046,-1.5787205696105957,-0.5770295858383179,-0.7480990886688232
97,367694,367696,-0.39605987071990967,-0.4916501045227051,1.0112017393112183,-12.432013511657715,-15.625650405883789,6.3783040046691895,-0.5879706144332886,-0.8339582681655884,-0.27898603677749634,-1.395927906036377,-0.6235291361808777,-0.6676572561264038
98,367704,367706,-0.45219630002975464,-0.4955090582370758,0.9728338718414307,-9.373428344726562,-8.587141990661621,7.1661152839660645,-0.5729713439941406,-0.8159592151641846,-0.28798559308052063,-1.4288560152053833,-0.7160593271255493,-0.5818142294883728
99,367714,367716,-0.1924227923154831,-0.09823250025510788,1.0035980939865112,-3.905529737472534,-0.439040869474411,6.921562194824219,-0.5969701409339905,-0.8279585838317871,-0.26998651027679443,-1.424094319343567,-0.8012702465057373,-0.5175692439079285
100,367724,367726,-0.296700119972229,-0.3815150260925293,1.018526554107666,3.821153163909912,6.361246109008789,8.478361129760742,-0.5894705057144165,-0.8204589486122131,-0.2864856719970703,-1.5499323606491089,-0.6983986496925354,-0.4046463072299957
101,367734,367736,-0.8220420479774475,-0.4582735598087311,0.9796853065490723,11.266756057739258,13.42564582824707,10.312010765075684,-0.5834708213806152,-0.8294585347175598,-0.28948551416397095,-1.7046031951904297,-0.5451453924179077,-0.28211501240730286
102,367744,367746,-0.6538512706756592,-0.24889174103736877,1.0071148872375488,17.110275268554688,13.8756742477417,11.674921035766602,-0.5879706144332886,-0.8399580121040344,-0.28798559308052063,-1.7672842741012573,-0.4971825182437897,-0.21177935600280762
103,367754,367756,-0.24308356642723083,-0.35759037733078003,0.9718246459960938,16.894865036010742,8.037569999694824,12.071853637695312,-0.5924703478813171,-0.8354582190513611,-0.2924853563308716,-1.898423671722412,-0.26683175563812256,-0.07466606795787811
104,367764,367766,-0.13080814480781555,-0.3019489049911499,0.9606444239616394,10.724467277526855,1.0049444437026978,10.672829627990723,-0.5849707126617432,-0.836958110332489,-0.28198590874671936,-1.9102272987365723,-0.10940138250589371,0.046212371438741684
105,367774,367776,-0.9823116660118103,-0.3338002860546112,1.053120732307434,4.238040447235107,-6.655119895935059,9.662264823913574,-0.5729713439941406,-0.8399580121040344,-0.28798559308052063,-1.8199217319488525,0.011034705676138401,0.166324645280838
106,367784,367786,-1.3580520153045654,-0.5925329923629761,1.0113613605499268,5.393489837646484,-15.161482810974121,10.207326889038086,-0.5879706144332886,-0.8309584259986877,-0.2939853072166443,-1.662548303604126,-0.03833453357219696,0.2269493043422699
107,367794,367796,-0.642619788646698,-0.5867177844047546,0.9826573729515076,6.632933139801025,-24.4805908203125,12.829601287841797,-0.5819708704948425,-0.8429578542709351,-0.2939853072166443,-1.350430965423584,0.08219550549983978,0.36471542716026306
108,367804,367806,-0.5722088813781738,-0.26699963212013245,0.9576535820960999,2.166982412338257,-28.380308151245117,14.28229808807373,-0.5909704566001892,-0.8339582681655884,-0.3059847056865692,-1.0791082382202148,0.09142934530973434,0.4867962598800659
109,367814,367816,-0.28386297821998596,-0.06932494789361954,0.9771801829338074,-4.3967604637146,-26.65469741821289,14.292948722839355,-0.5924703478813171,-0.8474575877189636,-0.277486115694046,-0.7320292592048645,-0.0017185653559863567,0.6068744659423828
110,367824,367826,-0.20532599091529846,-0.030651221051812172,0.9997318983078003,-7.3906378746032715,-15.562264442443848,12.060137748718262,-0.56997150182724,-0.8339582681655884,-0.2939853072166443,-0.530638575553894,-0.08516261726617813,0.7326561808586121
111,367834,367836,-0.2572694718837738,-0.036538589745759964,0.9999673366546631,-6.898906707763672,-0.950938880443573,9.089868545532227,-0.5849707126617432,-0.8279585838317871,-0.28498575091362,-0.6302888989448547,-0.1828496903181076,0.814474880695343
112,367844,367846,-0.3182924687862396,-0.020678216591477394,1.0090616941452026,-2.99615478515625,10.285223960876465,6.428277492523193,-0.577471137046814,-0.8294585347175598,-0.2924853563308716,-0.6338866949081421,-0.23429502546787262,0.8926113843917847
113,367854,367856,-0.19045284390449524,0.007027995306998491,0.978875458240509,6.548041343688965,17.219892501831055,4.62998104095459,-0.5669716596603394,-0.8489575386047363,-0.2939853072166443,-0.9113177061080933,-0.1715618222951889,0.9494776725769043
114,367864,367866,-0.11608748137950897,-0.04157223552465439,1.0178614854812622,14.760458946228027,21.255033493041992,4.499987602233887,-0.5789710283279419,-0.8489575386047363,-0.2969851493835449,-1.117893099784851,0.04739909991621971,1.0228291749954224
115,367874,367876,-0.11281128227710724,-0.055522385984659195,1.00851309299469,15.603372573852539,18.81472396850586,4.421143054962158,-0.5834708213806152,-0.8534573316574097,-0.28948551416397095,-1.3191415071487427,0.3246171176433563,1.1019726991653442
116,367884,367886,-0.2962716817855835,-0.013601887971162796,1.0068656206130981,9.837299346923828,12.091567993164062,3.5816903114318848,-0.5684715509414673,-0.8564571738243103,-0.2924853563308716,-1.5604543685913086,0.3154267370700836,1.0938564538955688
117,367894,367896,-0.5626910924911499,-0.013990580104291439,0.9904372692108154,-0.28464990854263306,4.295464515686035,4.5349555015563965,-0.5759711861610413,-0.8429578542709351,-0.2969851493835449,-1.6560001373291016,0.31694358587265015,1.1178276538848877
118,367904,367906,-0.5186558961868286,-0.458631694316864,1.00179123878479,-10.047994613647461,0.14961177110671997,4.23196268081665,-0.5684715509414673,-0.844457745552063,-0.2834858298301697,-1.6799849271774292,0.21877191960811615,1.1499437093734741
119,367914,367916,-0.4524867832660675,-0.4481910169124603,1.0367636680603027,-13.29098892211914,-6.1706671714782715,5.0280537605285645,-0.5759711861610413,-0.8489575386047363,-0.30898454785346985,-1.4707015752792358,0.18158753216266632,1.2397031784057617
120,367924,367926,-0.20768417418003082,-0.22363071143627167,0.9842206835746765,-12.144387245178223,-15.659144401550293,5.751269340515137,-0.56997150182724,-0.8429578542709351,-0.2969851493835449,-1.3475948572158813,-0.07697352021932602,1.2537633180618286
121,367934,367936,-0.20404557883739471,-0.4364990293979645,1.0266135931015015,-8.928267478942871,-25.17890167236328,5.909594535827637,-0.5639718174934387,-0.8549572229385376,-0.2939853072166443,-1.0185130834579468,-0.08871608972549438,1.3585014343261719
122,367944,367946,-0.3152569532394409,-0.050520844757556915,1.046147108078003,0.4207940399646759,-28.571256637573242,4.225646495819092,-0.5639718174934387,-0.851957380771637,-0.2969851493835449,-0.6614990234375,-0.1174374520778656,1.4117870330810547
123,367954,367956,-0.16031290590763092,0.019728172570466995,1.0433518886566162,11.03732681274414,-25.477087020874023,3.398803472518921,-0.5594720244407654,-0.850457489490509,-0.3014849126338959,-0.24286486208438873,0.014633852988481522,1.4851435422897339
124,367964,367966,-0.0934174507856369,-0.04832542687654495,1.006489634513855,17.795251846313477,-18.242610931396484,4.265111446380615,-0.5594720244407654,-0.8594570159912109,-0.3014849126338959,0.07379593700170517,0.14340443909168243,1.5271581411361694
125,367974,367976,-0.07090146094560623,-0.0988369807600975,0.996576189994812,19.555070877075195,-5.83515739440918,3.130847454071045,-0.554972231388092,-0.8639568090438843,-0.3029848337173462,-0.07878056168556213,0.4710937440395355,1.5667188167572021
126,367984,367986,-0.09745188057422638,-0.0913272500038147,0.9969491362571716,16.18577766418457,8.988001823425293,2.067979097366333,-0.5669716596603394,-0.851957380771637,-0.30898454785346985,-0.159198597073555,0.25619855523109436,1.4981834888458252
127,367994,367996,-0.0928058847784996,-0.05202716216444969,0.9903641939163208,13.16961669921875,19.609071731567383,0.7548234462738037,-0.5669716596603394,-0.8579570651054382,-0.3059847056865692,-0.3667253255844116,0.5145111083984375,1.5260820388793945
128,368004,368006,-0.20715895295143127,0.011652334593236446,1.013891339302063,11.59262752532959,24.82086944580078,1.0454862117767334,-0.5564721822738647,-0.8564571738243103,-0.3044847846031189,-0.6137294173240662,0.6619020104408264,1.53815758228302
129,368014,368016,-0.11970368772745132,0.027460189536213875,1.0300631523132324,10.427193641662598,23.433757781982422,1.8459076881408691,-0.5684715509414673,-0.8624568581581116,-0.30748462677001953,-0.9355108141899109,0.7849385738372803,1.548388123512268
130,368024,368026,-0.06165134534239769,-0.11220243573188782,1.012481451034546,10.46357250213623,13.525404930114746,1.9502912759780884,-0.5579720735549927,-0.8549572229385376,-0.3059847056865692,-1.0395927429199219,0.9851953983306885,1.6008543968200684
131,368034,368036,-0.23554135859012604,0.01112416759133339,1.0462323427200317,7.752511024475098,3.8388798236846924,0.8367433547973633,-0.5639718174934387,-0.8579570651054382,-0.29998499155044556,-1.0541884899139404,0.9955087900161743,1.6134005784988403
132,368044,368046,-0.21430222690105438,-0.05387577414512634,1.0550715923309326,-0.3288515508174896,-6.823894023895264,-1.023841381072998,-0.5684715509414673,-0.8654567003250122,-0.28948551416397095,-1.028551459312439,0.9840285181999207,1.6050119400024414
133,368054,368056,-0.29131606221199036,-0.11363555490970612,1.0037877559661865,-13.12191104888916,-21.528356552124023,-1.6526349782943726,-0.5684715509414673,-0.8564571738243103,-0.30748462677001953,-0.7884933948516846,0.8591339588165283,1.597510576248169
134,368064,368066,-0.3244149684906006,-0.1978968232870102,1.0641522407531738,-21.961715698242188,-29.280912399291992,-1.7050719261169434,-0.554972231388092,-0.851957380771637,-0.30898454785346985,-0.5055360794067383,0.6944547295570374,1.583693027496338
135,368074,368076,-0.17391857504844666,-0.06900148093700409,1.0703086853027344,-21.241443634033203,-29.840763092041016,-0.9383440613746643,-0.554972231388092,-0.8489575386047363,-0.2969851493835449,-0.10406321287155151,0.41487428545951843,1.5813249349594116
136,368084,368086,-0.18878720700740814,-0.027826623991131783,1.0313892364501953,-14.100692749023438,-24.023361206054688,0.5013663172721863,-0.5594720244407654,-0.8474575877189636,-0.2924853563308716,0.06287699192762375,0.230437770485878,1.55171799659729
137,368094,368096,-0.05926273390650749,0.0019832197576761246,1.0634161233901978,-7.784235000610352,-11.309243202209473,1.470557689666748,-0.5564721822738647,-0.8534573316574097,-0.29848507046699524,0.2993403375148773,0.22986872494220734,1.589284896850586
138,368104,368106,-0.10295410454273224,-0.08230884373188019,1.0674673318862915,-4.296633243560791,7.037513256072998,1.992576241493225,-0.5609719157218933,-0.8459576964378357,-0.29998499155044556,0.29131463170051575,0.14104697108268738,1.600158929824829
139,368114,368116,-0.13343828916549683,0.007105326745659113,1.0935492515563965,-0.12430325150489807,25.695974349975586,1.7359141111373901,-0.5594720244407654,-0.8354582190513611,-0.2954852283000946,-0.11772501468658447,0.12885066866874695,1.5778313875198364
140,368124,368126,-0.1337999552488327,-0.028673682361841202,1.0502911806106567,1.7675968408584595,36.44761276245117,0.4101749062538147,-0.5669716596603394,-0.8579570651054382,-0.2969851493835449,-0.4536745250225067,0.1652064472436905,1.5898733139038086
141,368134,368136,-0.11576177924871445,-0.048428989946842194,1.0403140783309937,-1.7275390625,38.84536361694336,-2.1507346630096436,-0.5729713439941406,-0.836958110332489,-0.29998499155044556,-0.9435950517654419,0.16467316448688507,1.562098503112793
142,368144,368146,-0.07702316343784332,-0.0903698205947876,1.053115725517273,-6.504029273986816,31.868282318115234,-3.5914132595062256,-0.5714713931083679,-0.8354582190513611,-0.2924853563308716,-1.3653942346572876,0.10392317920923233,1.5186253786087036
143,368154,368156,-0.3200465738773346,-0.15904323756694794,1.0954962968826294,-11.80628490447998,16.99201011657715,-5.4177565574646,-0.5729713439941406,-0.8249587416648865,-0.2969851493835449,-1.2989548444747925,0.01566251739859581,1.5243511199951172
144,368164,368166,-0.18359139561653137,-0.029601531103253365,1.0174187421798706,-12.31136417388916,-0.9878857135772705,-5.352299690246582,-0.5744712948799133,-0.8234587907791138,-0.2864856719970703,-1.395384430885315,-0.10913098603487015,1.4659420251846313
145,368174,368176,-0.055013492703437805,-0.030471842736005783,1.0579414367675781,-12.908268928527832,-9.769851684570312,-4.644623279571533,-0.5579720735549927,-0.836958110332489,-0.29098543524742126,-1.2120797634124756,-0.3134913146495819,1.4322316646575928
146,368184,368186,-0.020450443029403687,-0.005519035272300243,1.017885684967041,-9.729456901550293,-12.943666458129883,-5.790101051330566,-0.5669716596603394,-0.8339582681655884,-0.28798559308052063,-1.0438727140426636,-0.27663975954055786,1.4020106792449951
147,368194,368196,-0.1657692790031433,-0.1242142990231514,1.0729330778121948,-5.266481399536133,-9.396133422851562,-5.236485958099365,-0.5714713931083679,-0.8324583768844604,-0.28948551416397095,-1.0232155323028564,-0.31972235441207886,1.3376452922821045
148,368204,368206,-0.13636477291584015,-0.2469809353351593,1.0174717903137207,1.3429394960403442,-1.6475093364715576,-3.0544657707214355,-0.562471866607666,-0.8204589486122131,-0.2864856719970703,-0.9514064788818359,-0.3510110676288605,1.2997764348983765
149,368214,368216,-0.6186510324478149,-0.061571959406137466,1.0327035188674927,5.669660568237305,9.419415473937988,-1.3117241859436035,-0.5819708704948425,-0.8249587416648865,-0.28198590874671936,-0.9878936409950256,-0.2817396819591522,1.2843104600906372
150,368224,368226,-0.41640666127204895,-0.02254713885486126,1.0348540544509888,15.25123119354248,13.234439849853516,-0.955187976360321,-0.5894705057144165,-0.8114594221115112,-0.277486115694046,-1.0507004261016846,-0.1737615466117859,1.2784862518310547
151,368234,368236,-0.025965048000216484,-0.13067610561847687,0.9883864521980286,24.640859603881836,10.505043029785156,0.10378681868314743,-0.5864706635475159,-0.8294585347175598,-0.28948551416397095,-1.243873119354248,0.09798305481672287,1.276398777961731
152,368244,368246,-0.1157003715634346,-0.47047144174575806,1.0095505714416504,30.810808181762695,1.1466189622879028,2.28307843208313,-0.5969701409339905,-0.836958110332489,-0.2939853072166443,-1.308810830116272,0.42509394884109497,1.2943618297576904
153,368254,368256,-0.16879642009735107,-0.5767530202865601,0.9671815037727356,29.452136993408203,-12.298129081726074,4.06620979309082,-0.5789710283279419,-0.8339582681655884,-0.28498575091362,-1.1044453382492065,0.570485532283783,1.3174068927764893
154,368264,368266,-0.21528345346450806,-0.11913096904754639,0.9847792387008667,19.942594528198242,-21.6175479888916,7.090176105499268,-0.5714713931083679,-0.8294585347175598,-0.2864856719970703,-0.7973874807357788,0.884096086025238,1.3945592641830444
155,368274,368276,-0.1741952747106552,-0.04024341702461243,0.9926163554191589,6.1620073318481445,-22.375125885009766,8.510882377624512,-0.5819708704948425,-0.8339582681655884,-0.29098543524742126,-0.821192741394043,0.9332358837127686,1.433578610420227
156,368284,368286,-0.3169511556625366,-0.11620151996612549,0.9758172631263733,-7.090535640716553,-16.4681396484375,9.730598449707031,-0.5744712948799133,-0.8294585347175598,-0.2864856719970703,-0.48785194754600525,0.9080896973609924,1.5321353673934937
157,368294,368296,-0.24097435176372528,-0.18306156992912292,0.952649712562561,-20.134639739990234,-6.842677593231201,9.983373641967773,-0.5594720244407654,-0.8234587907791138,-0.277486115694046,-0.30441755056381226,0.7275404930114746,1.6341197490692139
158,368304,368306,-0.19063644111156464,-0.11474956572055817,0.974174439907074,-30.814075469970703,-0.6771879196166992,8.789449691772461,-0.5729713439941406,-0.8219588994979858,-0.28498575091362,-0.26914703845977783,0.36560332775115967,1.717453956604004
159,368314,368316,-0.31139206886291504,-0.0949287936091423,0.927758514881134,-39.1862678527832,1.8989794254302979,7.666121006011963,-0.5684715509414673,-0.8174591064453125,-0.27148643136024475,-0.22860091924667358,-0.13718415796756744,1.7912684679031372
160,368324,368326,-0.1603589653968811,0.03279494866728783,0.9760826230049133,-45.638092041015625,2.8738412857055664,8.424664497375488,-0.5684715509414673,-0.8144592642784119,-0.2834858298301697,-0.3565428853034973,-0.33306360244750977,1.8756893873214722
161,368334,368336,-0.08845683187246323,-0.2388414740562439,0.9256284236907959,-50.27665710449219,-0.027578158304095268,8.612696647644043,-0.5684715509414673,-0.80545973777771,-0.2654867172241211,-0.31307291984558105,-0.9774047136306763,1.9596389532089233
162,368344,368346,-0.26209962368011475,-0.09489964693784714,0.9364252686500549,-48.09548568725586,1.0390928983688354,6.167474269866943,-0.5684715509414673,-0.8084595799446106,-0.2834858298301697,-0.3247253894805908,-1.699302077293396,2.0194709300994873
163,368354,368356,-0.1639774590730667,0.1424875259399414,0.9679588675498962,-30.337980270385742,4.9418439865112305,3.058934450149536,-0.5579720735549927,-0.8219588994979858,-0.27298635244369507,-0.4447070360183716,-1.7764900922775269,2.0742177963256836
164,368364,368366,-0.255268394947052,-0.23887115716934204,0.9823792576789856,-3.869755268096924,5.920567989349365,0.7229404449462891,-0.5744712948799133,-0.80545973777771,-0.2654867172241211,-0.47258320450782776,-1.7823231220245361,2.102677583694458
165,368374,368376,-0.15335851907730103,-0.24868738651275635,1.0085415840148926,22.9014835357666,7.435347080230713,-2.11745548248291,-0.5669716596603394,-0.8129593133926392,-0.27898603677749634,-0.5827721953392029,-1.624599575996399,2.09306001663208
166,368384,368386,-0.42889031767845154,-0.28610292077064514,1.0875791311264038,45.16451644897461,8.935733795166016,-6.691915988922119,-0.5759711861610413,-0.8339582681655884,-0.28798559308052063,-0.6235948801040649,-1.2256615161895752,2.053370952606201
167,368394,368396,-0.691830039024353,-0.2957676351070404,1.0337027311325073,61.68650817871094,9.87230110168457,-9.620647430419922,-0.5759711861610413,-0.8399580121040344,-0.28198590874671936,-0.7163417935371399,-0.38790613412857056,1.9863393306732178
168,368404,368406,-0.26269081234931946,-0.18351152539253235,0.9839409589767456,68.87361145019531,7.368472099304199,-10.674883842468262,-0.5999699831008911,-0.8489575386047363,-0.29098543524742126,-0.7880252599716187,-0.016175705939531326,1.8700779676437378
169,368414,368416,-0.3194829821586609,-0.4308728277683258,0.9562124013900757,67.97974395751953,1.304610252380371,-12.26067066192627,-0.5744712948799133,-0.8384580612182617,-0.28048595786094666,-0.7909940481185913,0.7452926635742188,1.7572376728057861
170,368424,368426,-0.20637203752994537,-0.15540187060832977,0.9570441842079163,63.66237258911133,-6.741361141204834,-11.731093406677246,-0.5804709792137146,-0.8534573316574097,-0.28948551416397095,-0.7270114421844482,1.2560992240905762,1.625812292098999
171,368434,368436,-0.8793919086456299,-0.33072736859321594,0.9621725678443909,47.61294174194336,-9.116974830627441,-11.15461254119873,-0.5924703478813171,-0.8294585347175598,-0.2924853563308716,-0.6202250123023987,1.8410489559173584,1.514530062675476
172,368444,368446,-1.5460236072540283,-0.30191582441329956,1.0447922945022583,23.455984115600586,-5.831361770629883,-8.609440803527832,-0.5924703478813171,-0.8294585347175598,-0.2924853563308716,-0.5997273325920105,2.1741957664489746,1.4098167419433594
173,368454,368456,-0.6033669710159302,-0.2937765121459961,1.0029566287994385,-6.3866143226623535,4.031797409057617,-5.775448799133301,-0.5924703478813171,-0.8294585347175598,-0.2924853563308716,-0.5928511023521423,2.0956056118011475,1.3367215394973755
174,368464,368466,-0.7499579191207886,-0.2725420296192169,0.9529950618743896,-27.733943939208984,17.9168758392334,-3.926701784133911,-0.5924703478813171,-0.8294585347175598,-0.2924853563308716,-0.7961582541465759,1.7733497619628906,1.2846373319625854
175,368474,368476,-0.833947479724884,-0.46750715374946594,0.9541026949882507,-40.24249267578125,23.25461769104004,-2.2202868461608887,-0.5789710283279419,-0.8249587416648865,-0.28198590874671936,-1.0012867450714111,1.4143792390823364,1.2611956596374512
176,368484,368486,-0.796559751033783,-0.08989129215478897,0.9952816367149353,-42.810707092285156,22.876399993896484,0.5179985761642456,-0.5864706635475159,-0.8294585347175598,-0.2744862735271454,-1.2988570928573608,0.9593100547790527,1.2487167119979858
177,368494,368496,-0.31678035855293274,-0.38681304454803467,0.9112240672111511,-37.40250778198242,20.78252410888672,1.1900475025177002,-0.56997150182724,-0.8189590573310852,-0.28198590874671936,-1.5246031284332275,0.6051316261291504,1.2627005577087402
178,368504,368506,-0.05998245254158974,-0.49783921241760254,0.8968552947044373,-20.104616165161133,12.776775360107422,-0.5612701773643494,-0.5879706144332886,-0.8309584259986877,-0.2669866383075714,-1.781853199005127,0.32925474643707275,1.2489680051803589
179,368514,368516,-0.17210592329502106,-0.2939177453517914,0.8972495198249817,-0.9267241954803467,-2.9428346157073975,0.8194369077682495,-0.5894705057144165,-0.8264586329460144,-0.2744862735271454,-1.8177905082702637,0.3014477789402008,1.256300926208496
180,368524,368526,-0.2581392824649811,-0.13860152661800385,0.908147394657135,6.872743129730225,-19.000146865844727,2.236130475997925,-0.5909704566001892,-0.8129593133926392,-0.2759861946105957,-1.6178430318832397,0.3977952301502228,1.2826206684112549
181,368534,368536,-0.4427594542503357,-0.1711580753326416,0.9803760647773743,9.026581764221191,-35.20048141479492,2.206573247909546,-0.5864706635475159,-0.8294585347175598,-0.2654867172241211,-1.2670133113861084,0.5180258750915527,1.320324420928955
182,368544,368546,-0.21903274953365326,-0.17985545098781586,0.9834468960762024,11.928206443786621,-47.471004486083984,3.9437568187713623,-0.5879706144332886,-0.8339582681655884,-0.28198590874671936,-0.7616523504257202,0.6226239204406738,1.3571792840957642
183,368554,368556,-0.6398119330406189,-0.045950502157211304,0.971666693687439,13.643691062927246,-54.397281646728516,5.497980117797852,-0.5819708704948425,-0.8399580121040344,-0.2939853072166443,-0.1917235255241394,0.770358681678772,1.4067447185516357
184,368564,368566,-1.1816377639770508,-0.03789479285478592,0.9562024474143982,14.771600723266602,-53.59162139892578,6.960239887237549,-0.56997150182724,-0.8399580121040344,-0.2759861946105957,0.54251629114151,0.9976774454116821,1.495004653930664
185,368574,368576,-1.610729694366455,-0.6919344067573547,1.0485656261444092,14.519309043884277,-42.44449996948242,7.34217643737793,-0.5714713931083679,-0.8414579033851624,-0.2864856719970703,0.735554039478302,1.0828500986099243,1.5145894289016724
186,368584,368586,-1.0020575523376465,-0.3320944607257843,1.0237717628479004,5.149751663208008,-20.520727157592773,6.3583083152771,-0.5744712948799133,-0.8384580612182617,-0.277486115694046,1.0792137384414673,1.2162671089172363,1.586586833000183
187,368594,368596,-0.14308856427669525,-0.2628035247325897,0.9439067244529724,-10.425167083740234,6.429889678955078,2.6827242374420166,-0.562471866607666,-0.8324583768844604,-0.2744862735271454,0.9404886364936829,1.0685110092163086,1.596728801727295
188,368604,368606,-0.41200754046440125,-0.4533567726612091,0.9578535556793213,-25.830507278442383,30.755218505859375,-1.2811115980148315,-0.5609719157218933,-0.8309584259986877,-0.2939853072166443,0.6032196283340454,0.7290496826171875,1.5834100246429443
189,368614,368616,-0.8184738159179688,-1.025100827217102,0.9881314039230347,-35.77885818481445,49.5893669128418,-4.967162132263184,-0.5609719157218933,-0.8309584259986877,-0.27898603677749634,0.13428474962711334,0.3495504558086395,1.5450023412704468
190,368624,368626,-0.42087873816490173,-0.4115876257419586,0.9958826303482056,-36.271549224853516,56.99324417114258,-6.041268825531006,-0.5684715509414673,-0.8234587907791138,-0.277486115694046,-0.30859702825546265,0.050695326179265976,1.5033963918685913
191,368634,368636,-0.5501562356948853,-0.25119999051094055,0.972690224647522,-30.218473434448242,52.81992721557617,-6.922396659851074,-0.5834708213806152,-0.8174591064453125,-0.2834858298301697,-0.9610879421234131,-0.27034419775009155,1.4244991540908813
192,368644,368646,-0.29137855768203735,0.0035080602392554283,0.9846974015235901,-20.498367309570312,38.810943603515625,-6.515379428863525,-0.5864706635475159,-0.8264586329460144,-0.2744862735271454,-1.159256935119629,-0.38474392890930176,1.3897866010665894
193,368654,368656,-0.08167140185832977,-0.0629490464925766,0.9435807466506958,-9.202315330505371,19.347457885742188,-7.794042110443115,-0.5729713439941406,-0.8159592151641846,-0.27298635244369507,-1.4957619905471802,-0.5422000885009766,1.3080871105194092
194,368664,368666,-0.04770979285240173,-0.03876399248838425,0.9793597459793091,0.6530332565307617,-0.6056360006332397,-10.147183418273926,-0.5909704566001892,-0.8159592151641846,-0.27898603677749634,-1.4182730913162231,-0.5190645456314087,1.231497049331665
195,368674,368676,-0.32531848549842834,-0.07561464607715607,0.9771450161933899,8.150094032287598,-19.0513858795166,-10.460325241088867,-0.56997150182724,-0.8309584259986877,-0.27898603677749634,-1.1943129301071167,-0.4421124756336212,1.1379077434539795
196,368684,368686,-0.20626598596572876,-0.0906975045800209,0.9748861193656921,14.899345397949219,-39.937442779541016,-8.520471572875977,-0.5834708213806152,-0.8264586329460144,-0.27148643136024475,-0.8613255023956299,-0.31579986214637756,1.0442262887954712
197,368694,368696,-0.6534261107444763,-0.17969298362731934,1.025991678237915,21.595340728759766,-55.99986267089844,-4.447519302368164,-0.5744712948799133,-0.844457745552063,-0.2924853563308716,-0.36888012290000916,-0.0038184961304068565,0.9824750423431396
198,368704,368706,-0.5401499271392822,-0.808962345123291,1.0304924249649048,19.677303314208984,-54.658634185791016,-1.4505800008773804,-0.56997150182724,-0.836958110332489,-0.28498575091362,0.3386082053184509,0.09843743592500687,0.9656612873077393
199,368714,368716,-1.0423383712768555,-0.5907851457595825,1.020546555519104,14.014119148254395,-37.983070373535156,0.38044473528862,-0.5639718174934387,-0.8399580121040344,-0.29098543524742126,0.577713131904602,0.20763537287712097,0.9528601169586182
200,368724,368726,-0.6840794682502747,-0.022590596228837967,1.0164334774017334,12.4251070022583,-15.97142219543457,0.08001547306776047,-0.5639718174934387,-0.836958110332489,-0.29098543524742126,0.920097291469574,0.40774035453796387,0.9555498361587524
201,368734,368736,-0.43996793031692505,0.0419488362967968,0.9775295257568359,10.229134559631348,5.514561653137207,-0.8416308760643005,-0.5654717087745667,-0.8294585347175598,-0.277486115694046,0.9006417393684387,0.4269346296787262,0.9531757831573486
202,368744,368746,-0.48000264167785645,-0.11714959889650345,1.0278363227844238,9.908926010131836,22.265209197998047,-1.9776362180709839,-0.5594720244407654,-0.8324583768844604,-0.277486115694046,0.6470823884010315,0.5803165435791016,0.9318681359291077
203,368754,368756,-0.1481017917394638,-0.18145380914211273,0.9932564496994019,12.180717468261719,34.896636962890625,-1.6598840951919556,-0.5819708704948425,-0.8339582681655884,-0.28498575091362,0.2504575848579407,0.6174299716949463,0.9163331985473633
204,368764,368766,-0.046756673604249954,-0.26703712344169617,0.9805483222007751,9.445859909057617,41.85408020019531,0.36101678013801575,-0.5714713931083679,-0.8234587907791138,-0.2744862735271454,-0.07989756762981415,0.7231789827346802,0.9215113520622253
205,368774,368776,-0.09414370357990265,-0.20242106914520264,0.9868729114532471,4.410289287567139,40.08306884765625,0.23666077852249146,-0.5759711861610413,-0.8309584259986877,-0.28798559308052063,-0.6497492790222168,0.7424705624580383,0.9264503121376038
206,368784,368786,-0.9416509866714478,-0.20042240619659424,1.0459033250808716,-0.2136257439851761,29.508541107177734,0.060974497348070145,-0.5924703478813171,-0.8414579033851624,-0.277486115694046,-1.0231366157531738,0.7743063569068909,0.9300251007080078
207,368794,368796,-0.5763683915138245,-0.26103007793426514,0.9562958478927612,-7.075962543487549,11.87208366394043,-1.2430306673049927,-0.5924703478813171,-0.8354582190513611,-0.28948551416397095,-1.0831453800201416,0.770944356918335,0.9345930814743042
208,368804,368806,-0.22877945005893707,-0.14992660284042358,1.0272161960601807,-16.655010223388672,-8.195954322814941,-2.373967170715332,-0.5819708704948425,-0.8309584259986877,-0.28198590874671936,-0.9914019107818604,0.5509624481201172,0.9269294142723083
209,368814,368816,-0.4571285843849182,-0.10418186336755753,1.0225931406021118,-20.845657348632812,-27.06972885131836,-2.906222343444824,-0.5729713439941406,-0.836958110332489,-0.2759861946105957,-0.9310448169708252,0.512153148651123,0.8800845146179199
210,368824,368826,-0.4206499457359314,-0.1569945067167282,1.0190962553024292,-21.19148826599121,-36.964115142822266,-2.346605062484741,-0.577471137046814,-0.8354582190513611,-0.2864856719970703,-0.42927831411361694,0.14856255054473877,0.8712703585624695
211,368834,368836,-0.6094145774841309,-0.08618730306625366,0.9587295651435852,-20.983278274536133,-38.46125411987305,-2.1320126056671143,-0.5759711861610413,-0.8249587416648865,-0.28798559308052063,-0.05922103300690651,-0.07359138131141663,0.8564352989196777
212,368844,368846,-0.42304763197898865,-0.16143611073493958,0.968020498752594,-13.951016426086426,-39.1535530090332,-1.2469574213027954,-0.5564721822738647,-0.8354582190513611,-0.28948551416397095,0.3030549883842468,-0.14791323244571686,0.8309163451194763
213,368854,368856,-0.25844690203666687,-0.1266399323940277,1.012058138847351,-5.6889495849609375,-30.871978759765625,0.7560383081436157,-0.5684715509414673,-0.8384580612182617,-0.2954852283000946,0.5881366729736328,-0.30610665678977966,0.824974536895752
214,368864,368866,-0.20346572995185852,-0.18017730116844177,0.9369624853134155,5.253167629241943,-18.27372169494629,2.240834951400757,-0.5639718174934387,-0.836958110332489,-0.27898603677749634,0.6953977346420288,-0.2926081418991089,0.8328137397766113
215,368874,368876,-0.35151463747024536,-0.24743600189685822,0.9386035203933716,9.065044403076172,-3.473557710647583,3.753873348236084,-0.5654717087745667,-0.8234587907791138,-0.2864856719970703,0.8448219895362854,-0.10606981068849564,0.8556151986122131
216,368884,368886,-0.26779258251190186,-0.07133296132087708,0.9708077907562256,4.622368812561035,13.678287506103516,3.6872172355651855,-0.56997150182724,-0.8279585838317871,-0.2759861946105957,0.7313032746315002,-0.011586885899305344,0.889930248260498
217,368894,368896,-0.7398382425308228,-0.1235613226890564,0.9127399921417236,-0.2687304615974426,26.357128143310547,2.371142864227295,-0.5669716596603394,-0.8219588994979858,-0.26998651027679443,0.3934924900531769,0.00818149745464325,0.9158085584640503
218,368904,368906,-0.4101311266422272,-0.2651084065437317,0.8848299384117126,-10.053746223449707,30.193801879882812,0.09396898001432419,-0.5714713931083679,-0.8354582190513611,-0.28048595786094666,0.016620449721813202,-0.12381450086832047,0.9340600967407227
219,368914,368916,-0.1844632476568222,-0.11385975778102875,0.9427732825279236,-16.584728240966797,28.39317512512207,-1.8133515119552612,-0.5609719157218933,-0.8399580121040344,-0.28198590874671936,-0.21134085953235626,-0.2984955310821533,0.925051748752594
220,368924,368926,-0.17850130796432495,-0.0690901055932045,0.8431359529495239,-19.5167236328125,23.361391067504883,-2.7648298740386963,-0.5789710283279419,-0.8339582681655884,-0.28198590874671936,-0.5239248275756836,-0.5292840600013733,0.9017280340194702
221,368934,368936,-0.2921873927116394,-0.29378917813301086,0.9085109829902649,-19.201772689819336,16.116901397705078,-4.928414344787598,-0.554972231388092,-0.8219588994979858,-0.28198590874671936,-0.6548518538475037,-0.6382817625999451,0.8562419414520264
222,368944,368946,-0.5142365097999573,-0.656853199005127,0.9985994100570679,-14.152079582214355,2.99796724319458,-8.179744720458984,-0.554972231388092,-0.8309584259986877,-0.28198590874671936,-0.8212035298347473,-0.914272665977478,0.7957864999771118
223,368954,368956,-0.12535102665424347,-0.2725345194339752,0.9157574772834778,-3.1794910430908203,-11.2797269821167,-11.02226734161377,-0.5609719157218933,-0.8399580121040344,-0.29098543524742126,-0.5774524807929993,-0.9584240317344666,0.6909762024879456
224,368964,368966,-0.13155034184455872,-0.08979523181915283,0.9952006340026855,3.2835288047790527,-18.596193313598633,-12.665078163146973,-0.562471866607666,-0.850457489490509,-0.2954852283000946,-0.4210599958896637,-0.8067276477813721,0.5618425011634827
225,368974,368976,-0.13800284266471863,-0.06716053932905197,1.013232707977295,14.126877784729004,-23.126190185546875,-13.295162200927734,-0.577471137046814,-0.8474575877189636,-0.28948551416397095,0.021933134645223618,-0.6352516412734985,0.4164431691169739
226,368984,368986,-0.34856975078582764,-0.5698807239532471,1.091292142868042,18.306922912597656,-21.256948471069336,-13.175559997558594,-0.5639718174934387,-0.8459576964378357,-0.2969851493835449,0.20709840953350067,-0.6011165976524353,0.29983362555503845
227,368994,368996,-0.6348453164100647,-0.41041865944862366,0.967374861240387,25.509502410888672,-19.172103881835938,-10.385653495788574,-0.5729713439941406,-0.8459576964378357,-0.29098543524742126,0.4503393769264221,-0.20222724974155426,0.16882769763469696
228,369004,369006,-0.5046979784965515,-0.3501143753528595,0.9271225929260254,28.295429229736328,-16.504087448120117,-4.934697151184082,-0.554972231388092,-0.8609569072723389,-0.2969851493835449,0.49770545959472656,-0.05476727709174156,0.12093054503202438
229,369014,369016,-0.3292912542819977,-0.1975603848695755,0.9751952886581421,26.091632843017578,-8.354456901550293,-0.07460232824087143,-0.562471866607666,-0.850457489490509,-0.29848507046699524,0.44760096073150635,0.24976548552513123,0.11348959058523178
230,369024,369026,-0.1369335949420929,-0.056600913405418396,1.0115959644317627,17.704471588134766,0.22397366166114807,1.7709333896636963,-0.5729713439941406,-0.8459576964378357,-0.2969851493835449,0.5742962956428528,0.45077741146087646,0.1268814206123352
231,369034,369036,-0.18543583154678345,-0.20887024700641632,1.0013439655303955,3.3078622817993164,5.604750156402588,0.018143927678465843,-0.5534723401069641,-0.850457489490509,-0.2954852283000946,0.49007079005241394,0.5056532621383667,0.1538781225681305
232,369044,369046,-0.21931730210781097,-0.03670094534754753,0.9960671067237854,-10.702717781066895,9.055061340332031,-1.1715165376663208,-0.562471866607666,-0.844457745552063,-0.29848507046699524,0.4051993489265442,0.4135097563266754,0.1521037220954895
233,369054,369056,-0.271833598613739,0.0033203072380274534,1.0384352207183838,-24.68647575378418,3.99847149848938,-2.2958173751831055,-0.56997150182724,-0.8489575386047363,-0.27898603677749634,0.39214202761650085,0.16457854211330414,0.15023721754550934
234,369064,369066,-0.14863897860050201,-0.05477796494960785,1.0559451580047607,-34.97071075439453,0.22410742938518524,-3.8315913677215576,-0.5474725961685181,-0.8384580612182617,-0.29848507046699524,0.39734947681427,-0.1446739137172699,0.12126100063323975
235,369074,369076,-0.21393190324306488,0.15246400237083435,1.0563154220581055,-38.46394348144531,-1.3310765027999878,-4.407076358795166,-0.5519723892211914,-0.8399580121040344,-0.2939853072166443,0.4715518057346344,-0.610580563545227,0.09267142415046692
236,369084,369086,-0.26033586263656616,0.02963259071111679,1.1253548860549927,-34.7659797668457,-2.5063295364379883,-3.2323145866394043,-0.5534723401069641,-0.8324583768844604,-0.28048595786094666,0.5228309631347656,-0.8603691458702087,0.04169749468564987
237,369094,369096,-0.3134572207927704,-0.11617093533277512,1.0699349641799927,-22.412704467773438,-5.366634845733643,-3.154555559158325,-0.5594720244407654,-0.8204589486122131,-0.2834858298301697,0.5542502403259277,-1.22402024269104,0.017361195757985115
238,369104,369106,-0.21533408761024475,-0.0692804679274559,1.0113074779510498,-5.166331768035889,-3.814120054244995,-1.8732078075408936,-0.5654717087745667,-0.8324583768844604,-0.28048595786094666,0.6426194310188293,-1.2718831300735474,-0.018888376653194427
239,369114,369116,0.0632079616189003,0.048571232706308365,0.9481793642044067,13.095479011535645,-0.058925434947013855,-3.1228888034820557,-0.5579720735549927,-0.8279585838317871,-0.29098543524742126,0.5566525459289551,-1.147435188293457,-0.05761751905083656
240,369124,369126,-0.34834691882133484,-0.6551318764686584,1.0578824281692505,26.332962036132812,3.5583131313323975,-3.8857855796813965,-0.5714713931083679,-0.8324583768844604,-0.2834858298301697,0.5605319142341614,-0.7970904111862183,-0.11361359059810638
241,369134,369136,-0.6820465922355652,-0.5438708066940308,1.0374654531478882,32.46467208862305,9.757349967956543,-5.8723464012146,-0.5609719157218933,-0.8339582681655884,-0.29098543524742126,0.46949928998947144,-0.505319356918335,-0.15833042562007904
242,369144,369146,-0.43295741081237793,-0.30151715874671936,1.0551289319992065,27.893884658813477,11.968242645263672,-8.181936264038086,-0.5849707126617432,-0.836958110332489,-0.2939853072166443,0.33313384652137756,-0.0962730199098587,-0.23547297716140747
243,369154,369156,-0.22659827768802643,-0.30948397517204285,0.9652249813079834,17.39906883239746,9.419285774230957,-8.189342498779297,-0.5849707126617432,-0.8339582681655884,-0.28498575091362,0.2872207462787628,-0.03607196360826492,-0.30291733145713806
244,369164,369166,-0.6121037006378174,-0.3027424216270447,1.031361699104309,5.595093727111816,7.806819915771484,-5.216411590576172,-0.5729713439941406,-0.8249587416648865,-0.28498575091362,0.2094557136297226,0.05480033904314041,-0.35470646619796753
245,369174,369176,-0.48838168382644653,-0.2560390532016754,0.999672532081604,-7.709330081939697,7.408601760864258,-3.6098344326019287,-0.5744712948799133,-0.8294585347175598,-0.2834858298301697,0.11344561725854874,0.009071103297173977,-0.3938862979412079
246,369184,369186,-0.11269346624612808,-0.17970995604991913,0.9780936241149902,-16.69245719909668,3.1496760845184326,-3.04355788230896,-0.56997150182724,-0.836958110332489,-0.27898603677749634,0.09263354539871216,-0.13759392499923706,-0.42204558849334717
247,369194,369196,-0.10039010643959045,-0.22454890608787537,1.037058711051941,-20.361515045166016,1.7864792346954346,-3.1924514770507812,-0.5759711861610413,-0.8249587416648865,-0.2759861946105957,0.08467722684144974,-0.3823610246181488,-0.4474722743034363
248,369204,369206,-0.2387804388999939,-0.05221002548933029,0.979404628276825,-17.65851593017578,-0.3354965150356293,-3.2350385189056396,-0.5654717087745667,-0.844457745552063,-0.277486115694046,0.1423339545726776,-0.4652242362499237,-0.4967901110649109
249,369214,369216,-0.30462267994880676,-0.2988159656524658,1.0916575193405151,-7.872585773468018,-1.6103174686431885,-2.240602970123291,-0.5669716596603394,-0.8339582681655884,-0.28198590874671936,0.20659145712852478,-0.6614996194839478,-0.5200298428535461
250,369224,369226,-0.20620150864124298,-0.4379710555076599,1.0136257410049438,3.227379322052002,-0.14609067142009735,-0.6169167160987854,-0.5744712948799133,-0.8324583768844604,-0.277486115694046,0.17892053723335266,-0.6595431566238403,-0.5316147804260254
251,369234,369236,-0.7220973372459412,-0.416828989982605,1.0285953283309937,11.10503101348877,1.8479952812194824,1.0932502746582031,-0.5714713931083679,-0.8264586329460144,-0.28048595786094666,0.12852618098258972,-0.4963171184062958,-0.5270987153053284
252,369244,369246,-0.7513411045074463,-0.13518284261226654,1.0170042514801025,15.52310562133789,2.5946810245513916,1.1252532005310059,-0.5714713931083679,-0.8354582190513611,-0.2834858298301697,0.11740103363990784,-0.2619452178478241,-0.5301157832145691
253,369254,369256,-0.5773153305053711,-0.4635072946548462,1.0913342237472534,24.286359786987305,-3.291980266571045,3.9983575344085693,-0.5759711861610413,-0.8279585838317871,-0.28498575091362,0.19216585159301758,0.011144337244331837,-0.5098220705986023
254,369264,369266,-0.22168214619159698,-0.43974050879478455,1.0270131826400757,25.80538558959961,-8.434287071228027,7.372036457061768,-0.5759711861610413,-0.836958110332489,-0.2759861946105957,0.3112359344959259,0.1483016312122345,-0.4487961232662201
255,369274,369276,-0.3189946711063385,-0.6392615437507629,0.941103994846344,21.64533805847168,-17.612730026245117,10.560319900512695,-0.562471866607666,-0.8324583768844604,-0.3014849126338959,0.382940411567688,0.46154510974884033,-0.3534645140171051
256,369284,369286,-0.3878774046897888,-0.30144307017326355,0.9258716702461243,11.582255363464355,-21.262210845947266,13.08786392211914,-0.577471137046814,-0.8414579033851624,-0.2954852283000946,0.5176326632499695,0.4906921684741974,-0.2191384881734848
257,369294,369296,-0.22771497070789337,-0.13163846731185913,0.9760037064552307,1.5567563772201538,-22.310331344604492,15.783116340637207,-0.5804709792137146,-0.8234587907791138,-0.28048595786094666,0.8337073922157288,0.5767419338226318,-0.0805264413356781
258,369304,369306,-0.5364847779273987,-0.17424820363521576,0.9203541874885559,-11.159514427185059,-18.945144653320312,15.838506698608398,-0.5804709792137146,-0.8234587907791138,-0.28048595786094666,0.985550045967102,0.4687739610671997,0.08747107535600662
259,369314,369316,-0.27850767970085144,-0.06100526452064514,1.0344202518463135,-17.877849578857422,-11.824525833129883,15.546731948852539,-0.5804709792137146,-0.8234587907791138,-0.28048595786094666,1.170257806777954,0.20078319311141968,0.25356996059417725
260,369324,369326,-0.24588726460933685,-0.09608812630176544,1.0062705278396606,-23.42708969116211,-4.161261558532715,15.615511894226074,-0.5534723401069641,-0.8324583768844604,-0.2834858298301697,1.1016640663146973,-0.010976921766996384,0.40637660026550293
261,369334,369336,-0.8970107436180115,-0.2770381569862366,1.0392804145812988,-20.810808181762695,1.7341587543487549,14.575544357299805,-0.5534723401069641,-0.8354582190513611,-0.28048595786094666,1.1482748985290527,-0.21704860031604767,0.5557262301445007
262,369344,369346,-0.4302007853984833,-0.3635178804397583,1.1144460439682007,-16.721773147583008,7.023301601409912,14.96784496307373,-0.5654717087745667,-0.8324583768844604,-0.2744862735271454,1.1200995445251465,-0.4287693500518799,0.7157729864120483
263,369354,369356,-0.12137303501367569,-0.16760534048080444,1.0655388832092285,-10.80020523071289,13.965996742248535,13.46166706085205,-0.562471866607666,-0.8294585347175598,-0.2864856719970703,0.9394235014915466,-0.6303766369819641,0.8701295256614685
264,369364,369366,-0.137569859623909,-0.028191927820444107,1.0390912294387817,-5.072136402130127,19.344507217407227,9.872432708740234,-0.5684715509414673,-0.8264586329460144,-0.28948551416397095,0.7446354627609253,-0.5843634009361267,0.962134838104248
265,369374,369376,-0.26727619767189026,-0.10667280107736588,1.0593703985214233,5.412271499633789,24.017229080200195,6.229272842407227,-0.562471866607666,-0.8354582190513611,-0.28048595786094666,0.524793267250061,-0.5409761071205139,1.0322641134262085
266,369384,369386,-0.4773094654083252,-0.29628363251686096,0.9826261401176453,13.501425743103027,24.17220115661621,3.7410531044006348,-0.5864706635475159,-0.8114594221115112,-0.277486115694046,0.1934482753276825,-0.4306209683418274,1.0731722116470337
267,369394,369396,-0.2611154019832611,-0.2176237553358078,0.9633833169937134,22.075084686279297,21.484071731567383,2.6418559551239014,-0.5714713931083679,-0.8174591064453125,-0.2744862735271454,-0.15621785819530487,-0.11439600586891174,1.080498456954956
268,369404,369406,-0.11434022337198257,-0.2265719175338745,0.9289025068283081,23.36617088317871,13.209390640258789,0.328972727060318,-0.5729713439941406,-0.8399580121040344,-0.28198590874671936,-0.22638724744319916,0.12067244201898575,1.092018961906433
269,369414,369416,-0.11936971545219421,-0.3603496551513672,0.903744637966156,22.094011306762695,-0.06628265231847763,-1.6909273862838745,-0.5714713931083679,-0.8174591064453125,-0.28048595786094666,-0.19591733813285828,0.33880311250686646,1.0814461708068848
270,369424,369426,-0.8333199620246887,-0.5450564622879028,0.9317757487297058,25.597484588623047,-13.671525001525879,-0.5314362049102783,-0.5819708704948425,-0.8399580121040344,-0.27898603677749634,-0.040145356208086014,0.5418866872787476,1.0648266077041626
271,369434,369436,-0.7993118166923523,-0.40754106640815735,0.9787271022796631,26.153451919555664,-29.415971755981445,1.3231720924377441,-0.5684715509414673,-0.8264586329460144,-0.2864856719970703,0.28034818172454834,0.9027635455131531,1.0481691360473633
272,369444,369446,-0.5556480288505554,-0.27781394124031067,1.0018988847732544,22.453105926513672,-40.850128173828125,2.732948064804077,-0.5669716596603394,-0.8399580121040344,-0.28798559308052063,0.5898873805999756,0.942036509513855,1.0906468629837036
273,369454,369456,-0.5139752626419067,-0.5914084911346436,0.989678680896759,12.019290924072266,-39.64141845703125,4.3967413902282715,-0.5609719157218933,-0.8549572229385376,-0.29098543524742126,1.2109272480010986,1.1411659717559814,1.1157258749008179
274,369464,369466,-0.22706501185894012,-0.20296114683151245,0.9271215796470642,-0.994848906993866,-34.420692443847656,4.207184314727783,-0.5519723892211914,-0.8399580121040344,-0.28498575091362,1.4534801244735718,1.1941450834274292,1.1465134620666504
275,369474,369476,-0.3281470835208893,-0.30572250485420227,0.9617097973823547,-13.326377868652344,-22.892189025878906,4.356927394866943,-0.5684715509414673,-0.8294585347175598,-0.28948551416397095,1.4557545185089111,1.0265544652938843,1.1879239082336426
276,369484,369486,-0.291998952627182,-0.005903363693505526,1.0036958456039429,-20.442604064941406,-1.8507438898086548,3.193856716156006,-0.5489725470542908,-0.8249587416648865,-0.2969851493835449,1.5135021209716797,0.7904016375541687,1.2251180410385132
277,369494,369496,-0.25643429160118103,-0.06315481662750244,0.976509153842926,-23.708866119384766,15.398361206054688,1.5984541177749634,-0.5654717087745667,-0.8294585347175598,-0.2954852283000946,1.3489373922348022,0.6963176727294922,1.2245362997055054
278,369504,369506,-0.16356207430362701,-0.21631364524364471,0.8845189213752747,-25.17372703552246,25.729835510253906,-0.17677511274814606,-0.5519723892211914,-0.8249587416648865,-0.2759861946105957,0.9855287075042725,0.2961430847644806,1.2430278062820435
279,369514,369516,-0.3521221876144409,-0.12128832936286926,0.8999276161193848,-22.7314510345459,30.452871322631836,-0.8857232928276062,-0.5744712948799133,-0.8234587907791138,-0.2834858298301697,0.6603496074676514,-0.027015984058380127,1.2401200532913208
280,369524,369526,-0.3124382495880127,-0.028196873143315315,0.9130541682243347,-9.785382270812988,27.445268630981445,-1.9817091226577759,-0.5744712948799133,-0.8234587907791138,-0.277486115694046,0.44254162907600403,-0.02888733334839344,1.206681251525879
281,369534,369536,-0.6003443598747253,-0.6291748285293579,0.8876512050628662,6.987481594085693,15.88938045501709,-2.7761390209198,-0.5804709792137146,-0.8264586329460144,-0.2744862735271454,0.23887984454631805,0.07545658946037292,1.1649529933929443
282,369544,369546,-1.1895809173583984,-0.6000134348869324,0.9037144184112549,15.575075149536133,6.680676460266113,-2.9097206592559814,-0.5714713931083679,-0.8414579033851624,-0.2834858298301697,0.23137904703617096,0.29526856541633606,1.1262365579605103
283,369554,369556,-0.7864177227020264,-0.24172230064868927,0.9118402004241943,19.23651695251465,-0.49430981278419495,-2.5335216522216797,-0.5654717087745667,-0.8384580612182617,-0.28948551416397095,0.21649597585201263,0.5018741488456726,1.0957273244857788
284,369564,369566,-0.7901268601417542,-0.603368878364563,0.8497902750968933,19.31771469116211,-5.135171413421631,-3.5049045085906982,-0.5684715509414673,-0.850457489490509,-0.2954852283000946,0.2959868311882019,0.6621600985527039,1.076804518699646
285,369574,369576,-0.8441610932350159,-0.6963710784912109,0.8718946576118469,17.071048736572266,-6.775773048400879,-3.7026162147521973,-0.5654717087745667,-0.844457745552063,-0.2954852283000946,0.37149181962013245,0.8780072331428528,1.0305384397506714
286,369584,369586,-0.4886262118816376,-0.3698939383029938,0.97743821144104,10.608907699584961,-8.977204322814941,-2.9863364696502686,-0.5594720244407654,-0.8594570159912109,-0.2924853563308716,0.43547114729881287,0.9253640174865723,1.0052666664123535
287,369594,369596,-0.799792468547821,-0.681879997253418,0.9140485525131226,2.7701897621154785,-14.173297882080078,-2.341529607772827,-0.5654717087745667,-0.8564571738243103,-0.3014849126338959,0.6399411559104919,1.0005635023117065,0.9835477471351624
288,369604,369606,-1.1104618310928345,-1.1551973819732666,0.8908511400222778,-6.311957836151123,-17.54893684387207,-0.6875504851341248,-0.5579720735549927,-0.8579570651054382,-0.29998499155044556,0.7982684969902039,0.9269086718559265,0.9687061309814453
289,369614,369616,-0.6096932888031006,-0.5089735388755798,0.8961576819419861,-13.086380004882812,-22.889814376831055,1.0112287998199463,-0.5519723892211914,-0.8489575386047363,-0.28498575091362,1.0467612743377686,0.7400296926498413,0.9817623496055603
290,369624,369626,-0.24444973468780518,-0.19121839106082916,0.8665797114372253,-18.9776611328125,-20.74538230895996,2.6506619453430176,-0.5519723892211914,-0.8429578542709351,-0.2939853072166443,1.1950438022613525,0.5187389850616455,0.9978216290473938
291,369634,369636,-0.19385650753974915,-0.33963656425476074,0.9634311199188232,-20.83245086669922,-11.386183738708496,5.404263496398926,-0.5519723892211914,-0.8609569072723389,-0.29998499155044556,1.3615469932556152,0.39092379808425903,1.0312714576721191
292,369644,369646,-0.05912128463387489,-0.12388984858989716,0.9570124745368958,-18.246021270751953,0.8840647339820862,6.9469380378723145,-0.5414729118347168,-0.8474575877189636,-0.2864856719970703,1.3414274454116821,0.136321559548378,1.0942096710205078
293,369654,369656,-0.08737470209598541,0.16913798451423645,1.0686876773834229,-13.41722583770752,11.51162338256836,5.9796247482299805,-0.5474725961685181,-0.8534573316574097,-0.3044847846031189,1.2193700075149536,0.03646848723292351,1.1476376056671143
294,369664,369666,-0.14777079224586487,0.020080069079995155,1.0244615077972412,-11.816650390625,20.74089241027832,4.399290561676025,-0.5639718174934387,-0.8429578542709351,-0.28798559308052063,1.001338005065918,-0.028073860332369804,1.1834348440170288
295,369674,369676,-0.14885319769382477,0.006859984248876572,0.9966166615486145,-13.892398834228516,30.929615020751953,1.5746906995773315,-0.5504724383354187,-0.844457745552063,-0.3044847846031189,0.5950636863708496,-0.1252826601266861,1.1890127658843994
296,369684,369686,-0.1490618735551834,0.01069096103310585,1.0077182054519653,-15.79653549194336,32.726444244384766,-1.3124465942382812,-0.562471866607666,-0.8384580612182617,-0.29848507046699524,0.2267151176929474,-0.31305181980133057,1.1807388067245483
297,369694,369696,-0.4115164279937744,-0.051999785006046295,1.0998085737228394,-17.904878616333008,23.733510971069336,-3.43530535697937,-0.5564721822738647,-0.8414579033851624,-0.2864856719970703,-0.04517745599150658,-0.46650227904319763,1.1509250402450562
298,369704,369706,-0.5196569561958313,-0.09452855587005615,1.067093849182129,-19.306669235229492,11.295690536499023,-3.0735714435577393,-0.5669716596603394,-0.8429578542709351,-0.2939853072166443,-0.10755225270986557,-0.6435506343841553,1.1155954599380493
299,369714,369716,-0.9775573015213013,-0.5302944779396057,1.10470449924469,-19.589841842651367,2.399855852127075,-4.568615436553955,-0.5669716596603394,-0.8219588994979858,-0.28798559308052063,-0.05924154072999954,-0.7660715579986572,1.0809253454208374
300,369724,369726,-0.8112916350364685,-0.48285698890686035,1.1539570093154907,-11.148970603942871,1.595404028892517,-8.76036262512207,-0.5609719157218933,-0.8069596290588379,-0.2939853072166443,-0.09816098213195801,-1.006016731262207,1.0201343297958374
301,369734,369736,-0.3300623595714569,0.056087151169776917,1.1013891696929932,0.7933753728866577,-3.3804969787597656,-11.89813232421875,-0.5729713439941406,-0.8159592151641846,-0.2939853072166443,-0.05459009110927582,-0.9268559813499451,0.9071139693260193
302,369744,369746,-0.356696754693985,0.055414829403162,1.0580236911773682,14.388002395629883,-5.856705665588379,-12.165060997009277,-0.577471137046814,-0.8354582190513611,-0.2834858298301697,0.034565433859825134,-0.7727715373039246,0.7825917601585388
303,369754,369756,-0.1727670431137085,-0.001542207202874124,1.0852299928665161,22.26250648498535,-8.748516082763672,-13.411285400390625,-0.5594720244407654,-0.8234587907791138,-0.28948551416397095,0.08887787163257599,-0.5322349667549133,0.6492686867713928
304,369764,369766,-0.11034313589334488,-0.16023914515972137,1.0481021404266357,19.301525115966797,-6.315243244171143,-13.233139038085938,-0.5879706144332886,-0.8279585838317871,-0.28198590874671936,0.16198967397212982,-0.34848764538764954,0.5204116106033325
305,369774,369776,-0.15289612114429474,-0.1847084015607834,1.0195385217666626,10.096922874450684,-1.472029209136963,-13.427334785461426,-0.5834708213806152,-0.8174591064453125,-0.28048595786094666,0.16196313500404358,-0.15979620814323425,0.3764888346195221
306,369784,369786,-0.7924922704696655,-0.3999127149581909,1.0072236061096191,-1.9114230871200562,2.5429999828338623,-14.915238380432129,-0.5744712948799133,-0.8174591064453125,-0.2834858298301697,0.12568414211273193,-0.22187191247940063,0.24103069305419922
307,369794,369796,-0.7394173741340637,-0.05023179575800896,0.9961645603179932,-15.59127140045166,7.846479415893555,-16.450666427612305,-0.5759711861610413,-0.8009599447250366,-0.2549872398376465,-0.05714546889066696,-0.4291619062423706,0.08803091198205948
308,369804,369806,-0.7159024477005005,-0.00200178031809628,1.0169602632522583,-22.69529151916504,10.486491203308105,-18.21044921875,-0.5714713931083679,-0.8084595799446106,-0.28048595786094666,-0.1621830016374588,-0.7759993076324463,-0.08877839148044586
309,369814,369816,-0.32071131467819214,-0.2949419319629669,1.0468544960021973,-22.922794342041016,9.781168937683105,-18.08510971069336,-0.5819708704948425,-0.797960102558136,-0.2549872398376465,-0.33390551805496216,-0.8802247047424316,-0.2695097327232361
310,369824,369826,-0.16231848299503326,-0.21385078132152557,0.9662618041038513,-20.298139572143555,11.178470611572266,-18.12551498413086,-0.5804709792137146,-0.8024598360061646,-0.2654867172241211,-0.42189499735832214,-1.2339354753494263,-0.45256462693214417
311,369834,369836,-0.5998822450637817,-0.23566171526908875,0.996711015701294,-10.547046661376953,8.268518447875977,-17.819135665893555,-0.5714713931083679,-0.8024598360061646,-0.2654867172241211,-0.5027698874473572,-1.3074239492416382,-0.6388556957244873
312,369844,369846,-0.6795431971549988,-0.20161619782447815,1.0467692613601685,0.522622287273407,3.18432354927063,-16.798900604248047,-0.5789710283279419,-0.8039597868919373,-0.27298635244369507,-0.5647947788238525,-1.2193658351898193,-0.8059741854667664
313,369854,369856,-0.30938586592674255,-0.20641613006591797,1.064697265625,10.144598960876465,-2.6281752586364746,-13.015254020690918,-0.5759711861610413,-0.8099594712257385,-0.26998651027679443,-0.4986652433872223,-1.1281564235687256,-0.9504284262657166
314,369864,369866,-0.2695561647415161,0.024500850588083267,0.9738215804100037,13.250843048095703,-3.1053171157836914,-11.009812355041504,-0.5834708213806152,-0.7994599938392639,-0.2834858298301697,-0.409537136554718,-1.0053129196166992,-1.0767134428024292
315,369874,369876,-0.29612526297569275,-0.25580817461013794,0.9430984854698181,13.247693061828613,-8.021139144897461,-9.410470962524414,-0.5924703478813171,-0.8114594221115112,-0.28948551416397095,-0.24144303798675537,-0.9345130324363708,-1.1775269508361816
316,369884,369886,-0.6381358504295349,-0.22025230526924133,0.9216468334197998,9.153572082519531,-7.9539313316345215,-6.573983669281006,-0.5744712948799133,-0.7994599938392639,-0.2744862735271454,-0.12336644530296326,-0.823121190071106,-1.2681045532226562
317,369894,369896,-0.35257086157798767,-0.16580992937088013,0.9816173911094666,6.840631008148193,-7.1503777503967285,-5.606623649597168,-0.5864706635475159,-0.8144592642784119,-0.28048595786094666,-0.07847321033477783,-0.70332270860672,-1.3182199001312256
318,369904,369906,-0.6738505959510803,-0.25212371349334717,0.9517834782600403,10.253450393676758,-3.9555885791778564,-6.622808933258057,-0.5819708704948425,-0.8189590573310852,-0.2759861946105957,-0.03697941079735756,-0.6181915402412415,-1.3891451358795166
319,369914,369916,-0.5004550218582153,-0.09243173152208328,0.9200678467750549,16.947669982910156,0.5985155701637268,-5.354765892028809,-0.5924703478813171,-0.8174591064453125,-0.277486115694046,-0.13429975509643555,-0.5087301135063171,-1.4395489692687988
320,369924,369926,-0.652068555355072,-0.304436594247818,1.0086910724639893,16.455272674560547,-0.40002915263175964,-2.5660088062286377,-0.5834708213806152,-0.8174591064453125,-0.2864856719970703,-0.12886054813861847,-0.2632526457309723,-1.4708185195922852
321,369934,369936,-0.6783545017242432,-0.3306952714920044,1.022618055343628,10.850922584533691,-2.8882827758789062,1.2248739004135132,-0.5834708213806152,-0.8174591064453125,-0.28948551416397095,-0.04012686386704445,-0.2067941576242447,-1.4857300519943237
322,369944,369946,-0.9138491153717041,-0.7082756757736206,1.006131649017334,4.681839942932129,-5.655956268310547,4.208224773406982,-0.5744712948799133,-0.8114594221115112,-0.2864856719970703,0.08488401770591736,-0.0866435244679451,-1.452282190322876
323,369954,369956,-0.6322504878044128,-0.4220804274082184,0.9984369874000549,-2.7274930477142334,-3.589280366897583,7.124370098114014,-0.5879706144332886,-0.8219588994979858,-0.2669866383075714,0.12494751065969467,-0.060567453503608704,-1.4038705825805664
324,369964,369966,-0.21852606534957886,-0.28847289085388184,1.0768290758132935,-10.718171119689941,0.9059129953384399,8.55202865600586,-0.577471137046814,-0.8294585347175598,-0.2744862735271454,0.027029866352677345,-0.17222429811954498,-1.3215771913528442
325,369974,369976,-0.06410212069749832,-0.06104334443807602,1.1241472959518433,-17.563201904296875,7.841967582702637,9.729984283447266,-0.5684715509414673,-0.8294585347175598,-0.2654867172241211,-0.09007196128368378,-0.3747814893722534,-1.2216697931289673
326,369984,369986,-0.09783624112606049,-0.2567283809185028,1.1363123655319214,-19.807626724243164,14.21651554107666,10.54460334777832,-0.5804709792137146,-0.80545973777771,-0.277486115694046,-0.20163942873477936,-0.6871808767318726,-1.1254997253417969
327,369994,369996,-0.05087808147072792,-0.18559038639068604,1.016798973083496,-21.142671585083008,20.614294052124023,11.068751335144043,-0.5834708213806152,-0.8084595799446106,-0.2744862735271454,-0.4723990559577942,-1.0126006603240967,-1.0087635517120361
328,370004,370006,-0.45685654878616333,-0.3946453928947449,0.953654408454895,-18.575700759887695,26.609630584716797,9.519085884094238,-0.5939702987670898,-0.8009599447250366,-0.2669866383075714,-0.6919720768928528,-1.1876331567764282,-0.9062358736991882
329,370014,370016,-1.012951374053955,-0.7433670163154602,0.9041680097579956,-8.65253734588623,24.221433639526367,6.699568271636963,-0.5924703478813171,-0.7934603095054626,-0.26248687505722046,-1.0040287971496582,-1.355920672416687,-0.828991174697876
330,370024,370026,-1.3022716045379639,-0.8092067837715149,0.917667031288147,10.720694541931152,16.682941436767578,4.604646682739258,-0.5939702987670898,-0.7919603586196899,-0.2639867961406708,-1.1337164640426636,-1.248441219329834,-0.7729645371437073
331,370034,370036,-0.5277319550514221,-0.8421947956085205,0.8930166363716125,31.009958267211914,5.218358993530273,3.2007083892822266,-0.6044697761535645,-0.8204589486122131,-0.27148643136024475,-1.1189147233963013,-0.8697069883346558,-0.7423692345619202
332,370044,370046,-0.02898414619266987,-0.6290449500083923,0.9819896817207336,44.30025100708008,-5.101119518280029,1.9948327541351318,-0.5969701409339905,-0.8129593133926392,-0.27898603677749634,-0.9573822021484375,-0.3926181197166443,-0.7315123081207275
333,370054,370056,-0.061465971171855927,-0.3957497179508209,0.9199684262275696,47.31260299682617,-16.781831741333008,1.364741563796997,-0.5879706144332886,-0.836958110332489,-0.28498575091362,-0.9999428391456604,-0.09934693574905396,-0.7293333411216736
334,370064,370066,-0.28921955823898315,-0.32005834579467773,0.9368705153465271,41.82850646972656,-30.907316207885742,1.7787325382232666,-0.5879706144332886,-0.8219588994979858,-0.2759861946105957,-0.5657737851142883,0.49661901593208313,-0.7204610109329224
335,370074,370076,-0.2761854827404022,-0.4075881540775299,0.9816828370094299,27.126222610473633,-37.45358657836914,3.0463063716888428,-0.5759711861610413,-0.8219588994979858,-0.29098543524742126,-0.17688891291618347,0.8611760139465332,-0.6914441585540771
336,370084,370086,-0.23305009305477142,-0.22786594927310944,1.0263671875,9.631255149841309,-40.14070129394531,2.108548641204834,-0.5639718174934387,-0.8459576964378357,-0.29098543524742126,0.2933318316936493,0.6856082677841187,-0.7227219939231873
337,370094,370096,-0.26952439546585083,-0.4615289270877838,0.9757501482963562,-3.414620876312256,-37.66401672363281,1.6949459314346313,-0.56997150182724,-0.8549572229385376,-0.28798559308052063,0.8204784393310547,0.6699091792106628,-0.7250586748123169
338,370104,370106,-0.24286897480487823,-0.5551546812057495,0.8517546653747559,-13.197354316711426,-23.998971939086914,1.866908073425293,-0.5654717087745667,-0.8384580612182617,-0.2924853563308716,1.0037003755569458,0.4840959310531616,-0.7088037729263306
339,370114,370116,-0.18505597114562988,-0.6901330947875977,0.8680554628372192,-16.369651794433594,-3.968402147293091,1.957516074180603,-0.5729713439941406,-0.8249587416648865,-0.27898603677749634,1.1714030504226685,0.3387872874736786,-0.6964731812477112
340,370124,370126,-0.17268052697181702,-0.5818294882774353,0.9454094171524048,-11.8258638381958,12.777556419372559,3.701199531555176,-0.5579720735549927,-0.8279585838317871,-0.27898603677749634,0.8323542475700378,0.23689571022987366,-0.6618742942810059
341,370134,370136,-0.1798989176750183,-0.20729146897792816,0.8830782771110535,0.06943245232105255,25.33003044128418,4.887655258178711,-0.5579720735549927,-0.8279585838317871,-0.27898603677749634,0.6419433951377869,0.22883649170398712,-0.6119514107704163
342,370144,370146,-0.3368449807167053,-0.5305296182632446,0.9102259874343872,8.826067924499512,30.28696632385254,5.631726264953613,-0.5579720735549927,-0.8279585838317871,-0.27898603677749634,0.24753516912460327,0.37311646342277527,-0.5487026572227478
343,370154,370156,-0.3338826298713684,-0.6430018544197083,0.933017909526825,16.02243995666504,26.2753963470459,3.9014899730682373,-0.5744712948799133,-0.8294585347175598,-0.2954852283000946,0.10156326740980148,0.4968714714050293,-0.507958710193634
344,370164,370166,-0.40718063712120056,-0.35261017084121704,0.9177234768867493,21.000558853149414,17.197223663330078,1.0753957033157349,-0.5714713931083679,-0.8414579033851624,-0.2924853563308716,-0.18566609919071198,0.713894248008728,-0.4824790954589844
345,370174,370176,-0.3972680866718292,-0.5935544371604919,0.9194563627243042,20.91392707824707,6.077763557434082,-2.4146933555603027,-0.5729713439941406,-0.8459576964378357,-0.2939853072166443,-0.3251681923866272,1.0172358751296997,-0.4903767704963684
346,370184,370186,-0.6310955286026001,-0.46466532349586487,0.9062583446502686,14.848285675048828,-0.5244449377059937,-5.489260673522949,-0.5714713931083679,-0.8414579033851624,-0.29848507046699524,-0.3534265458583832,1.2668073177337646,-0.5351821780204773
347,370194,370196,-0.6509857177734375,-0.3520161211490631,0.9698914289474487,2.652435541152954,-7.649340629577637,-7.727254390716553,-0.5564721822738647,-0.8624568581581116,-0.30748462677001953,-0.2736373543739319,1.3938857316970825,-0.5981325507164001
348,370204,370206,-0.8639554977416992,-0.3536987900733948,1.0356496572494507,-12.866174697875977,-18.260820388793945,-8.729968070983887,-0.5684715509414673,-0.8744562864303589,-0.31048446893692017,-0.1493859589099884,1.266989827156067,-0.6877934336662292
349,370214,370216,-0.3999728560447693,-0.20626534521579742,0.9885748624801636,-29.07552146911621,-27.86406898498535,-9.11927604675293,-0.5489725470542908,-0.8729563355445862,-0.31798410415649414,0.2501208484172821,0.8902547955513,-0.7778040170669556
350,370224,370226,-0.659130334854126,-0.11733032017946243,0.9870703816413879,-40.53065490722656,-28.81544303894043,-9.26966381072998,-0.5414729118347168,-0.8744562864303589,-0.31048446893692017,0.5699307322502136,0.367783784866333,-0.8759995698928833
351,370234,370236,-0.3962952494621277,-0.02288229577243328,1.04413640499115,-45.954559326171875,-20.611257553100586,-9.556853294372559,-0.5384730696678162,-0.8684565424919128,-0.3134843111038208,0.9281634092330933,-0.2663821578025818,-0.960726261138916
352,370244,370246,-0.37961500883102417,-0.12091465294361115,1.0314948558807373,-37.319969177246094,-10.823267936706543,-10.57727336883545,-0.5309734344482422,-0.8549572229385376,-0.3029848337173462,0.9788583517074585,-0.5434460639953613,-1.0700162649154663
353,370254,370256,-0.1295473575592041,-0.05621824413537979,1.043341040611267,-12.388243675231934,-0.10070095956325531,-12.744427680969238,-0.5444727540016174,-0.8534573316574097,-0.30748462677001953,0.8072004914283752,-0.7032946944236755,-1.2209187746047974
354,370264,370266,-0.24378685653209686,-0.22498659789562225,1.1538922786712646,17.9636173248291,2.0835704803466797,-13.402955055236816,-0.554972231388092,-0.8579570651054382,-0.3029848337173462,0.8169898390769958,-0.5408530831336975,-1.3477176427841187
355,370274,370276,-0.7023202180862427,-0.07059436291456223,1.1001936197280884,42.217742919921875,6.275068283081055,-13.873702049255371,-0.5669716596603394,-0.8549572229385376,-0.29098543524742126,0.7770972847938538,0.08587459474802017,-1.4906678199768066
356,370284,370286,-0.66213458776474,-0.03600522503256798,1.168199062347412,44.45060729980469,16.88519287109375,-13.804312705993652,-0.554972231388092,-0.8699564933776855,-0.3029848337173462,0.7330085039138794,0.5305778980255127,-1.6182926893234253
357,370294,370296,-0.16392488777637482,-0.007768436335027218,1.1472042798995972,41.34217834472656,21.338550567626953,-14.041084289550781,-0.5609719157218933,-0.8849557638168335,-0.3209839463233948,0.3450198769569397,0.8698011040687561,-1.7585279941558838
358,370304,370306,-0.33455199003219604,0.07834084331989288,1.1911051273345947,30.264511108398438,20.797163009643555,-14.881589889526367,-0.5864706635475159,-0.8684565424919128,-0.2954852283000946,0.14044520258903503,1.4245997667312622,-1.9090838432312012
359,370314,370316,-0.02721109800040722,-0.057764653116464615,1.081393837928772,18.75286102294922,14.702157974243164,-15.048710823059082,-0.5714713931083679,-0.8564571738243103,-0.3014849126338959,-0.08695004880428314,1.5563077926635742,-2.0492563247680664
360,370324,370326,-0.4211212396621704,-0.1514969915151596,1.0232688188552856,2.8939449787139893,4.952098369598389,-14.124505043029785,-0.5804709792137146,-0.8564571738243103,-0.3014849126338959,-0.18126912415027618,1.253268837928772,-2.179098606109619
361,370334,370336,-0.27575668692588806,-0.19246609508991241,1.045549750328064,-13.384499549865723,-8.577104568481445,-13.226987838745117,-0.5669716596603394,-0.851957380771637,-0.2939853072166443,-0.07614030689001083,1.1339447498321533,-2.308403730392456
362,370344,370346,-0.35012757778167725,-0.25487494468688965,1.0509192943572998,-19.060260772705078,-21.733766555786133,-11.672940254211426,-0.562471866607666,-0.8564571738243103,-0.28048595786094666,0.2772514224052429,0.9613509774208069,-2.4231226444244385
363,370354,370356,-0.5253926515579224,-0.4448840618133545,1.1437886953353882,-21.629268646240234,-29.109651565551758,-9.770758628845215,-0.5609719157218933,-0.8549572229385376,-0.29998499155044556,0.5208895206451416,0.8555117249488831,-2.540769577026367
364,370364,370366,-0.18105727434158325,-0.6336350440979004,0.9856080412864685,-17.450122833251953,-26.561899185180664,-7.7178215980529785,-0.5654717087745667,-0.8414579033851624,-0.2924853563308716,0.9878762364387512,0.5984073281288147,-2.604461431503296
365,370374,370376,-0.4376075863838196,-0.6995887160301208,0.9942591786384583,-12.132050514221191,-10.718375205993652,-8.291492462158203,-0.5684715509414673,-0.8474575877189636,-0.2924853563308716,1.009835958480835,0.46602293848991394,-2.7117745876312256
366,370384,370386,-0.25254178047180176,-0.18742267787456512,1.0328162908554077,-4.876079082489014,8.331136703491211,-7.614907741546631,-0.5729713439941406,-0.836958110332489,-0.2939853072166443,0.9568088054656982,0.5104132294654846,-2.8064019680023193
367,370394,370396,-0.3789187967777252,-0.091145820915699,1.0574990510940552,6.549177169799805,25.808883666992188,-7.553928852081299,-0.5579720735549927,-0.851957380771637,-0.2939853072166443,0.6262163519859314,0.575861930847168,-2.9059150218963623
368,370404,370406,-0.3535974323749542,-0.32209131121635437,1.0591678619384766,15.091765403747559,35.41108322143555,-6.116786479949951,-0.5879706144332886,-0.8549572229385376,-0.27898603677749634,0.18734732270240784,0.7879073023796082,-2.9890811443328857
369,370414,370416,-0.3175101578235626,-0.5324289798736572,1.0239626169204712,21.851484298706055,34.279048919677734,-5.423060894012451,-0.5759711861610413,-0.8399580121040344,-0.2939853072166443,-0.25212210416793823,1.0774953365325928,-3.062265157699585
370,370424,370426,-0.22238148748874664,-0.5765292048454285,1.0415830612182617,18.62905502319336,25.169471740722656,-4.124607563018799,-0.5729713439941406,-0.8549572229385376,-0.29998499155044556,-0.39065787196159363,1.1707499027252197,-3.0721471309661865
371,370434,370436,-0.5594947934150696,-0.22104443609714508,0.984623372554779,7.447750568389893,10.73180103302002,-4.181008815765381,-0.5729713439941406,-0.8669566512107849,-0.3119843900203705,-0.5261583924293518,1.3475793600082397,-3.106328010559082
372,370444,370446,-1.1105619668960571,0.028253236785531044,1.099269986152649,-4.903768062591553,-5.554797172546387,-4.099270820617676,-0.5729713439941406,-0.8399580121040344,-0.28798559308052063,-0.5165870189666748,1.2833707332611084,-3.13698673248291
373,370454,370456,-1.0555952787399292,-0.13884486258029938,1.0323162078857422,-13.597169876098633,-21.446313858032227,-5.605154514312744,-0.5639718174934387,-0.8549572229385376,-0.2939853072166443,-0.17391780018806458,1.012658953666687,-3.159590244293213
374,370464,370466,-0.42227286100387573,-0.09993559122085571,0.9220044612884521,-16.21914291381836,-26.408395767211914,-5.69330358505249,-0.5684715509414673,-0.8624568581581116,-0.2924853563308716,0.19008490443229675,0.8562901020050049,-3.2133171558380127
375,370474,370476,-0.6375629901885986,-0.5785245895385742,0.9763556718826294,-17.125507354736328,-26.85953140258789,-4.892495632171631,-0.5669716596603394,-0.8639568090438843,-0.3059847056865692,0.4091757535934448,0.7285255789756775,-3.283766269683838
376,370484,370486,-0.5508558750152588,-0.6247569918632507,0.969215452671051,-14.619194030761719,-25.77324104309082,-1.715358853340149,-0.562471866607666,-0.8414579033851624,-0.28948551416397095,0.5947279930114746,0.5075256824493408,-3.335385322570801
377,370494,370496,-0.5014727115631104,-0.46452781558036804,1.0285234451293945,-16.252580642700195,-18.75151824951172,1.4414931535720825,-0.5654717087745667,-0.844457745552063,-0.2834858298301697,0.740168571472168,0.4022536277770996,-3.3437581062316895
378,370504,370506,-1.0403382778167725,-0.4932354986667633,1.058491826057434,-14.335874557495117,-7.181029796600342,1.301391363143921,-0.5594720244407654,-0.850457489490509,-0.277486115694046,0.8894311785697937,0.29899463057518005,-3.3281033039093018
379,370514,370516,-1.0163841247558594,-0.2464853972196579,1.0677366256713867,-11.862492561340332,-1.1764914989471436,0.009881204925477505,-0.5684715509414673,-0.8474575877189636,-0.2864856719970703,0.8906729221343994,0.20504730939865112,-3.3268043994903564
380,370524,370526,-0.7320072650909424,0.04054398089647293,1.151998519897461,-1.6581470966339111,1.9749515056610107,0.3204832375049591,-0.5579720735549927,-0.8489575386047363,-0.29998499155044556,0.862078070640564,0.1899297833442688,-3.333400011062622
381,370534,370536,-0.3022150993347168,0.022177206352353096,1.0920662879943848,6.247524738311768,12.968245506286621,2.14667010307312,-0.56997150182724,-0.8579570651054382,-0.2939853072166443,0.6463282704353333,0.23796521127223969,-3.337573289871216
382,370544,370546,-0.40723198652267456,-0.03980720043182373,1.1115574836730957,17.606201171875,19.89507293701172,2.6156005859375,-0.5684715509414673,-0.8324583768844604,-0.29848507046699524,0.47932520508766174,0.4397515654563904,-3.3173418045043945
383,370554,370556,-0.37257489562034607,-0.3894312381744385,1.0433218479156494,25.943540573120117,25.801631927490234,0.8976452946662903,-0.5729713439941406,-0.8429578542709351,-0.29098543524742126,0.11385812610387802,0.7386625409126282,-3.320889949798584
384,370564,370566,-0.4408559501171112,-0.4000525176525116,1.0928391218185425,24.028644561767578,19.126750946044922,0.3904370665550232,-0.5789710283279419,-0.851957380771637,-0.28198590874671936,0.04092041030526161,0.7598358392715454,-3.2783312797546387
385,370574,370576,-0.39822113513946533,-0.3541966676712036,1.0596232414245605,16.178396224975586,14.106059074401855,0.27279117703437805,-0.5924703478813171,-0.8474575877189636,-0.2864856719970703,-0.1499619036912918,1.0432376861572266,-3.2802507877349854
386,370584,370586,-0.15594489872455597,-0.24643047153949738,1.0865191221237183,11.252767562866211,9.81458854675293,1.1306171417236328,-0.5849707126617432,-0.836958110332489,-0.27898603677749634,-0.24276235699653625,1.2162977457046509,-3.262603282928467
387,370594,370596,-0.3616009056568146,-0.17890103161334991,1.0195358991622925,4.596301555633545,7.73495626449585,1.5593942403793335,-0.5984700918197632,-0.8354582190513611,-0.2924853563308716,-0.29738283157348633,1.1663012504577637,-3.2404444217681885
388,370604,370606,-1.1749463081359863,-0.711392343044281,0.9894493818283081,-4.61621618270874,3.4785354137420654,4.894321441650391,-0.5819708704948425,-0.8339582681655884,-0.28198590874671936,-0.28917843103408813,1.1355191469192505,-3.1956183910369873
389,370614,370616,-1.1645379066467285,-0.24823784828186035,1.0071539878845215,-11.858718872070312,-0.2287580966949463,7.79832124710083,-0.5819708704948425,-0.8339582681655884,-0.28498575091362,-0.33087679743766785,0.9794379472732544,-3.134343147277832
390,370624,370626,-0.2763500213623047,0.052124034613370895,0.9225287437438965,-15.592966079711914,-5.340705871582031,9.798748970031738,-0.5834708213806152,-0.8234587907791138,-0.28048595786094666,-0.3110460638999939,0.8144813179969788,-3.0454137325286865
391,370634,370636,-0.010782016441226006,-0.11297287046909332,1.0717487335205078,-22.799705505371094,-9.683256149291992,11.166546821594238,-0.5804709792137146,-0.8264586329460144,-0.28048595786094666,-0.14580215513706207,0.5163072347640991,-2.9267520904541016
392,370644,370646,-0.21527990698814392,0.005882611032575369,1.1211820840835571,-24.04716682434082,-14.010058403015137,11.833256721496582,-0.577471137046814,-0.8384580612182617,-0.28948551416397095,0.08580338209867477,0.3974122703075409,-2.79885196685791
393,370654,370656,-0.5576366782188416,-0.3445494472980499,0.99897301197052,-22.16320037841797,-10.416877746582031,11.274324417114258,-0.5804709792137146,-0.8234587907791138,-0.28048595786094666,0.27302613854408264,0.06728800386190414,-2.6714866161346436
394,370664,370666,-0.4378488063812256,-0.2492142617702484,0.9195983409881592,-17.018123626708984,-2.5891969203948975,9.78964614868164,-0.5879706144332886,-0.8249587416648865,-0.27298635244369507,0.3597172796726227,0.04256119579076767,-2.561021566390991
395,370674,370676,-0.44082534313201904,-0.11191612482070923,0.895541250705719,-7.119762897491455,7.967266082763672,9.534313201904297,-0.5759711861610413,-0.8189590573310852,-0.27298635244369507,0.2654293477535248,-0.14409935474395752,-2.4678597450256348
396,370684,370686,-0.1692221462726593,-0.18082551658153534,0.9211720824241638,0.7082085013389587,17.561481475830078,8.523222923278809,-0.5864706635475159,-0.8234587907791138,-0.2654867172241211,0.08733490109443665,-0.18278169631958008,-2.3834314346313477
397,370694,370696,-0.3686172068119049,-0.269633024930954,1.0300313234329224,8.4111328125,19.079200744628906,7.305257797241211,-0.5894705057144165,-0.8234587907791138,-0.2744862735271454,0.02293962985277176,-0.08825991302728653,-2.2890210151672363
398,370704,370706,-0.17519253492355347,-0.1959935575723648,0.9913960099220276,13.016039848327637,17.295740127563477,5.628021717071533,-0.5909704566001892,-0.8159592151641846,-0.2939853072166443,-0.30050593614578247,0.08708162605762482,-2.2358672618865967
399,370714,370716,-0.24985536932945251,-0.2935190498828888,0.9215589165687561,18.66593360900879,7.316991806030273,5.271833419799805,-0.5819708704948425,-0.8399580121040344,-0.26098695397377014,-0.19099994003772736,0.3530939221382141,-2.163424253463745
400,370724,370726,-0.24707743525505066,-0.1902780681848526,0.8543630242347717,20.504098892211914,-4.7731122970581055,5.129183769226074,-0.5804709792137146,-0.844457745552063,-0.2744862735271454,-0.22179195284843445,0.5164742469787598,-2.1154682636260986
401,370734,370736,-0.3993533253669739,-0.09589271992444992,0.870289146900177,17.692413330078125,-11.770330429077148,6.345973968505859,-0.5909704566001892,-0.8399580121040344,-0.28198590874671936,-0.10350365191698074,0.736461877822876,-2.063279867172241
402,370744,370746,-0.30313825607299805,-0.422707200050354,0.9741490483283997,7.9093852043151855,-13.302058219909668,7.217376232147217,-0.5924703478813171,-0.8234587907791138,-0.2954852283000946,0.06465314328670502,0.8227909207344055,-1.996596097946167
403,370754,370756,-0.4378521144390106,-0.24403497576713562,1.0131207704544067,-3.3446381092071533,-10.00655746459961,7.590282440185547,-0.5834708213806152,-0.8474575877189636,-0.28948551416397095,0.09877608716487885,0.7912909984588623,-1.9275643825531006
404,370764,370766,-0.4430004358291626,-0.3761141896247864,1.0062421560287476,-15.669577598571777,-1.9137046337127686,8.14413833618164,-0.5879706144332886,-0.851957380771637,-0.28498575091362,0.13459759950637817,0.5759531855583191,-1.853743553161621
405,370774,370776,-0.4550173878669739,-0.06253974139690399,1.046803593635559,-28.457841873168945,11.341315269470215,8.628907203674316,-0.577471137046814,-0.8294585347175598,-0.2864856719970703,-0.024886611849069595,0.22702495753765106,-1.7704453468322754
406,370784,370786,-0.6905657052993774,0.13439495861530304,1.0940542221069336,-33.9050407409668,16.473419189453125,6.154496192932129,-0.5579720735549927,-0.8309584259986877,-0.28798559308052063,-0.23311853408813477,0.15038789808750153,-1.6870603561401367
407,370794,370796,-0.4712122082710266,0.1394284963607788,1.1165730953216553,-27.667438507080078,16.783512115478516,4.864404201507568,-0.5714713931083679,-0.8354582190513611,-0.2954852283000946,-0.37193620204925537,-0.23731878399848938,-1.6348035335540771
408,370804,370806,-1.230825424194336,0.046091821044683456,1.127593755722046,-13.663028717041016,14.369938850402832,6.205175876617432,-0.5714713931083679,-0.8294585347175598,-0.2834858298301697,-0.6009833812713623,-0.558353841304779,-1.5879658460617065
409,370814,370816,-1.0211257934570312,-0.4323957860469818,1.1442410945892334,1.1877927780151367,12.857840538024902,7.33203125,-0.5879706144332886,-0.8219588994979858,-0.28198590874671936,-0.42181071639060974,-0.5580408573150635,-1.506386399269104
410,370824,370826,-0.631417989730835,-1.023879051208496,1.0898209810256958,13.112919807434082,7.986168384552002,7.118139266967773,-0.5729713439941406,-0.8219588994979858,-0.28498575091362,-0.5932313203811646,-0.40665510296821594,-1.4254039525985718
411,370834,370836,-0.5605238080024719,-0.441118061542511,1.0031670331954956,17.50467872619629,8.969167709350586,8.160920143127441,-0.5804709792137146,-0.8174591064453125,-0.28948551416397095,-0.6325455904006958,-0.24090982973575592,-1.3448121547698975
412,370844,370846,-0.4890795946121216,-0.1618925929069519,0.9793091416358948,11.656750679016113,10.487064361572266,6.686329364776611,-0.5924703478813171,-0.8294585347175598,-0.277486115694046,-0.741894543170929,-0.0336606502532959,-1.2664068937301636
413,370854,370856,-0.27489665150642395,-0.3476274609565735,1.060258150100708,3.441970109939575,7.8302717208862305,5.216337203979492,-0.5864706635475159,-0.8144592642784119,-0.2924853563308716,-0.7894468903541565,0.03320297971367836,-1.2017067670822144
414,370864,370866,-0.3794475495815277,-0.46754536032676697,1.0643949508666992,-2.9720466136932373,3.851869583129883,4.277126789093018,-0.5894705057144165,-0.8144592642784119,-0.277486115694046,-0.8172443509101868,-0.00795502308756113,-1.1623964309692383
415,370874,370876,-0.6025943756103516,-0.39605391025543213,0.9888356328010559,-5.049919128417969,-2.164795160293579,5.331820487976074,-0.5744712948799133,-0.8204589486122131,-0.2834858298301697,-0.7870745658874512,-0.07878648489713669,-1.118908166885376
416,370884,370886,-0.8036466836929321,-0.3350159525871277,0.8961001634597778,-4.462776184082031,-5.106160640716553,6.841877460479736,-0.5834708213806152,-0.8174591064453125,-0.2834858298301697,-0.6964660286903381,-0.17061588168144226,-1.0646510124206543
417,370894,370896,-0.43499621748924255,-0.21162055432796478,0.9521494507789612,-2.815633773803711,-5.666553974151611,8.204161643981934,-0.5879706144332886,-0.8189590573310852,-0.27898603677749634,-0.6755146980285645,-0.218345507979393,-0.9951239228248596
418,370904,370906,-0.7052220702171326,-0.2317095398902893,0.9561388492584229,-3.501901626586914,-8.42728042602539,8.907134056091309,-0.5759711861610413,-0.8249587416648865,-0.28798559308052063,-0.6112420558929443,-0.21182332932949066,-0.9077906608581543
419,370914,370916,-0.9917151927947998,-0.47274962067604065,0.9717634320259094,-7.620468616485596,-6.964422702789307,10.83741569519043,-0.5744712948799133,-0.8294585347175598,-0.2864856719970703,-0.5699878334999084,-0.3193759322166443,-0.8153697848320007
420,370924,370926,-0.7170778512954712,-0.012783477082848549,0.9222837090492249,-13.965520858764648,-5.104796886444092,9.280171394348145,-0.5819708704948425,-0.8309584259986877,-0.29098543524742126,-0.534611165523529,-0.45631301403045654,-0.7219589352607727
421,370934,370936,-0.4631887376308441,0.0670369565486908,1.0055512189865112,-18.55829620361328,-3.806166648864746,9.893743515014648,-0.5804709792137146,-0.8174591064453125,-0.277486115694046,-0.5701166391372681,-0.5350697636604309,-0.608452558517456
422,370944,370946,-0.10171271115541458,-0.01261804811656475,1.0023716688156128,-16.2797908782959,2.3280673027038574,10.350866317749023,-0.5594720244407654,-0.8294585347175598,-0.28048595786094666,-0.6266010403633118,-0.7726631760597229,-0.5112724304199219
423,370954,370956,-0.03566336631774902,-0.028221549466252327,0.9816819429397583,-11.62387466430664,8.393739700317383,9.312578201293945,-0.5594720244407654,-0.8294585347175598,-0.28048595786094666,-0.7638952136039734,-0.9178745746612549,-0.41002488136291504
424,370964,370966,-0.4802342653274536,-0.639432430267334,1.0131430625915527,-3.7433900833129883,10.763483047485352,8.323347091674805,-0.5594720244407654,-0.8294585347175598,-0.28048595786094666,-0.8339085578918457,-1.042053461074829,-0.3323953449726105
425,370974,370976,-0.40496334433555603,-0.3554469645023346,0.9503283500671387,0.9057812690734863,7.567272663116455,7.623538494110107,-0.56997150182724,-0.8189590573310852,-0.28498575091362,-0.9528303146362305,-1.05646550655365,-0.2621580958366394
426,370984,370986,-0.6397954225540161,-0.4390484392642975,1.030686855316162,4.2121663093566895,-0.6398364901542664,6.574452877044678,-0.5759711861610413,-0.836958110332489,-0.28498575091362,-0.9916002750396729,-1.003233551979065,-0.1870221495628357
427,370994,370996,-0.6035071611404419,-0.24326808750629425,1.0525550842285156,5.941832065582275,-4.468045234680176,6.45805025100708,-0.5789710283279419,-0.8339582681655884,-0.2759861946105957,-0.9689732789993286,-0.9232569932937622,-0.12052827328443527
428,371004,371006,-0.7093530297279358,-0.21001353859901428,1.031766653060913,9.6934175491333,-6.725119113922119,5.669199466705322,-0.56997150182724,-0.8249587416648865,-0.28498575091362,-0.8929234147071838,-0.7788073420524597,-0.0531066469848156
429,371014,371016,-0.6445872187614441,-0.44824859499931335,1.0035039186477661,13.559544563293457,-8.6989164352417,6.249464511871338,-0.5834708213806152,-0.844457745552063,-0.28948551416397095,-0.7992880344390869,-0.5799084305763245,0.016632912680506706
430,371024,371026,-0.8886468410491943,-0.37180304527282715,0.9764155745506287,18.480426788330078,-7.656310558319092,6.7451629638671875,-0.5864706635475159,-0.8294585347175598,-0.2864856719970703,-0.7369691729545593,-0.32683703303337097,0.088764488697052
431,371034,371036,-0.2250911146402359,-0.12851274013519287,1.0289322137832642,21.71050262451172,-10.242583274841309,7.276119709014893,-0.5804709792137146,-0.8474575877189636,-0.28048595786094666,-0.6087762713432312,-0.07042445242404938,0.15472738444805145
432,371044,371046,-0.08130782097578049,-0.10322129726409912,0.9941344261169434,17.69558334350586,-12.91416072845459,8.09272289276123,-0.5729713439941406,-0.8399580121040344,-0.28498575091362,-0.4487025737762451,0.011772364377975464,0.2042805254459381
433,371054,371056,-0.13595102727413177,-0.22108648717403412,0.9911728501319885,10.685883522033691,-14.398548126220703,8.658891677856445,-0.5729713439941406,-0.8429578542709351,-0.28498575091362,-0.35074716806411743,0.06927624344825745,0.2684866487979889
434,371064,371066,-0.19616186618804932,-0.13206680119037628,1.0352345705032349,3.8559861183166504,-14.72885513305664,8.830180168151855,-0.5879706144332886,-0.836958110332489,-0.27298635244369507,-0.210942342877388,0.15222369134426117,0.34935593605041504
435,371074,371076,-1.0431591272354126,-0.6394220590591431,1.0667120218276978,-1.0450936555862427,-14.693615913391113,9.193347930908203,-0.5654717087745667,-0.8384580612182617,-0.28048595786094666,-0.056801699101924896,0.15060825645923615,0.4380170404911041
436,371084,371086,-0.591667115688324,-0.6616590619087219,1.013540267944336,-9.499929428100586,-10.696024894714355,10.084619522094727,-0.5729713439941406,-0.851957380771637,-0.29998499155044556,0.09579847007989883,0.03951779752969742,0.5125580430030823
437,371094,371096,-1.1277028322219849,-0.7241839170455933,1.0150974988937378,-16.881439208984375,-7.583968639373779,12.272665977478027,-0.5579720735549927,-0.8159592151641846,-0.27898603677749634,0.1873544454574585,-0.19140495359897614,0.6044647097587585
438,371104,371106,-0.6905068755149841,-0.45939159393310547,0.9521238803863525,-20.578310012817383,0.2508321702480316,13.513304710388184,-0.5639718174934387,-0.8189590573310852,-0.28798559308052063,0.18153266608715057,-0.36047419905662537,0.7365421056747437
439,371114,371116,-0.1120985597372055,-0.24518635869026184,0.9301061034202576,-21.919790267944336,12.828479766845703,14.1311674118042,-0.5654717087745667,-0.8294585347175598,-0.2834858298301697,0.011037584394216537,-0.5799594521522522,0.8920758366584778
440,371124,371126,-0.09799743443727493,-0.09046623855829239,0.9553794264793396,-18.253076553344727,26.007577896118164,12.615114212036133,-0.5804709792137146,-0.8324583768844604,-0.27148643136024475,-0.2971014380455017,-0.755330502986908,1.0295780897140503
441,371134,371136,-1.0979621410369873,-0.36029207706451416,0.999041736125946,-8.353571891784668,33.46299362182617,10.020159721374512,-0.5804709792137146,-0.8174591064453125,-0.2834858298301697,-0.6474618911743164,-0.937947154045105,1.137320876121521
442,371144,371146,-1.0457175970077515,-0.2867250442504883,1.0511846542358398,3.730747938156128,34.031455993652344,8.217416763305664,-0.56997150182724,-0.8249587416648865,-0.28198590874671936,-0.8821474313735962,-0.9314768314361572,1.2217483520507812
443,371154,371156,-0.9225327372550964,-0.5335041880607605,1.03513503074646,17.37346076965332,27.208436965942383,6.796577453613281,-0.5669716596603394,-0.8339582681655884,-0.27898603677749634,-0.9588704705238342,-0.6989268660545349,1.272497296333313
444,371164,371166,-0.2588357925415039,-0.12732219696044922,1.0159807205200195,23.296741485595703,13.837132453918457,7.110790252685547,-0.5759711861610413,-0.8339582681655884,-0.29098543524742126,-1.1799283027648926,-0.5486827492713928,1.3442986011505127
445,371174,371176,-0.4121614098548889,-0.3836285173892975,0.9709583520889282,25.141023635864258,-1.141200304031372,6.037432670593262,-0.5654717087745667,-0.844457745552063,-0.28948551416397095,-1.2065600156784058,-0.20538906753063202,1.4151257276535034
446,371184,371186,-0.8995857238769531,-0.2775565981864929,0.9693669080734253,21.787076950073242,-17.2359676361084,6.088192462921143,-0.5744712948799133,-0.8474575877189636,-0.28948551416397095,-0.9662489891052246,-0.04710185155272484,1.4466848373413086
447,371194,371196,-1.1778358221054077,-0.06245911121368408,1.0406253337860107,16.941869735717773,-30.901933670043945,7.801817417144775,-0.5669716596603394,-0.8459576964378357,-0.29098543524742126,-0.5218334197998047,0.2714979648590088,1.5161421298980713
448,371204,371206,-1.1003021001815796,-0.20963583886623383,1.0187675952911377,12.827441215515137,-32.337738037109375,9.636017799377441,-0.5609719157218933,-0.8459576964378357,-0.3029848337173462,-0.3119024634361267,0.35659849643707275,1.6089730262756348
449,371214,371216,-0.35230523347854614,0.02003205008804798,1.1035757064819336,5.423074245452881,-24.402772903442383,13.492965698242188,-0.56997150182724,-0.8579570651054382,-0.29098543524742126,0.10937926173210144,0.41652724146842957,1.7048958539962769
450,371224,371226,-0.16999119520187378,0.13362401723861694,1.097997784614563,-4.151891231536865,-9.6678466796875,17.557167053222656,-0.5744712948799133,-0.8384580612182617,-0.28948551416397095,0.11499498039484024,0.3438159227371216,1.8731153011322021
451,371234,371236,-0.1641922891139984,-0.01865193620324135,1.0560154914855957,-14.0269775390625,4.71270751953125,18.666278839111328,-0.5714713931083679,-0.844457745552063,-0.28948551416397095,0.08181828260421753,0.17107151448726654,2.0570266246795654
452,371244,371246,-0.21165604889392853,-0.07714243978261948,1.0306357145309448,-20.536867141723633,15.56800651550293,17.489187240600586,-0.5564721822738647,-0.8474575877189636,-0.2744862735271454,-0.15903161466121674,-0.04860043153166771,2.242518424987793
453,371254,371256,-0.7309385538101196,-0.3211922347545624,0.9870477914810181,-23.888948440551758,23.01441192626953,16.711578369140625,-0.5684715509414673,-0.8294585347175598,-0.26848655939102173,-0.3654833734035492,-0.12179044634103775,2.4281046390533447
454,371264,371266,-0.2829519212245941,-0.17449435591697693,0.955694317817688,-24.493446350097656,24.45975685119629,15.397138595581055,-0.5714713931083679,-0.8204589486122131,-0.28048595786094666,-0.7111603021621704,-0.5263637900352478,2.578247308731079
455,371274,371276,-0.08336260169744492,-0.10906102508306503,0.9818195700645447,-17.43740463256836,22.8968505859375,11.672710418701172,-0.56997150182724,-0.8189590573310852,-0.2669866383075714,-0.8688100576400757,-0.6951374411582947,2.7159264087677
456,371284,371286,-0.0452677458524704,-0.009148256853222847,0.9236964583396912,-8.578812599182129,16.266881942749023,7.5869622230529785,-0.5729713439941406,-0.8099594712257385,-0.27898603677749634,-1.1205759048461914,-0.8089202046394348,2.811173915863037
457,371294,371296,-0.04531799256801605,0.10120411217212677,1.0132838487625122,3.782839775085449,6.022282123565674,6.551257133483887,-0.577471137046814,-0.8174591064453125,-0.277486115694046,-1.165361762046814,-0.8115918040275574,2.877401828765869
458,371304,371306,-0.0829588994383812,0.11610829830169678,1.021735429763794,20.534900665283203,-9.275876998901367,6.508986473083496,-0.5714713931083679,-0.8204589486122131,-0.28048595786094666,-1.1355994939804077,-0.6391367316246033,2.9519104957580566
459,371314,371316,-0.10838110744953156,0.16114793717861176,0.9863559603691101,39.50795364379883,-26.289024353027344,6.584019660949707,-0.5759711861610413,-0.8399580121040344,-0.27298635244369507,-0.8523967862129211,-0.16186250746250153,3.027202844619751
460,371324,371326,-0.4382613003253937,0.1251816749572754,0.9702457785606384,46.43345642089844,-34.238739013671875,6.912330627441406,-0.5789710283279419,-0.8339582681655884,-0.29998499155044556,-0.5069522261619568,0.28251492977142334,3.0868148803710938
461,371334,371336,-0.27768561244010925,-0.07672876864671707,1.025134563446045,39.04974365234375,-34.642417907714844,8.348657608032227,-0.5759711861610413,-0.851957380771637,-0.28798559308052063,0.03687268868088722,0.6190129518508911,3.130451202392578
462,371344,371346,-0.0996764600276947,-0.43193671107292175,0.8805447220802307,26.249940872192383,-29.937829971313477,8.136940002441406,-0.5654717087745667,-0.8564571738243103,-0.277486115694046,0.3072004020214081,0.7733482122421265,3.198692560195923
463,371354,371356,-0.2925369143486023,-0.3818041682243347,0.8952925205230713,12.430233001708984,-20.663589477539062,5.95654296875,-0.5594720244407654,-0.8414579033851624,-0.2924853563308716,0.45641934871673584,0.9988734126091003,3.2761590480804443
464,371364,371366,-0.32839035987854004,-0.23793016374111176,0.9138185977935791,-4.933468818664551,-15.276715278625488,3.3587746620178223,-0.5489725470542908,-0.8399580121040344,-0.28198590874671936,0.7017591595649719,1.034402847290039,3.3166987895965576
465,371374,371376,-0.15705162286758423,-0.031191730871796608,0.9407879114151001,-23.070390701293945,-5.930253982543945,1.019771933555603,-0.5474725961685181,-0.8384580612182617,-0.29848507046699524,0.6843154430389404,0.7747931480407715,3.3354151248931885
466,371384,371386,-0.0978316068649292,0.14456403255462646,1.0414100885391235,-33.809425354003906,4.213231086730957,-1.671849012374878,-0.5429728627204895,-0.836958110332489,-0.28498575091362,0.6336043477058411,0.3635917901992798,3.3264620304107666
467,371394,371396,-0.09547584503889084,0.16410371661186218,1.0234482288360596,-33.3004264831543,12.841837882995605,-2.690001964569092,-0.5504724383354187,-0.8384580612182617,-0.28948551416397095,0.5082067847251892,0.10800963640213013,3.301089286804199
468,371404,371406,-0.0491238608956337,0.026641305536031723,0.977657675743103,-24.479782104492188,22.225255966186523,-0.9251083731651306,-0.5489725470542908,-0.8279585838317871,-0.28798559308052063,0.19319908320903778,-0.19383573532104492,3.2773361206054688
469,371414,371416,-0.09723847359418869,-0.04608432948589325,1.0342282056808472,-6.2660112380981445,31.774972915649414,2.4601573944091797,-0.5579720735549927,-0.8429578542709351,-0.28798559308052063,-0.12102270126342773,-0.1836172342300415,3.281466007232666
470,371424,371426,-0.0376981683075428,-0.01916441135108471,1.0139297246932983,11.70255184173584,33.51848220825195,6.685028076171875,-0.5654717087745667,-0.8384580612182617,-0.2954852283000946,-0.46025002002716064,-0.1476622223854065,3.3300766944885254
471,371434,371436,-0.16894377768039703,-0.34551870822906494,1.0686649084091187,22.099403381347656,24.822439193725586,8.768287658691406,-0.56997150182724,-0.8309584259986877,-0.28198590874671936,-0.6950156688690186,0.17762553691864014,3.411233901977539
472,371444,371446,-0.3549143373966217,-0.4978399872779846,1.0740495920181274,24.133134841918945,13.265534400939941,10.005023956298828,-0.5849707126617432,-0.8459576964378357,-0.28198590874671936,-0.7861620187759399,0.28538978099823,3.5155951976776123
