,timestamp_start,timestamp_end,acc.x,acc.y,acc.z,gyro.x,gyro.y,gyro.z,mag.x,mag.y,mag.z,stabilizer.pitch,stabilizer.roll,stabilizer.yaw
0,538766,538767,-0.5453029870986938,-0.194772869348526,0.9433085918426514,35.25020980834961,-11.56157112121582,1.779847502708435,-0.5939702987670898,-0.8399580121040344,-0.27298635244369507,-1.0693913698196411,2.0227584838867188,-7.67812442779541
1,538776,538777,-0.2519514560699463,-0.32643768191337585,0.8667216897010803,35.521297454833984,-14.935541152954102,5.460884094238281,-0.5834708213806152,-0.844457745552063,-0.2924853563308716,-0.7657135128974915,2.160921335220337,-7.6748366355896
2,538786,538787,-0.5949313640594482,-0.3297213912010193,0.9547316431999207,26.142333984375,-14.572909355163574,8.662110328674316,-0.5744712948799133,-0.8684565424919128,-0.29848507046699524,-0.6999696493148804,2.553011655807495,-7.640316486358643
3,538796,538797,-0.9548829793930054,-0.12448505312204361,0.9592669606208801,14.352201461791992,-8.845675468444824,12.495769500732422,-0.5744712948799133,-0.8654567003250122,-0.2954852283000946,-0.6039488315582275,2.923447370529175,-7.56184196472168
4,538806,538807,-0.715376079082489,-0.20644423365592957,0.9157546162605286,-3.8639445304870605,-0.8779411315917969,15.487860679626465,-0.56997150182724,-0.851957380771637,-0.29998499155044556,-0.4534476399421692,2.8535592555999756,-7.445796966552734
5,538816,538817,-0.6963952779769897,-0.49772587418556213,0.9870578646659851,-23.763948440551758,5.46180534362793,16.742422103881836,-0.5714713931083679,-0.8714563846588135,-0.31048446893692017,-0.5252323150634766,2.8290927410125732,-7.313836097717285
6,538826,538827,-0.6934541463851929,-0.953705906867981,1.0223439931869507,-36.97745895385742,13.659652709960938,16.913236618041992,-0.5744712948799133,-0.8684565424919128,-0.3044847846031189,-0.5050952434539795,2.5870256423950195,-7.136427879333496
7,538836,538837,-0.608932375907898,-0.3346443772315979,1.0339653491973877,-40.15126419067383,22.590316772460938,14.811779975891113,-0.5669716596603394,-0.8699564933776855,-0.3119843900203705,-0.8424652218818665,2.2346622943878174,-7.0026469230651855
8,538846,538847,-0.46283799409866333,-0.1340600550174713,1.0030463933944702,-39.598350524902344,30.680896759033203,11.540613174438477,-0.562471866607666,-0.8624568581581116,-0.3134843111038208,-0.9685404896736145,1.5491048097610474,-6.823624134063721
9,538856,538857,-0.16869591176509857,-0.6000763177871704,1.1256377696990967,-29.06699562072754,28.052385330200195,8.586148262023926,-0.5579720735549927,-0.8669566512107849,-0.29098543524742126,-1.2255308628082275,1.472410798072815,-6.698176383972168
10,538866,538867,-0.11627331376075745,-0.747910737991333,1.194053053855896,-12.719175338745117,30.214675903320312,4.295888900756836,-0.5639718174934387,-0.8489575386047363,-0.3059847056865692,-1.587842583656311,1.1962242126464844,-6.619633674621582
11,538876,538877,-0.13141049444675446,-0.19378405809402466,1.053756833076477,5.823433876037598,19.56396484375,3.6472253799438477,-0.5759711861610413,-0.851957380771637,-0.29998499155044556,-1.705005407333374,1.1256986856460571,-6.540107250213623
12,538886,538887,-0.3602675795555115,-0.0042642769403755665,1.0193580389022827,19.865331649780273,7.114673614501953,4.976402282714844,-0.5759711861610413,-0.8549572229385376,-0.3029848337173462,-1.8875845670700073,1.2454054355621338,-6.493513107299805
13,538896,538897,-0.20269344747066498,-0.2619328200817108,0.9881981015205383,21.730337142944336,-5.784793376922607,5.736368179321289,-0.5849707126617432,-0.8699564933776855,-0.3119843900203705,-2.0503666400909424,1.4086793661117554,-6.450855731964111
14,538906,538907,-0.09762346744537354,-0.4239148795604706,1.043300986289978,13.035514831542969,-17.590946197509766,6.419075012207031,-0.5909704566001892,-0.8579570651054382,-0.2969851493835449,-1.847909688949585,1.5820814371109009,-6.38799524307251
15,538916,538917,-0.5192700624465942,-0.5181856751441956,1.0252394676208496,-4.34429407119751,-27.0733699798584,6.668247699737549,-0.5909704566001892,-0.8639568090438843,-0.3029848337173462,-1.6100223064422607,1.5925610065460205,-6.3334221839904785
16,538926,538927,-0.6672977805137634,-0.7510484457015991,0.9620721936225891,-16.024770736694336,-26.56134796142578,5.954450607299805,-0.5789710283279419,-0.8669566512107849,-0.3059847056865692,-1.2718849182128906,1.5675283670425415,-6.271393299102783
17,538936,538937,-0.379181444644928,-0.7528855800628662,1.027462363243103,-20.63837242126465,-19.481990814208984,5.023164749145508,-0.577471137046814,-0.8564571738243103,-0.3164841830730438,-0.9644288420677185,1.3005993366241455,-6.225088596343994
18,538946,538947,-0.23721957206726074,-0.5917946696281433,1.012321949005127,-20.147005081176758,-8.362998962402344,4.319045543670654,-0.5669716596603394,-0.8549572229385376,-0.3029848337173462,-0.8501434326171875,1.1049227714538574,-6.181825160980225
19,538956,538957,-0.2979787588119507,-0.26653286814689636,1.0129963159561157,-15.757737159729004,6.185136795043945,4.484570026397705,-0.5819708704948425,-0.8549572229385376,-0.28798559308052063,-0.9195296168327332,1.060278058052063,-6.140205383300781
20,538966,538967,-0.407253235578537,-0.3356480896472931,1.095738410949707,-12.42894458770752,18.22464370727539,4.501223087310791,-0.5729713439941406,-0.8579570651054382,-0.29098543524742126,-1.03798246383667,0.790276825428009,-6.099442958831787
21,538976,538977,-0.19662697613239288,-0.13482852280139923,1.0659096240997314,-4.778172969818115,23.014827728271484,4.320040225982666,-0.5714713931083679,-0.8384580612182617,-0.2924853563308716,-0.9845401048660278,0.6137834191322327,-6.051966667175293
22,538986,538987,-0.48363643884658813,-0.11947459727525711,0.9897588491439819,0.5252857804298401,19.96026039123535,5.758711338043213,-0.5714713931083679,-0.8474575877189636,-0.2924853563308716,-1.4122576713562012,0.6167205572128296,-6.003880023956299
23,538996,538997,-0.642524778842926,0.05116330832242966,1.0008457899093628,2.0143940448760986,15.082413673400879,4.875443458557129,-0.5804709792137146,-0.8324583768844604,-0.2924853563308716,-1.7127853631973267,0.6124388575553894,-5.9458184242248535
24,539006,539007,-0.24140161275863647,-0.32082316279411316,0.9697473645210266,-0.6002760529518127,7.62460994720459,5.0055832862854,-0.5864706635475159,-0.8414579033851624,-0.2954852283000946,-1.510056972503662,0.6335447430610657,-5.907131671905518
25,539016,539017,-0.2235931158065796,-0.5375950932502747,1.0232594013214111,-2.8948209285736084,0.19617807865142822,5.152641296386719,-0.5864706635475159,-0.8474575877189636,-0.2954852283000946,-1.5667012929916382,0.6028889417648315,-5.8598432540893555
26,539026,539027,-1.1048792600631714,-0.42491939663887024,1.10066819190979,-7.088467121124268,-5.519637107849121,3.8554461002349854,-0.5759711861610413,-0.8459576964378357,-0.2969851493835449,-1.5702728033065796,0.5270814895629883,-5.812068939208984
27,539036,539037,-0.9326432347297668,-0.34942853450775146,1.0350308418273926,-12.765048027038574,-11.9805269241333,3.946511745452881,-0.5744712948799133,-0.8324583768844604,-0.28948551416397095,-1.5262821912765503,0.38761886954307556,-5.7743120193481445
28,539046,539047,-0.4214412271976471,-0.13307133316993713,1.0398235321044922,-14.539326667785645,-16.96232795715332,1.254368543624878,-0.5744712948799133,-0.8414579033851624,-0.2834858298301697,-1.3132420778274536,0.24642512202262878,-5.742654323577881
29,539056,539057,-0.6863790154457092,-0.3891916871070862,0.9820290207862854,-17.0451602935791,-14.085987091064453,-1.082932949066162,-0.5864706635475159,-0.8324583768844604,-0.28948551416397095,-1.1239773035049438,0.14053180813789368,-5.7259840965271
30,539066,539067,-0.7836690545082092,-0.4649675488471985,0.9268479943275452,-13.264692306518555,-15.7296781539917,-2.6440560817718506,-0.5804709792137146,-0.8414579033851624,-0.2834858298301697,-0.9575976133346558,-0.12523670494556427,-5.740387916564941
31,539076,539077,-0.29326143860816956,-0.6346110701560974,0.9744252562522888,-10.885993003845215,-8.161722183227539,-4.56886100769043,-0.5579720735549927,-0.8339582681655884,-0.28498575091362,-0.879612922668457,-0.20658136904239655,-5.753836631774902
32,539086,539087,-0.40622782707214355,-0.21133822202682495,1.0247166156768799,-5.317788600921631,1.3710715770721436,-6.593557834625244,-0.5714713931083679,-0.8264586329460144,-0.28048595786094666,-0.8268422484397888,-0.3709850311279297,-5.789906024932861
33,539096,539097,-0.37578609585762024,-0.0923875942826271,1.0668023824691772,0.971442461013794,13.645312309265137,-8.011768341064453,-0.577471137046814,-0.8324583768844604,-0.28048595786094666,-0.7997755408287048,-0.44045165181159973,-5.854114055633545
34,539106,539107,-0.07269465923309326,-0.06034987419843674,0.9566818475723267,13.755935668945312,24.153560638427734,-9.353987693786621,-0.5819708704948425,-0.8279585838317871,-0.28798559308052063,-1.0971816778182983,-0.3090113699436188,-5.898544788360596
35,539116,539117,-0.2883380949497223,-0.009377638809382915,0.9972819089889526,24.205970764160156,29.848007202148438,-11.486469268798828,-0.5969701409339905,-0.8429578542709351,-0.28498575091362,-1.2553743124008179,-0.07294348627328873,-6.004581928253174
36,539126,539127,-0.25373148918151855,-0.015140996314585209,1.0332632064819336,28.615211486816406,27.767168045043945,-12.016365051269531,-0.5834708213806152,-0.8384580612182617,-0.2834858298301697,-1.5542736053466797,0.23751947283744812,-6.110553741455078
37,539136,539137,-0.21497921645641327,0.22847606241703033,0.9615024924278259,29.69532585144043,16.72869110107422,-11.450379371643066,-0.6029698252677917,-0.8429578542709351,-0.2939853072166443,-1.6895418167114258,0.6736937165260315,-6.251574993133545
38,539146,539147,-0.313007652759552,-0.24827824532985687,1.0167272090911865,22.120159149169922,-0.043694574385881424,-10.881206512451172,-0.5924703478813171,-0.8264586329460144,-0.2924853563308716,-1.8356302976608276,0.9427493214607239,-6.37571382522583
39,539156,539157,-0.5575863122940063,-0.2613793611526489,1.045333743095398,9.888644218444824,-12.476175308227539,-9.16051959991455,-0.5819708704948425,-0.8459576964378357,-0.27898603677749634,-1.7376104593276978,1.0255510807037354,-6.512195110321045
40,539166,539167,-1.0805766582489014,-0.13354380428791046,1.0055303573608398,-10.573590278625488,-22.700712203979492,-7.276637554168701,-0.6029698252677917,-0.8429578542709351,-0.29098543524742126,-1.551942229270935,1.0770984888076782,-6.622782230377197
41,539176,539177,-0.796811580657959,-0.26841557025909424,1.0479220151901245,-29.06112289428711,-26.998571395874023,-7.23867130279541,-0.5939702987670898,-0.8399580121040344,-0.28498575091362,-1.3592641353607178,0.891682505607605,-6.70228385925293
42,539186,539187,-0.25670820474624634,-0.3427589535713196,0.9837604761123657,-34.713165283203125,-20.689334869384766,-7.664231777191162,-0.5744712948799133,-0.8414579033851624,-0.2924853563308716,-1.094382882118225,0.5387424826622009,-6.784353733062744
43,539196,539197,-0.47038534283638,-0.6389698386192322,0.996136486530304,-33.77051544189453,-16.107818603515625,-6.899672031402588,-0.5744712948799133,-0.8384580612182617,-0.2864856719970703,-0.9613058567047119,0.29553931951522827,-6.844000816345215
44,539206,539207,-0.7089993953704834,-0.7620036602020264,0.9686940908432007,-19.065778732299805,-9.670893669128418,-6.664514064788818,-0.5684715509414673,-0.8294585347175598,-0.28948551416397095,-0.7627118825912476,-0.1569427102804184,-6.919514179229736
45,539216,539217,-0.6846874356269836,-0.1509661227464676,1.0036972761154175,-3.8755111694335938,-3.406754732131958,-5.056853771209717,-0.5744712948799133,-0.8234587907791138,-0.28948551416397095,-0.7914146184921265,-0.43448320031166077,-6.9652838706970215
46,539226,539227,-0.7857688069343567,-0.04469817131757736,1.01045823097229,11.539112091064453,0.5357550382614136,-3.976633310317993,-0.5819708704948425,-0.8189590573310852,-0.27298635244369507,-0.7570532560348511,-0.44925445318222046,-7.014304161071777
47,539236,539237,-0.3595731854438782,0.04124164581298828,1.1752599477767944,23.82801628112793,3.528667449951172,-3.0318779945373535,-0.5864706635475159,-0.8234587907791138,-0.28048595786094666,-0.8089967966079712,-0.2557866871356964,-7.047408103942871
48,539246,539247,-0.5304625630378723,-0.04407784715294838,0.9923831224441528,30.24289894104004,1.7206499576568604,-0.4386760890483856,-0.5924703478813171,-0.8294585347175598,-0.2924853563308716,-0.7521772384643555,0.1246475800871849,-7.095015048980713
49,539256,539257,-0.9834984540939331,-0.4065464735031128,0.9958181977272034,30.86762809753418,3.6447620391845703,0.4128698706626892,-0.5894705057144165,-0.844457745552063,-0.28948551416397095,-0.8425655961036682,0.594488263130188,-7.093635082244873
50,539266,539267,-0.8813827633857727,-0.37383317947387695,0.8983534574508667,23.98699378967285,7.391909599304199,-0.8053028583526611,-0.5864706635475159,-0.8324583768844604,-0.2864856719970703,-0.5617542862892151,0.7357869148254395,-7.14165735244751
51,539276,539277,-0.557826042175293,-0.1269529014825821,0.9647839069366455,5.9375,-2.180748462677002,0.9328207969665527,-0.5984700918197632,-0.8204589486122131,-0.27148643136024475,-0.7066636681556702,0.7487963438034058,-7.118148326873779
52,539286,539287,-0.3892972469329834,-0.08818898350000381,1.0012468099594116,-15.57702350616455,-3.492853879928589,2.7817258834838867,-0.5984700918197632,-0.8264586329460144,-0.28948551416397095,-0.6445302963256836,0.7955694794654846,-7.117043495178223
53,539296,539297,-0.6702533960342407,-0.07460992783308029,0.9764492511749268,-20.89754295349121,9.008922576904297,2.635823965072632,-0.5684715509414673,-0.8264586329460144,-0.28048595786094666,-0.7070925235748291,0.8344500064849854,-7.085567951202393
54,539306,539307,-0.9971524477005005,-0.3086346983909607,0.9490854144096375,-28.338834762573242,6.745779514312744,2.8470802307128906,-0.5879706144332886,-0.8249587416648865,-0.28198590874671936,-0.9912087321281433,0.7216132879257202,-7.035106182098389
55,539316,539317,-0.6541575789451599,-0.4451579749584198,1.137229561805725,-30.59406089782715,3.343658924102783,3.090810775756836,-0.5864706635475159,-0.8174591064453125,-0.2834858298301697,-1.1035773754119873,0.22156363725662231,-6.993592739105225
56,539326,539327,-0.8279833197593689,-0.4198157489299774,1.0613282918930054,-32.540771484375,-0.8004428148269653,3.691494941711426,-0.5909704566001892,-0.8159592151641846,-0.28198590874671936,-1.0221847295761108,-0.2913701832294464,-6.96717643737793
57,539336,539337,-0.5538235306739807,-0.5485105514526367,1.0708023309707642,-26.895763397216797,-6.101607799530029,3.6850414276123047,-0.5864706635475159,-0.8144592642784119,-0.28048595786094666,-0.9959717392921448,-0.7871065735816956,-6.921781063079834
58,539346,539347,-0.3261098563671112,-0.5968255400657654,1.0702778100967407,-17.96539306640625,-7.6877665519714355,2.955493927001953,-0.56997150182724,-0.8129593133926392,-0.26098695397377014,-0.8506036996841431,-1.1894255876541138,-6.891028881072998
59,539356,539357,-0.15072545409202576,-0.5553593635559082,1.0220571756362915,-1.3135180473327637,-11.181554794311523,2.4569435119628906,-0.5789710283279419,-0.8099594712257385,-0.26998651027679443,-1.2902129888534546,-1.3831809759140015,-6.776129722595215
60,539366,539367,-0.2992992401123047,-0.19653217494487762,0.9821208119392395,16.719133377075195,-11.976019859313965,1.6032861471176147,-0.5804709792137146,-0.8144592642784119,-0.28048595786094666,-0.6240671277046204,-1.3128024339675903,-6.8632941246032715
61,539376,539377,-1.0603265762329102,-0.24540773034095764,1.029489517211914,31.085966110229492,-11.348763465881348,3.6798861026763916,-0.5939702987670898,-0.8099594712257385,-0.27298635244369507,-0.5273113250732422,-0.30887576937675476,-6.869795322418213
62,539386,539387,-0.4707159996032715,-0.20398953557014465,1.0113694667816162,45.368385314941406,-8.776240348815918,4.452508926391602,-0.5954701900482178,-0.8294585347175598,-0.277486115694046,-0.4389267861843109,0.1778779774904251,-6.835028648376465
63,539396,539397,-0.34751904010772705,-0.29530107975006104,0.9424164295196533,48.32122802734375,-6.6602067947387695,4.92113733291626,-0.5909704566001892,-0.8219588994979858,-0.29098543524742126,-0.3148387372493744,0.5807571411132812,-6.796631336212158
64,539406,539407,-0.5258210301399231,-0.22127903997898102,0.9337247014045715,36.745723724365234,-8.545027732849121,3.8383617401123047,-0.5924703478813171,-0.8354582190513611,-0.2924853563308716,-0.22356730699539185,1.064515471458435,-6.754287242889404
65,539416,539417,-0.765141487121582,-0.7515334486961365,0.8309509754180908,16.17707633972168,-8.269104957580566,3.549731969833374,-0.5924703478813171,-0.8354582190513611,-0.2924853563308716,-0.10148344188928604,1.2820971012115479,-6.713274955749512
66,539426,539427,-0.870425283908844,-0.5227416753768921,0.9016952514648438,-8.119877815246582,-1.4522429704666138,2.8544631004333496,-0.5924703478813171,-0.8354582190513611,-0.2924853563308716,-0.08404207974672318,1.3628820180892944,-6.655734062194824
67,539436,539437,-0.4469505548477173,-0.11486276984214783,0.9521365761756897,-24.696840286254883,4.428875923156738,3.0408546924591064,-0.5804709792137146,-0.8264586329460144,-0.277486115694046,-0.09860176593065262,1.1535958051681519,-6.606888771057129
68,539446,539447,-0.14073601365089417,-0.1971389502286911,0.9184016585350037,-31.531055450439453,9.69506549835205,3.6789743900299072,-0.5879706144332886,-0.8249587416648865,-0.28198590874671936,-0.1468173712491989,1.1286416053771973,-6.594356060028076
69,539456,539457,-0.27454784512519836,-0.13348770141601562,0.899799108505249,-26.31760025024414,7.578150272369385,5.285007476806641,-0.577471137046814,-0.8264586329460144,-0.28048595786094666,-0.17792978882789612,0.6621061563491821,-6.544776439666748
70,539466,539467,-0.6055102348327637,-0.09689226001501083,0.9176198244094849,-23.05032730102539,-0.6261736154556274,6.693563461303711,-0.577471137046814,-0.8234587907791138,-0.2834858298301697,-0.14747995138168335,0.40768715739250183,-6.505006790161133
71,539476,539477,-0.2954001724720001,-0.16710752248764038,0.9596096277236938,-19.45648956298828,-6.410043716430664,7.275224685668945,-0.5789710283279419,-0.8189590573310852,-0.2939853072166443,-0.08814939856529236,0.1575297862291336,-6.4432220458984375
72,539486,539487,-0.2598530948162079,-0.5191463828086853,0.8811627626419067,-15.399374961853027,-9.363767623901367,7.932938098907471,-0.5879706144332886,-0.8429578542709351,-0.27298635244369507,-0.0021936676930636168,-0.03980712220072746,-6.373725414276123
73,539496,539497,-0.9213602542877197,-0.7885218858718872,1.2010371685028076,-13.782427787780762,0.08570334315299988,7.523782253265381,-0.5669716596603394,-0.8279585838317871,-0.2939853072166443,0.08609660714864731,-0.1341712921857834,-6.305792331695557
74,539506,539507,-0.656509280204773,-0.835435152053833,0.9223905205726624,-12.282423973083496,11.02928352355957,7.664320945739746,-0.5729713439941406,-0.8399580121040344,-0.28798559308052063,0.08950267732143402,-0.3899771571159363,-6.211704254150391
75,539516,539517,-0.3316633999347687,-0.34244149923324585,0.9050266146659851,-13.681183815002441,23.439762115478516,9.183164596557617,-0.5639718174934387,-0.836958110332489,-0.28798559308052063,-0.02300906926393509,-0.3587142825126648,-6.16179084777832
76,539526,539527,-0.2957246005535126,-0.15115344524383545,0.8663421273231506,-10.6389799118042,31.873489379882812,8.213998794555664,-0.5714713931083679,-0.8414579033851624,-0.2834858298301697,-0.32589367032051086,-0.47822725772857666,-6.0640788078308105
77,539536,539537,-0.44477659463882446,-0.27550289034843445,0.9741878509521484,-9.575499534606934,35.16600799560547,8.228263854980469,-0.5864706635475159,-0.8354582190513611,-0.2864856719970703,-0.7443113327026367,-0.6936684250831604,-5.956528663635254
78,539546,539547,-0.45931151509284973,-0.23900771141052246,1.004894495010376,-2.823875665664673,30.823781967163086,8.0048828125,-0.5729713439941406,-0.836958110332489,-0.2939853072166443,-0.982492983341217,-0.5719882249832153,-5.924047946929932
79,539556,539557,-0.19887828826904297,-0.587890088558197,0.9435237646102905,-0.6029307842254639,21.960783004760742,5.926034927368164,-0.5879706144332886,-0.8279585838317871,-0.28798559308052063,-1.2177335023880005,-0.6717445850372314,-5.857558250427246
80,539566,539567,-0.441657155752182,-0.5273809432983398,0.9638962149620056,3.0925066471099854,9.799962043762207,4.963710308074951,-0.5864706635475159,-0.8474575877189636,-0.2834858298301697,-1.3420056104660034,-0.6356907486915588,-5.817837715148926
81,539576,539577,-0.45774880051612854,-0.4220215082168579,0.8292675614356995,8.592578887939453,3.4702486991882324,3.3244380950927734,-0.5819708704948425,-0.836958110332489,-0.2939853072166443,-1.4802234172821045,-0.6138734221458435,-5.757926940917969
82,539586,539587,-0.3045560419559479,-0.6769781112670898,0.9365630149841309,6.638126850128174,-10.519046783447266,3.624119281768799,-0.5789710283279419,-0.8459576964378357,-0.28498575091362,-1.5237383842468262,-0.5439497828483582,-5.727225303649902
83,539596,539597,-0.3007599711418152,-0.3807283341884613,0.9821768403053284,0.37994080781936646,-22.72873306274414,4.808405876159668,-0.5864706635475159,-0.8564571738243103,-0.28948551416397095,-1.3387384414672852,-0.5041415691375732,-5.703655242919922
84,539606,539607,-0.6432845592498779,-0.4501280188560486,1.1429401636123657,-5.495224952697754,-29.642086029052734,5.6449995040893555,-0.5639718174934387,-0.8609569072723389,-0.28498575091362,-0.993908703327179,-0.5539242625236511,-5.6793670654296875
85,539616,539617,-0.6236494779586792,-0.5621814131736755,1.0456020832061768,-12.021099090576172,-29.743173599243164,6.07515287399292,-0.562471866607666,-0.8624568581581116,-0.30748462677001953,-0.648622989654541,-0.6304633617401123,-5.6311492919921875
86,539626,539627,-0.3796424865722656,-0.5419052839279175,1.0912553071975708,-17.58226776123047,-21.79303550720215,5.899195194244385,-0.5669716596603394,-0.8669566512107849,-0.3029848337173462,-0.38533923029899597,-0.7345603704452515,-5.565777778625488
87,539636,539637,-0.20971769094467163,-0.3515204191207886,1.0937073230743408,-23.49892807006836,-8.475275993347168,4.16187858581543,-0.562471866607666,-0.8684565424919128,-0.3014849126338959,-0.1598593145608902,-0.9927362203598022,-5.5012383460998535
88,539646,539647,-0.08230254054069519,-0.07251989841461182,1.0414878129959106,-23.069490432739258,10.530091285705566,1.0401942729949951,-0.5489725470542908,-0.8639568090438843,-0.29098543524742126,-0.13936969637870789,-1.3222589492797852,-5.430410385131836
89,539656,539657,-0.6489211320877075,-0.060889825224876404,1.042459487915039,-13.629940032958984,26.68869400024414,-0.3592242896556854,-0.5684715509414673,-0.850457489490509,-0.29848507046699524,-0.41285109519958496,-1.5318354368209839,-5.386080265045166
90,539666,539667,-0.7682291269302368,-0.010950128547847271,1.0562942028045654,-3.8263661861419678,38.631465911865234,-2.3896920680999756,-0.5684715509414673,-0.850457489490509,-0.29848507046699524,-0.6364846229553223,-1.5899243354797363,-5.409795761108398
91,539676,539677,-0.24772636592388153,-0.015709377825260162,1.0214940309524536,3.771101951599121,42.07189178466797,-2.5589218139648438,-0.5714713931083679,-0.844457745552063,-0.2954852283000946,-1.1493585109710693,-1.6516855955123901,-5.409451961517334
92,539686,539687,-0.14900892972946167,-0.37865617871284485,1.0573288202285767,8.6593656539917,40.10051345825195,-1.9295893907546997,-0.5759711861610413,-0.836958110332489,-0.29098543524742126,-1.4170745611190796,-1.591856598854065,-5.4858293533325195
93,539696,539697,-0.16290637850761414,-0.2507641017436981,1.1302595138549805,8.306079864501953,31.52096176147461,-1.8716679811477661,-0.5759711861610413,-0.8399580121040344,-0.2939853072166443,-1.7912688255310059,-1.4645860195159912,-5.5237836837768555
94,539706,539707,-0.07247381657361984,-0.4814077913761139,1.0456920862197876,5.929232597351074,14.705305099487305,-2.6906960010528564,-0.5909704566001892,-0.8399580121040344,-0.29098543524742126,-2.1335268020629883,-1.3456242084503174,-5.545454978942871
95,539716,539717,-0.23776458203792572,-0.15643000602722168,1.0709304809570312,2.045682430267334,-1.639371633529663,-3.459437608718872,-0.5714713931083679,-0.8354582190513611,-0.28948551416397095,-2.2000961303710938,-1.353861927986145,-5.603819370269775
96,539726,539727,-0.17722126841545105,-0.11897396296262741,1.111356496810913,2.054713726043701,-14.980180740356445,-3.4600319862365723,-0.6014699339866638,-0.8414579033851624,-0.2864856719970703,-2.1659862995147705,-1.4070346355438232,-5.650485515594482
97,539736,539737,-0.028400076553225517,0.24159358441829681,1.0645363330841064,6.263343334197998,-23.671560287475586,-4.332802772521973,-0.5834708213806152,-0.8354582190513611,-0.28048595786094666,-1.9238611459732056,-1.3619706630706787,-5.710813522338867
98,539746,539747,-0.31067854166030884,-0.1391952484846115,1.062968134880066,17.399017333984375,-25.807117462158203,-4.229125499725342,-0.5849707126617432,-0.8249587416648865,-0.28498575091362,-1.5861326456069946,-1.2917979955673218,-5.779306411743164
99,539756,539757,-0.49353739619255066,-0.47899264097213745,1.2068616151809692,25.415861129760742,-24.639734268188477,-3.3785061836242676,-0.5849707126617432,-0.8309584259986877,-0.2759861946105957,-1.3516895771026611,-1.066410779953003,-5.807952880859375
100,539766,539767,-0.3462466597557068,-0.74837327003479,1.1151055097579956,27.146562576293945,-18.956159591674805,-2.711575508117676,-0.5849707126617432,-0.8279585838317871,-0.29098543524742126,-1.0593785047531128,-0.8534155488014221,-5.850462436676025
101,539776,539777,-0.14812326431274414,-0.3470478057861328,1.0356508493423462,23.665687561035156,-13.685990333557129,-3.115729808807373,-0.5984700918197632,-0.8294585347175598,-0.2864856719970703,-0.9474217891693115,-0.5627967715263367,-5.845587253570557
102,539786,539787,-0.2421700656414032,-0.359328955411911,0.9963440299034119,18.781902313232422,-10.197847366333008,-2.3714468479156494,-0.5879706144332886,-0.8279585838317871,-0.29098543524742126,-0.8269164562225342,-0.47470569610595703,-5.879299640655518
103,539796,539797,-0.4622589647769928,-0.7700193524360657,0.9147673845291138,12.154994010925293,-7.174729347229004,-1.874509572982788,-0.5849707126617432,-0.8399580121040344,-0.27898603677749634,-0.7572191953659058,-0.22808879613876343,-5.884443283081055
104,539806,539807,-0.28535154461860657,-0.8800747990608215,0.948640763759613,2.6131393909454346,-4.693639278411865,-1.3673923015594482,-0.5834708213806152,-0.8204589486122131,-0.28048595786094666,-0.6610139608383179,-0.2537844777107239,-5.921408653259277
105,539816,539817,-0.580485999584198,-0.5093376040458679,0.9957559704780579,-0.9760180711746216,-3.5419154167175293,-1.5414016246795654,-0.5819708704948425,-0.8279585838317871,-0.26998651027679443,-0.6097112894058228,-0.17347030341625214,-5.938350677490234
106,539826,539827,-0.5754339694976807,-0.5024086236953735,1.1544444561004639,-4.322259426116943,0.015693366527557373,-1.029089331626892,-0.5819708704948425,-0.8279585838317871,-0.2759861946105957,-0.5966494083404541,-0.23269158601760864,-5.953954219818115
107,539836,539837,-0.8204154372215271,-0.5881020426750183,1.1557018756866455,-7.927521705627441,1.453479528427124,-2.188549757003784,-0.5759711861610413,-0.8189590573310852,-0.28198590874671936,-0.5939425826072693,-0.2826290428638458,-5.964895248413086
108,539846,539847,-0.597400963306427,-0.44841861724853516,0.9528974294662476,-4.897992134094238,9.4071626663208,-5.6326680183410645,-0.5834708213806152,-0.8234587907791138,-0.28048595786094666,-0.5973520278930664,-0.3603895604610443,-5.980442047119141
109,539856,539857,-0.792686402797699,-0.7711122632026672,0.9502955079078674,-2.735471248626709,14.600753784179688,-5.965884685516357,-0.5909704566001892,-0.8189590573310852,-0.2759861946105957,-0.6612706184387207,-0.4158356785774231,-6.041640281677246
110,539866,539867,-1.092948317527771,-0.4346693754196167,1.0461302995681763,3.812607765197754,12.164880752563477,-5.574822902679443,-0.5804709792137146,-0.8204589486122131,-0.2834858298301697,-0.8889567852020264,-0.41547268629074097,-6.082751274108887
111,539876,539877,-0.42356523871421814,-0.2761118412017822,1.0104646682739258,12.889665603637695,11.37171745300293,-4.503006458282471,-0.5954701900482178,-0.8204589486122131,-0.2924853563308716,-1.0919941663742065,-0.28485554456710815,-6.12619161605835
112,539886,539887,-0.38065582513809204,-0.3022529184818268,1.0744324922561646,19.991832733154297,10.859539031982422,-1.5580992698669434,-0.5894705057144165,-0.8384580612182617,-0.28948551416397095,-1.1336151361465454,-0.11010080575942993,-6.186739921569824
113,539896,539897,-0.3395336866378784,-0.29752403497695923,0.8110626935958862,32.65835189819336,8.551599502563477,0.8243276476860046,-0.5864706635475159,-0.8354582190513611,-0.2924853563308716,-1.2389665842056274,0.13061322271823883,-6.201045989990234
114,539906,539907,-0.44532790780067444,-0.300759881734848,0.8937496542930603,34.10071563720703,8.63374137878418,4.069448471069336,-0.5924703478813171,-0.8384580612182617,-0.28048595786094666,-1.3507047891616821,0.1805250644683838,-6.199786186218262
115,539916,539917,-0.6254716515541077,-0.42060065269470215,0.9589692950248718,30.529146194458008,-0.06182929128408432,7.682079792022705,-0.6089695692062378,-0.836958110332489,-0.28498575091362,-1.4702116250991821,0.6262114644050598,-6.157706260681152
116,539926,539927,-0.3785921037197113,-0.48424357175827026,0.9081615805625916,23.87855339050293,-8.91419506072998,9.19595718383789,-0.5864706635475159,-0.8294585347175598,-0.2834858298301697,-1.4455997943878174,0.9271845817565918,-6.090102195739746
117,539936,539937,-0.840063750743866,-0.2174111306667328,0.9773514270782471,15.717447280883789,-17.68334197998047,11.47567081451416,-0.5804709792137146,-0.8474575877189636,-0.28948551416397095,-1.260932207107544,1.0332844257354736,-6.01654577255249
118,539946,539947,-0.22938625514507294,0.12139512598514557,1.0116881132125854,5.385504245758057,-20.40687370300293,12.889833450317383,-0.577471137046814,-0.844457745552063,-0.29848507046699524,-1.0519049167633057,1.168287992477417,-5.910139083862305
119,539956,539957,-0.33778050541877747,-0.1753832995891571,1.007344365119934,-6.4883294105529785,-22.254573822021484,16.37794303894043,-0.5789710283279419,-0.8549572229385376,-0.29098543524742126,-0.8465725779533386,1.2662477493286133,-5.788298606872559
120,539966,539967,-0.6361709237098694,-0.41628921031951904,0.9904624223709106,-10.159952163696289,-11.473564147949219,16.193180084228516,-0.5579720735549927,-0.8399580121040344,-0.28798559308052063,-0.6071611046791077,1.1883747577667236,-5.631866931915283
121,539976,539977,-0.5631498694419861,-0.5342521667480469,1.064693570137024,-12.135062217712402,-7.872329235076904,16.976205825805664,-0.577471137046814,-0.8474575877189636,-0.2924853563308716,-0.4691794812679291,1.0489834547042847,-5.473883628845215
122,539986,539987,-0.42628318071365356,-0.8272101283073425,0.9693180322647095,-9.670801162719727,-3.4369654655456543,16.934864044189453,-0.5819708704948425,-0.8429578542709351,-0.29098543524742126,-0.483094722032547,0.9719637036323547,-5.309793472290039
123,539996,539997,-0.4964350163936615,-0.1554102897644043,1.1187896728515625,-8.906331062316895,1.5080451965332031,18.05239486694336,-0.5804709792137146,-0.8414579033851624,-0.3044847846031189,-0.4277860224246979,0.9111023545265198,-5.138793468475342
124,540006,540007,-0.6631471514701843,0.04648716375231743,1.0416134595870972,-3.109018564224243,3.4309821128845215,16.01190948486328,-0.577471137046814,-0.8354582190513611,-0.2864856719970703,-0.451410710811615,0.8086851835250854,-4.961564064025879
125,540016,540017,-0.1471107453107834,-0.11302473396062851,0.9281988739967346,-0.10033571720123291,5.4879889488220215,14.465009689331055,-0.5714713931083679,-0.850457489490509,-0.29848507046699524,-0.4845058023929596,0.7830689549446106,-4.800766944885254
126,540026,540027,-0.5063264966011047,-0.3376990854740143,0.9941098093986511,7.863674163818359,10.682014465332031,10.085519790649414,-0.5804709792137146,-0.8474575877189636,-0.29848507046699524,-0.5726718902587891,0.8302616477012634,-4.6564178466796875
127,540036,540037,-1.2818650007247925,-0.3647235929965973,1.031449556350708,11.127906799316406,15.454075813293457,6.3840436935424805,-0.5879706144332886,-0.8459576964378357,-0.28798559308052063,-0.6811186075210571,0.9074410796165466,-4.5529656410217285
128,540046,540047,-1.7108244895935059,-0.7408974766731262,0.884289026260376,13.808980941772461,14.077009201049805,2.778657913208008,-0.5909704566001892,-0.8429578542709351,-0.29098543524742126,-0.8677622675895691,0.9875413775444031,-4.484372138977051
129,540056,540057,-0.9761621356010437,-0.7150128483772278,1.0321733951568604,6.001666069030762,4.200235366821289,1.5742450952529907,-0.5864706635475159,-0.8414579033851624,-0.2924853563308716,-1.040922999382019,1.0610342025756836,-4.454277515411377
130,540066,540067,-0.6072767972946167,-0.5645077228546143,1.0189322233200073,1.8787815570831299,-8.347628593444824,0.3847923278808594,-0.5879706144332886,-0.8459576964378357,-0.28498575091362,-0.9686040282249451,1.1783885955810547,-4.426126480102539
131,540076,540077,-1.0964579582214355,-0.2500033378601074,1.000650405883789,2.529345750808716,-16.96947479248047,0.038132887333631516,-0.5864706635475159,-0.850457489490509,-0.29848507046699524,-0.873820424079895,1.2448424100875854,-4.4208664894104
132,540086,540087,-0.6443069577217102,-0.023214930668473244,1.1752125024795532,4.359094142913818,-22.269527435302734,1.1630336046218872,-0.5819708704948425,-0.8429578542709351,-0.3029848337173462,-0.7205129861831665,1.16350519657135,-4.42211389541626
133,540096,540097,-0.2970525920391083,-0.3956759572029114,1.0028125047683716,-0.028043527156114578,-26.130300521850586,1.5138407945632935,-0.5744712948799133,-0.8414579033851624,-0.3014849126338959,-0.40405961871147156,1.222891926765442,-4.403062343597412
134,540106,540107,-1.1241050958633423,-0.11221308261156082,0.9642937183380127,-3.1183621883392334,-28.93157386779785,3.005955934524536,-0.5759711861610413,-0.8429578542709351,-0.28798559308052063,-0.20703017711639404,1.106676459312439,-4.396023273468018
135,540116,540117,-1.5959125757217407,-0.3687761723995209,0.9934273958206177,-9.387506484985352,-31.341575622558594,3.664881706237793,-0.562471866607666,-0.8534573316574097,-0.2864856719970703,0.13700911402702332,1.1337729692459106,-4.3666486740112305
136,540126,540127,-0.7898299694061279,-0.6868667006492615,1.1862826347351074,-11.186812400817871,-22.742076873779297,4.214048385620117,-0.5729713439941406,-0.8399580121040344,-0.29098543524742126,0.3358806371688843,1.1383229494094849,-4.359017372131348
137,540136,540137,-0.13214558362960815,-0.5719475746154785,1.1279950141906738,-12.59675407409668,-8.037707328796387,5.487503528594971,-0.5729713439941406,-0.8429578542709351,-0.29098543524742126,0.5377659797668457,0.9529660940170288,-4.322402000427246
138,540146,540147,-0.37343868613243103,-0.1502750962972641,0.9896984696388245,-2.2443912029266357,4.581249713897705,7.59193229675293,-0.5729713439941406,-0.8429578542709351,-0.29098543524742126,0.6534891724586487,0.8004534840583801,-4.262979984283447
139,540156,540157,-0.2022029459476471,-0.13768528401851654,1.022342562675476,9.976018905639648,19.164560317993164,11.503113746643066,-0.5729713439941406,-0.8429578542709351,-0.29098543524742126,0.4700140953063965,0.8826927542686462,-4.220712184906006
140,540166,540167,-0.3044564127922058,-0.7566524744033813,0.9051637053489685,20.389333724975586,28.9520206451416,13.40565013885498,-0.5804709792137146,-0.850457489490509,-0.2834858298301697,0.16060730814933777,1.0595993995666504,-4.138916492462158
141,540176,540177,-1.015197992324829,-0.6301065683364868,0.72972172498703,28.216413497924805,28.05498504638672,13.96398639678955,-0.5819708704948425,-0.851957380771637,-0.28798559308052063,0.012936139479279518,1.2783401012420654,-3.988511800765991
142,540186,540187,-0.7444835901260376,-0.2804957926273346,0.9167352914810181,21.972827911376953,19.71805763244629,13.511819839477539,-0.5879706144332886,-0.8429578542709351,-0.2969851493835449,-0.30453747510910034,1.6373391151428223,-3.8611629009246826
143,540196,540197,-0.7450599074363708,-0.5608947277069092,0.9976378679275513,10.970907211303711,9.032516479492188,12.758260726928711,-0.5684715509414673,-0.8474575877189636,-0.2924853563308716,-0.49783387780189514,1.8231323957443237,-3.7155258655548096
144,540206,540207,-0.7800935506820679,-0.7490035891532898,0.9909848570823669,-8.79292106628418,-8.703214645385742,12.696234703063965,-0.5864706635475159,-0.8414579033851624,-0.28948551416397095,-0.4577997624874115,1.8682732582092285,-3.5497121810913086
145,540216,540217,-0.8864139318466187,-0.19439943134784698,0.8741581439971924,-33.13502883911133,-18.797277450561523,10.218971252441406,-0.5819708704948425,-0.8459576964378357,-0.28798559308052063,-0.2678769528865814,1.6596554517745972,-3.3912317752838135
146,540226,540227,-0.4929704964160919,-0.4228971302509308,0.9406207799911499,-47.86275100708008,-19.412860870361328,6.126521587371826,-0.5639718174934387,-0.8549572229385376,-0.3029848337173462,-0.1652321070432663,1.4172371625900269,-3.3183908462524414
147,540236,540237,-0.5270410776138306,-0.12487755715847015,1.0889976024627686,-50.29657745361328,-19.37455940246582,2.5293631553649902,-0.554972231388092,-0.8489575386047363,-0.29998499155044556,0.022503718733787537,0.8296849727630615,-3.245577096939087
148,540246,540247,-1.1100763082504272,-0.1745428889989853,1.0772510766983032,-40.237022399902344,-18.97299575805664,0.404867023229599,-0.554972231388092,-0.8399580121040344,-0.2939853072166443,0.2860758304595947,0.3301486074924469,-3.204270124435425
149,540256,540257,-0.38352906703948975,-0.3639272153377533,1.070989966392517,-26.168615341186523,-17.16278648376465,-2.2575724124908447,-0.5594720244407654,-0.8654567003250122,-0.2924853563308716,0.3900430202484131,0.06228738650679588,-3.234950304031372
150,540266,540267,-0.3429650068283081,-0.3999255895614624,1.0961507558822632,-9.250953674316406,-13.278463363647461,-2.3587446212768555,-0.554972231388092,-0.8579570651054382,-0.2969851493835449,0.5275627970695496,-0.20260828733444214,-3.26290225982666
151,540276,540277,-0.16647031903266907,-0.494229793548584,1.0426087379455566,15.58212661743164,-10.265909194946289,-2.6610848903656006,-0.5534723401069641,-0.8474575877189636,-0.2954852283000946,0.6196765303611755,-0.20958644151687622,-3.3080365657806396
152,540286,540287,-0.029586471617221832,-0.07197468727827072,0.9622182250022888,34.29497528076172,-7.3300299644470215,-2.961315393447876,-0.5669716596603394,-0.836958110332489,-0.28198590874671936,0.8035136461257935,0.06714466214179993,-3.351445198059082
153,540296,540297,-0.15602746605873108,-0.0672910287976265,1.0012197494506836,44.34967041015625,-2.1312718391418457,-1.663765788078308,-0.5714713931083679,-0.8414579033851624,-0.2954852283000946,0.8363725543022156,0.40517401695251465,-3.384939432144165
154,540306,540307,-0.4164382219314575,-0.3090679347515106,0.9409832954406738,48.84625244140625,-1.1281492710113525,-1.7900571823120117,-0.5654717087745667,-0.8414579033851624,-0.28948551416397095,0.8186168074607849,0.8952643275260925,-3.4177424907684326
155,540316,540317,-0.41652873158454895,-0.43112921714782715,0.9913387894630432,38.70846176147461,0.19198057055473328,0.4408513903617859,-0.5759711861610413,-0.8459576964378357,-0.28198590874671936,0.8391213417053223,1.5290919542312622,-3.467353582382202
156,540326,540327,-0.20169594883918762,-0.5979434251785278,0.9448474645614624,18.371417999267578,-0.4416199326515198,2.711468458175659,-0.5639718174934387,-0.8579570651054382,-0.2939853072166443,0.7965148091316223,1.7720297574996948,-3.4373526573181152
157,540336,540337,-0.5755918025970459,-0.7869568467140198,0.9359652400016785,-10.612192153930664,10.766695976257324,4.715123653411865,-0.5714713931083679,-0.8624568581581116,-0.2954852283000946,0.7713944315910339,1.811041235923767,-3.3808069229125977
158,540346,540347,-1.27604341506958,-0.3281771242618561,0.9420129060745239,-41.23719024658203,13.125658988952637,8.447187423706055,-0.554972231388092,-0.851957380771637,-0.2969851493835449,0.6850160956382751,1.7355506420135498,-3.331027030944824
159,540356,540357,-0.9031550288200378,-0.43708860874176025,1.0179847478866577,-62.53445816040039,16.562145233154297,8.13758659362793,-0.5459727048873901,-0.8399580121040344,-0.2939853072166443,0.4687662720680237,1.1905806064605713,-3.21891713142395
160,540366,540367,-0.2751331627368927,-0.5317103862762451,1.0456351041793823,-73.26570892333984,18.889694213867188,8.875733375549316,-0.5639718174934387,-0.8429578542709351,-0.3029848337173462,0.2652844190597534,0.40237003564834595,-3.0962941646575928
161,540376,540377,-0.5721780061721802,-0.7274044156074524,1.072641134262085,-72.51785278320312,19.588735580444336,7.856831073760986,-0.5504724383354187,-0.8324583768844604,-0.2954852283000946,0.1123601570725441,-0.028978046029806137,-3.069131851196289
162,540386,540387,-0.9470065832138062,-0.7466356158256531,0.9336784482002258,-61.372535705566406,13.921820640563965,9.26988410949707,-0.5354732275009155,-0.844457745552063,-0.3014849126338959,-0.13207992911338806,-0.9237229228019714,-2.962714433670044
163,540396,540397,-0.27524736523628235,-0.36861708760261536,1.0024257898330688,-45.82781982421875,14.107439994812012,9.478398323059082,-0.554972231388092,-0.8429578542709351,-0.28798559308052063,-0.26695552468299866,-1.2741509675979614,-2.928096294403076
164,540406,540407,-0.266411691904068,-0.14301113784313202,1.0661274194717407,-22.18946075439453,7.8765668869018555,10.204676628112793,-0.5579720735549927,-0.8399580121040344,-0.2939853072166443,-0.4476073980331421,-1.8557378053665161,-2.8169238567352295
165,540416,540417,-0.28439921140670776,-0.1967240869998932,1.044474482536316,-0.2757895886898041,-2.8377668857574463,10.969931602478027,-0.5594720244407654,-0.8414579033851624,-0.2864856719970703,-0.4331614077091217,-2.024954319000244,-2.7240984439849854
166,540426,540427,-0.3486464023590088,-0.2091219574213028,1.05900239944458,16.61067771911621,-13.487678527832031,10.233640670776367,-0.5534723401069641,-0.8384580612182617,-0.3014849126338959,-0.3301083445549011,-1.9442662000656128,-2.6318721771240234
167,540436,540437,-0.39016079902648926,-0.4956801235675812,1.069273591041565,26.531410217285156,-22.77267837524414,10.012076377868652,-0.5669716596603394,-0.8489575386047363,-0.28798559308052063,-0.057361967861652374,-1.6945405006408691,-2.549041748046875
168,540446,540447,-0.23158933222293854,-0.47980964183807373,1.0082534551620483,27.201751708984375,-19.822250366210938,7.265557765960693,-0.5609719157218933,-0.8279585838317871,-0.29098543524742126,0.07893098890781403,-1.4494671821594238,-2.4335386753082275
169,540456,540457,-0.622759222984314,-0.3732386827468872,1.1479065418243408,19.798601150512695,-13.47429370880127,5.17518949508667,-0.5654717087745667,-0.8414579033851624,-0.2864856719970703,0.2699323296546936,-1.1541908979415894,-2.357001781463623
170,540466,540467,-0.6821751594543457,-0.24099895358085632,1.10328209400177,17.304540634155273,-8.867465019226074,2.6799404621124268,-0.5564721822738647,-0.8264586329460144,-0.2954852283000946,0.5073299407958984,-1.0030572414398193,-2.3014578819274902
171,540476,540477,-0.41013896465301514,-0.46212443709373474,1.0963608026504517,9.271719932556152,-4.181565761566162,2.9360063076019287,-0.5594720244407654,-0.844457745552063,-0.2924853563308716,0.6347207427024841,-0.9362520575523376,-2.2605409622192383
172,540486,540487,-0.1321774423122406,-0.47463610768318176,1.0869501829147339,8.759662628173828,-2.36059308052063,5.012195110321045,-0.5564721822738647,-0.8384580612182617,-0.2924853563308716,0.6985976696014404,-0.8178410530090332,-2.235513210296631
173,540496,540497,-0.1941814124584198,-0.12857048213481903,1.121471881866455,10.433565139770508,1.3504019975662231,6.157587051391602,-0.5519723892211914,-0.8249587416648865,-0.29998499155044556,0.5879460573196411,-0.8452361822128296,-2.1468563079833984
174,540506,540507,-0.32996538281440735,-0.12476515769958496,1.0764516592025757,11.406192779541016,5.398933410644531,6.050764083862305,-0.5639718174934387,-0.851957380771637,-0.29998499155044556,0.5633987784385681,-0.6863940358161926,-2.0935897827148438
175,540516,540517,-0.15867263078689575,-0.04327523335814476,1.0564403533935547,5.404333114624023,7.536437511444092,7.388638019561768,-0.562471866607666,-0.8324583768844604,-0.28048595786094666,0.4825030565261841,-0.5314652323722839,-2.0318515300750732
176,540526,540527,-0.13049960136413574,-0.07811123132705688,1.061932921409607,-5.301387786865234,8.923051834106445,7.9120612144470215,-0.5519723892211914,-0.836958110332489,-0.28798559308052063,0.4298379719257355,-0.5717491507530212,-1.9461925029754639
177,540536,540537,-0.4176129102706909,-0.24450525641441345,1.0496327877044678,-14.63380241394043,9.649598121643066,8.658516883850098,-0.5714713931083679,-0.8384580612182617,-0.28948551416397095,0.29749011993408203,-0.7034035325050354,-1.844669222831726
178,540546,540547,-0.688897967338562,-0.23074468970298767,1.070509672164917,-21.229549407958984,18.356098175048828,8.9556303024292,-0.5669716596603394,-0.8219588994979858,-0.2759861946105957,0.33915889263153076,-0.9649244546890259,-1.7647300958633423
179,540556,540557,-0.17915551364421844,-0.10156780481338501,0.9061896204948425,-25.874635696411133,28.49980926513672,7.651976108551025,-0.5579720735549927,-0.8219588994979858,-0.28198590874671936,0.08118779212236404,-1.097807765007019,-1.6734691858291626
180,540566,540567,-0.10891564935445786,-0.30351778864860535,0.8309924602508545,-25.49517250061035,35.10297393798828,8.196975708007812,-0.5579720735549927,-0.8129593133926392,-0.28498575091362,-0.25768348574638367,-1.2431145906448364,-1.6082780361175537
181,540576,540577,-0.42320457100868225,-0.13249005377292633,1.0101380348205566,-18.97060203552246,31.40837287902832,9.477606773376465,-0.5744712948799133,-0.7964601516723633,-0.2744862735271454,-0.584379255771637,-1.6388388872146606,-1.5168687105178833
182,540586,540587,-0.15037402510643005,-0.02032327465713024,0.9891629219055176,-9.634883880615234,24.450672149658203,10.147799491882324,-0.5609719157218933,-0.8129593133926392,-0.27898603677749634,-0.9130412936210632,-1.69437837600708,-1.4459493160247803
183,540596,540597,-1.0281498432159424,-0.025076953694224358,1.046730875968933,2.863863706588745,12.986246109008789,11.109736442565918,-0.577471137046814,-0.80545973777771,-0.27148643136024475,-1.129307746887207,-1.8085498809814453,-1.3590638637542725
184,540606,540607,-0.9659806489944458,-0.21132925152778625,1.0707807540893555,13.690435409545898,0.3677603602409363,12.155903816223145,-0.5804709792137146,-0.8084595799446106,-0.2744862735271454,-1.3260254859924316,-1.753491759300232,-1.2468349933624268
185,540616,540617,-0.13455919921398163,-0.08671259135007858,0.9745108485221863,28.642240524291992,-19.108545303344727,12.925848960876465,-0.5729713439941406,-0.8099594712257385,-0.28798559308052063,-1.1698102951049805,-1.6100608110427856,-1.1696466207504272
186,540626,540627,-0.3174726963043213,-0.058887582272291183,1.007433295249939,35.83637237548828,-29.75884246826172,13.7680025100708,-0.5639718174934387,-0.8279585838317871,-0.28498575091362,-0.9008896350860596,-1.181151032447815,-1.0674422979354858
187,540636,540637,-0.22235998511314392,-0.06908273696899414,1.0129505395889282,34.50905227661133,-33.829524993896484,16.329509735107422,-0.5684715509414673,-0.8354582190513611,-0.2834858298301697,-0.4904137849807739,-0.882776141166687,-0.9572408199310303
188,540646,540647,-0.3657649755477905,-0.4850429892539978,1.0106616020202637,27.521814346313477,-27.16972541809082,17.976673126220703,-0.56997150182724,-0.8399580121040344,-0.28798559308052063,-0.11536586284637451,-0.6274229288101196,-0.8083223104476929
189,540656,540657,-0.7945781946182251,-0.7477166056632996,0.9658142924308777,18.809646606445312,-18.06128692626953,19.348909378051758,-0.56997150182724,-0.8399580121040344,-0.29098543524742126,0.18051660060882568,-0.32877177000045776,-0.6315693259239197
190,540666,540667,-0.3318118751049042,-0.5884696245193481,0.9605521559715271,4.857790470123291,0.3693544268608093,20.707305908203125,-0.5579720735549927,-0.8189590573310852,-0.28498575091362,0.3131921887397766,-0.4864068925380707,-0.41865769028663635
191,540676,540677,-0.09909457713365555,-0.2718968689441681,0.9248393177986145,-6.536675930023193,12.105840682983398,21.291370391845703,-0.5609719157218933,-0.8339582681655884,-0.2939853072166443,0.27512380480766296,-0.40074509382247925,-0.20468536019325256
192,540686,540687,-0.45663225650787354,-0.2752632796764374,1.0225669145584106,-13.38089656829834,23.44171142578125,21.426288604736328,-0.562471866607666,-0.8234587907791138,-0.2744862735271454,0.045304544270038605,-0.48354172706604004,0.034614767879247665
193,540696,540697,-0.46783480048179626,-0.18472377955913544,1.0798431634902954,-12.276074409484863,31.420297622680664,19.94074821472168,-0.554972231388092,-0.8219588994979858,-0.28198590874671936,-0.05692311376333237,-0.6473391056060791,0.22069987654685974
194,540706,540707,-0.5930871963500977,0.03716776892542839,1.056967854499817,-8.299992561340332,37.42185592651367,17.371105194091797,-0.562471866607666,-0.8234587907791138,-0.2924853563308716,-0.5285612940788269,-0.7981235980987549,0.4496368169784546
195,540716,540717,-0.35514703392982483,0.2533293664455414,1.136258602142334,1.155653953552246,34.75006866455078,16.24254608154297,-0.5639718174934387,-0.8219588994979858,-0.28198590874671936,-0.7818992733955383,-0.8534026145935059,0.593267560005188
196,540726,540727,-0.9335983395576477,-0.04866703599691391,1.0836656093597412,10.255399703979492,26.72435760498047,17.13491439819336,-0.5924703478813171,-0.8264586329460144,-0.2834858298301697,-1.06027352809906,-0.8261311650276184,0.7352873086929321
197,540736,540737,-0.4513358175754547,-0.002957972465083003,1.1397395133972168,17.56037712097168,10.934596061706543,18.3160343170166,-0.577471137046814,-0.8264586329460144,-0.28948551416397095,-1.274218201637268,-0.6729745864868164,0.8875027298927307
198,540746,540747,-0.11902821809053421,0.06491632759571075,1.0852562189102173,17.58936309814453,-8.926779747009277,20.550207138061523,-0.5789710283279419,-0.8249587416648865,-0.28498575091362,-1.335614562034607,-0.5524618625640869,1.0521742105484009
199,540756,540757,-0.275757372379303,0.02985488995909691,1.0652507543563843,14.062276840209961,-18.021398544311523,18.908832550048828,-0.5714713931083679,-0.8324583768844604,-0.2834858298301697,-1.1991164684295654,-0.3666985332965851,1.2431353330612183
200,540766,540767,-0.781709611415863,-0.354837030172348,1.0192790031433105,11.330458641052246,-23.553565979003906,16.906343460083008,-0.56997150182724,-0.8219588994979858,-0.26998651027679443,-0.9764569997787476,-0.2243632674217224,1.4237202405929565
201,540776,540777,-0.8526298403739929,-0.5254729986190796,1.0137479305267334,7.018886089324951,-18.335601806640625,15.42004680633545,-0.5654717087745667,-0.8324583768844604,-0.277486115694046,-0.7560994029045105,-0.13753588497638702,1.593593955039978
202,540786,540787,-0.47892123460769653,-0.19722874462604523,1.0951257944107056,4.188999176025391,-4.890870571136475,13.264737129211426,-0.56997150182724,-0.8189590573310852,-0.28198590874671936,-0.5814201235771179,-0.17690803110599518,1.7468922138214111
203,540796,540797,-0.16638977825641632,-0.12764136493206024,1.1004638671875,4.582446575164795,6.117999076843262,10.6174955368042,-0.5684715509414673,-0.8294585347175598,-0.2864856719970703,-0.6179654002189636,-0.18298402428627014,1.890307903289795
204,540806,540807,-0.450665146112442,-0.42838433384895325,1.0801690816879272,8.381937026977539,10.840624809265137,7.671418190002441,-0.5714713931083679,-0.8144592642784119,-0.2834858298301697,-0.728579580783844,-0.02238057181239128,2.0128183364868164
205,540816,540817,-0.29803788661956787,-0.24809767305850983,1.01981782913208,11.9622163772583,13.293610572814941,4.768680572509766,-0.5864706635475159,-0.7994599938392639,-0.28048595786094666,-0.916579008102417,-0.09755569696426392,2.090488910675049
206,540826,540827,0.011801386252045631,0.009887170046567917,0.9525616765022278,14.840910911560059,9.705314636230469,1.4265620708465576,-0.5969701409339905,-0.8099594712257385,-0.26998651027679443,-1.0711899995803833,0.0963396430015564,2.1515579223632812
207,540836,540837,-0.11639989167451859,0.0014417653437703848,0.9258297681808472,17.5517578125,-3.822106122970581,-0.17869165539741516,-0.5804709792137146,-0.7994599938392639,-0.277486115694046,-1.1598858833312988,0.14634139835834503,2.1587483882904053
208,540846,540847,-0.7828736305236816,-0.3987451493740082,0.9885841012001038,18.382883071899414,-13.914202690124512,-1.4176279306411743,-0.5789710283279419,-0.8099594712257385,-0.2639867961406708,-0.9262896180152893,0.3751116991043091,2.145116090774536
209,540856,540857,-0.3723732829093933,-0.192985400557518,1.015236735343933,20.0816707611084,-18.95978546142578,-3.3692824840545654,-0.5834708213806152,-0.8084595799446106,-0.27148643136024475,-0.7753041982650757,0.6048188805580139,2.1317691802978516
210,540866,540867,-0.2225503772497177,0.01493461150676012,1.047402024269104,21.153085708618164,-17.196887969970703,-3.590454578399658,-0.5849707126617432,-0.8219588994979858,-0.26998651027679443,-0.6317206621170044,0.7131152153015137,2.0904295444488525
211,540876,540877,-0.6207566857337952,-0.037074875086545944,1.0918434858322144,24.933807373046875,-14.258000373840332,-3.4321017265319824,-0.5849707126617432,-0.8129593133926392,-0.2639867961406708,-0.49126943945884705,0.9242904782295227,2.0535037517547607
212,540886,540887,-1.2451976537704468,-0.20165371894836426,0.9811732172966003,28.07488250732422,-9.049015045166016,-3.197293519973755,-0.5789710283279419,-0.8129593133926392,-0.28798559308052063,-0.3962055444717407,1.1202174425125122,2.0117266178131104
213,540896,540897,-1.1100126504898071,-0.11700846254825592,0.9320977330207825,28.638917922973633,0.3918178379535675,-4.159890651702881,-0.5789710283279419,-0.8129593133926392,-0.28798559308052063,-0.2899666428565979,1.4355909824371338,1.9801801443099976
214,540906,540907,-0.8641726970672607,-0.5788426995277405,0.8977938890457153,27.674549102783203,5.0184326171875,-4.054421424865723,-0.5789710283279419,-0.8129593133926392,-0.28798559308052063,-0.30817466974258423,1.818189024925232,1.9466298818588257
215,540916,540917,-0.2826376259326935,-0.690558910369873,0.7908636331558228,25.179683685302734,6.967756748199463,-3.8017008304595947,-0.5789710283279419,-0.8189590573310852,-0.27898603677749634,-0.5276424884796143,1.9714246988296509,1.890548825263977
216,540926,540927,-0.3301374018192291,-0.23661570250988007,0.9244590997695923,19.880971908569336,6.564260959625244,-4.405956268310547,-0.5789710283279419,-0.8129593133926392,-0.2759861946105957,-0.6335588693618774,2.2930572032928467,1.8528681993484497
217,540936,540937,-0.2995419204235077,0.1835452914237976,0.9201810956001282,10.801515579223633,1.274620532989502,-3.920552968978882,-0.5819708704948425,-0.8189590573310852,-0.27898603677749634,-0.6406815648078918,2.431269407272339,1.8145250082015991
218,540946,540947,-0.19151082634925842,-0.2633034586906433,0.907903254032135,3.713308334350586,-5.931158542633057,-3.1167757511138916,-0.5729713439941406,-0.8309584259986877,-0.27898603677749634,-0.7022567391395569,2.5177347660064697,1.7723640203475952
219,540956,540957,-0.4977787435054779,-0.4983712136745453,0.9121698141098022,-4.859992504119873,-12.56155776977539,-2.7098708152770996,-0.5864706635475159,-0.8234587907791138,-0.277486115694046,-0.5084083080291748,2.6077189445495605,1.7668267488479614
220,540966,540967,-0.86836177110672,-0.19876113533973694,0.9074827432632446,-17.2534122467041,-18.031173706054688,-3.266843557357788,-0.5714713931083679,-0.8354582190513611,-0.2834858298301697,-0.34188413619995117,2.4590847492218018,1.7366076707839966
221,540976,540977,-0.2306044101715088,-0.07942068576812744,0.9728043675422668,-25.036508560180664,-19.207685470581055,-5.020337104797363,-0.5759711861610413,-0.8339582681655884,-0.28798559308052063,-0.11912449449300766,2.2249910831451416,1.7027807235717773
222,540986,540987,0.040564924478530884,-0.13588254153728485,0.9306612014770508,-29.374330520629883,-16.807640075683594,-5.84121561050415,-0.5819708704948425,-0.8399580121040344,-0.28798559308052063,-0.02670365385711193,2.069425582885742,1.6273010969161987
223,540996,540997,-0.6164590120315552,-0.09848947823047638,0.9662982821464539,-26.724262237548828,-10.94178295135498,-5.745234966278076,-0.5504724383354187,-0.8324583768844604,-0.2834858298301697,0.1040327399969101,1.7102398872375488,1.5533305406570435
224,541006,541007,-1.1961292028427124,-0.029744580388069153,0.9941865801811218,-14.916284561157227,-3.843258857727051,-6.273007869720459,-0.5654717087745667,-0.8354582190513611,-0.2864856719970703,0.1298099309206009,1.5760515928268433,1.4728667736053467
225,541016,541017,-0.5827636122703552,-0.29735541343688965,0.9895600080490112,2.9349329471588135,2.551583766937256,-4.987447738647461,-0.5609719157218933,-0.8399580121040344,-0.28498575091362,0.11386369168758392,1.429571270942688,1.3936872482299805
226,541026,541027,-0.423286110162735,-0.20615921914577484,1.0048385858535767,19.31137466430664,5.711944103240967,-3.2503437995910645,-0.5609719157218933,-0.836958110332489,-0.28198590874671936,0.09593755751848221,1.5480592250823975,1.3450894355773926
227,541036,541037,-0.79208904504776,-0.11303571611642838,0.9340760111808777,28.66905403137207,9.514328002929688,-2.4069364070892334,-0.5579720735549927,-0.836958110332489,-0.2759861946105957,0.0042132725939154625,1.710369348526001,1.306930661201477
228,541046,541047,-1.2851684093475342,-0.2360304445028305,0.9188988208770752,28.99545669555664,10.42990493774414,0.3961358070373535,-0.5744712948799133,-0.8534573316574097,-0.2954852283000946,-0.12033016979694366,2.058044672012329,1.2789578437805176
229,541056,541057,-1.24838125705719,-0.2130281627178192,0.9568428993225098,18.811504364013672,7.652605056762695,5.471024513244629,-0.5684715509414673,-0.8414579033851624,-0.29848507046699524,-0.11904554814100266,2.359517812728882,1.3134211301803589
230,541066,541067,-0.5213932394981384,-0.017912007868289948,0.924518883228302,3.7130825519561768,-2.200850486755371,9.938677787780762,-0.5654717087745667,-0.8624568581581116,-0.2924853563308716,-0.18570011854171753,2.4084949493408203,1.372893214225769
231,541076,541077,-0.6428104639053345,-0.3761627972126007,0.9780560731887817,-13.124263763427734,-14.132524490356445,14.933505058288574,-0.5729713439941406,-0.8549572229385376,-0.2939853072166443,-0.07089284062385559,2.428422689437866,1.4964532852172852
232,541086,541087,-0.5964486598968506,-0.8095899820327759,0.9839174747467041,-29.37114906311035,-23.828916549682617,20.008211135864258,-0.5519723892211914,-0.8609569072723389,-0.29098543524742126,0.0823722705245018,2.1807329654693604,1.642191767692566
233,541096,541097,-0.43630820512771606,-0.9717845916748047,0.9979036450386047,-43.38002395629883,-26.257888793945312,24.430675506591797,-0.562471866607666,-0.8594570159912109,-0.2924853563308716,0.5042615532875061,1.8341165781021118,1.8914564847946167
234,541106,541107,-0.3358607888221741,-0.5301473736763,0.9788681864738464,-51.85269546508789,-18.488759994506836,26.460660934448242,-0.5399730205535889,-0.8549572229385376,-0.30898454785346985,0.5649856925010681,1.4085750579833984,2.0557708740234375
235,541116,541117,-0.36259394884109497,-0.09344550222158432,0.9861892461776733,-52.806644439697266,-2.506715774536133,28.027820587158203,-0.5309734344482422,-0.8639568090438843,-0.3029848337173462,0.8321212530136108,0.7994494438171387,2.342942476272583
236,541126,541127,-0.10873989015817642,-0.006317469757050276,0.9760954976081848,-47.32300567626953,9.523353576660156,27.87472152709961,-0.5459727048873901,-0.8399580121040344,-0.30898454785346985,0.8464665412902832,0.343063622713089,2.608349323272705
237,541136,541137,-0.07053466141223907,0.00944489985704422,0.9803563952445984,-32.453773498535156,20.102859497070312,28.26613426208496,-0.5279735922813416,-0.8399580121040344,-0.2969851493835449,0.6700736284255981,0.07261333614587784,2.8417882919311523
238,541146,541147,-0.24186715483665466,-0.05597205087542534,0.9996064901351929,-17.50334930419922,23.77815818786621,28.687946319580078,-0.5429728627204895,-0.8399580121040344,-0.28798559308052063,0.3469226658344269,-0.3957972824573517,3.099116325378418
239,541156,541157,-0.8019821643829346,-0.1583808809518814,1.0292798280715942,-10.38585376739502,16.195598602294922,27.797225952148438,-0.5354732275009155,-0.8384580612182617,-0.2954852283000946,0.29098230600357056,-0.3563517928123474,3.401968479156494
240,541166,541167,-0.4050680994987488,-0.21257804334163666,1.0372251272201538,-5.987966537475586,7.898252010345459,26.964160919189453,-0.5399730205535889,-0.851957380771637,-0.29098543524742126,0.1279127597808838,-0.5073323249816895,3.685321092605591
241,541176,541177,-0.10428396612405777,-0.023743191733956337,1.0399657487869263,-3.3296706676483154,1.4316608905792236,24.604036331176758,-0.5414729118347168,-0.844457745552063,-0.2834858298301697,0.024244163185358047,-0.5940913558006287,3.9523932933807373
242,541186,541187,-0.06866071373224258,0.04834519326686859,1.0195624828338623,5.072131633758545,-3.0048277378082275,22.274799346923828,-0.5474725961685181,-0.8474575877189636,-0.3014849126338959,0.025138653814792633,-0.6054165363311768,4.199761390686035
243,541196,541197,-0.12855927646160126,0.06307054311037064,1.0569589138031006,13.503787994384766,-2.8055803775787354,19.338459014892578,-0.5459727048873901,-0.8279585838317871,-0.29098543524742126,0.07589594274759293,-0.5443814992904663,4.424951553344727
244,541206,541207,-0.3977240324020386,0.008291659876704216,1.041410207748413,16.6652889251709,-0.6109250783920288,17.258825302124023,-0.5504724383354187,-0.844457745552063,-0.29848507046699524,0.11305200308561325,-0.3773833215236664,4.616601943969727
245,541216,541217,-0.3141222298145294,-0.0852627232670784,1.0489377975463867,16.74637794494629,1.3877735137939453,15.36729907989502,-0.5444727540016174,-0.8534573316574097,-0.2864856719970703,0.12957578897476196,-0.24558962881565094,4.794722557067871
246,541226,541227,-0.2459755539894104,0.01005746889859438,0.9938864707946777,14.29782772064209,7.9605255126953125,12.908771514892578,-0.5579720735549927,-0.8489575386047363,-0.2969851493835449,0.08694631606340408,-0.10676581412553787,4.949978828430176
247,541236,541237,-0.41706594824790955,0.06287865340709686,1.0817341804504395,11.347426414489746,7.333429336547852,11.206655502319336,-0.5489725470542908,-0.8459576964378357,-0.29998499155044556,-0.034665126353502274,-0.010657643899321556,5.082226753234863
248,541246,541247,-0.6623239517211914,-0.07067663967609406,1.0294345617294312,7.268796443939209,-2.543915271759033,9.171299934387207,-0.5384730696678162,-0.8414579033851624,-0.2834858298301697,-0.10176923125982285,0.1017223447561264,5.195700168609619
249,541256,541257,-0.5167032480239868,0.004909065552055836,1.1034184694290161,1.5394067764282227,-8.220029830932617,7.936824798583984,-0.5459727048873901,-0.8339582681655884,-0.28798559308052063,-0.03691554442048073,0.08032988756895065,5.297327995300293
250,541266,541267,-0.18277159333229065,-0.045672208070755005,1.045149326324463,-5.546177387237549,-9.800024032592773,6.472879409790039,-0.5414729118347168,-0.8414579033851624,-0.3134843111038208,0.10719083994626999,-0.04273054376244545,5.388643741607666
251,541276,541277,-0.20874394476413727,-0.01824628747999668,1.0708485841751099,-3.384932041168213,-10.744843482971191,4.202138423919678,-0.5339732766151428,-0.8459576964378357,-0.29998499155044556,0.2778443992137909,-0.08030842989683151,5.453165531158447
252,541286,541287,-1.0159517526626587,-0.31025224924087524,1.0582045316696167,2.0567870140075684,-8.862425804138184,2.295644760131836,-0.5414729118347168,-0.8474575877189636,-0.2924853563308716,0.44031015038490295,-0.2157684862613678,5.505632400512695
253,541296,541297,-1.8131663799285889,-1.2538747787475586,1.0737829208374023,11.29644775390625,-5.288182258605957,-0.1009674072265625,-0.5354732275009155,-0.8534573316574097,-0.3014849126338959,0.5504979491233826,-0.10406598448753357,5.520328998565674
254,541306,541307,-1.2298035621643066,-1.3835231065750122,1.0152767896652222,17.790847778320312,-5.5908308029174805,-2.9657320976257324,-0.5309734344482422,-0.8429578542709351,-0.2969851493835449,0.5498573184013367,0.14184193313121796,5.508152961730957
255,541316,541317,-0.6735664010047913,-0.7404122948646545,1.0438705682754517,17.095272064208984,-11.252460479736328,-6.187203884124756,-0.5279735922813416,-0.8549572229385376,-0.3119843900203705,0.6478030681610107,0.3873680531978607,5.473809719085693
256,541326,541327,-0.2565537095069885,-0.12380088120698929,1.0151677131652832,11.107017517089844,-14.635679244995117,-9.589116096496582,-0.5399730205535889,-0.8459576964378357,-0.29998499155044556,0.7623426914215088,0.2464672029018402,5.448896884918213
257,541336,541337,-0.1679098755121231,0.01924646832048893,0.9860480427742004,5.0119452476501465,-6.67561149597168,-14.271634101867676,-0.5399730205535889,-0.8639568090438843,-0.3059847056865692,0.8823218941688538,0.31063640117645264,5.360109329223633
258,541346,541347,-0.11630157381296158,0.03226786479353905,0.9986660480499268,5.272256851196289,6.329106330871582,-17.38555145263672,-0.5309734344482422,-0.836958110332489,-0.29998499155044556,0.8575479984283447,0.3803074061870575,5.223184585571289
259,541356,541357,-0.17793577909469604,0.18904928863048553,1.0292571783065796,7.728224277496338,15.564209938049316,-18.84294891357422,-0.5489725470542908,-0.8399580121040344,-0.29998499155044556,0.8585911989212036,0.3159637451171875,5.067476749420166
260,541366,541367,-0.11028443276882172,0.18714994192123413,1.034235954284668,10.29227352142334,21.126216888427734,-19.381689071655273,-0.5444727540016174,-0.8354582190513611,-0.2924853563308716,0.6483063101768494,0.43962934613227844,4.8770060539245605
261,541376,541377,-0.3362281024456024,0.038897376507520676,1.0396127700805664,10.177749633789062,22.899385452270508,-20.16852378845215,-0.5324733853340149,-0.8384580612182617,-0.28948551416397095,0.35701027512550354,0.5897811055183411,4.68114709854126
262,541386,541387,-0.12232299149036407,-0.02350437082350254,0.9719512462615967,4.743251800537109,21.221817016601562,-20.455196380615234,-0.5534723401069641,-0.8384580612182617,-0.2834858298301697,0.1149960458278656,0.64243483543396,4.492393493652344
263,541396,541397,-0.07619018107652664,-0.009366141632199287,0.9893127679824829,-2.916241407394409,16.692209243774414,-20.151885986328125,-0.5384730696678162,-0.8534573316574097,-0.2834858298301697,-0.023264339193701744,0.6759630441665649,4.294858932495117
264,541406,541407,-0.2412618100643158,-0.06382162123918533,1.065064549446106,-8.609450340270996,12.16066837310791,-21.3749942779541,-0.5579720735549927,-0.8399580121040344,-0.29098543524742126,-0.09994159638881683,0.6653501987457275,4.09312629699707
265,541416,541417,-0.13529278337955475,0.030571993440389633,1.0918834209442139,-5.572744846343994,3.7460501194000244,-21.1236629486084,-0.5489725470542908,-0.8489575386047363,-0.29998499155044556,-0.28745588660240173,0.5889668464660645,3.883929967880249
266,541426,541427,-0.02061038464307785,0.01846315711736679,1.0009403228759766,0.2820435166358948,2.4439616203308105,-18.601396560668945,-0.554972231388092,-0.8489575386047363,-0.28798559308052063,-0.35277092456817627,0.49409234523773193,3.677955150604248
267,541436,541437,-0.49904292821884155,-0.08738409727811813,0.9766461849212646,8.117542266845703,6.73999547958374,-17.372732162475586,-0.5504724383354187,-0.8414579033851624,-0.2924853563308716,-0.2810315489768982,0.5720944404602051,3.4834914207458496
268,541446,541447,-0.7143462896347046,-0.0337560772895813,1.0272496938705444,15.999125480651855,12.592814445495605,-16.007543563842773,-0.5594720244407654,-0.8354582190513611,-0.2954852283000946,-0.2879943549633026,0.6329209804534912,3.312492609024048
269,541456,541457,-0.613452672958374,0.028698166832327843,1.0628435611724854,21.648868560791016,18.458885192871094,-14.688745498657227,-0.5519723892211914,-0.8489575386047363,-0.28798559308052063,-0.4711112976074219,0.819513738155365,3.151067018508911
270,541466,541467,-0.23692843317985535,0.0002847200375981629,1.0043026208877563,16.618825912475586,20.795320510864258,-15.43287181854248,-0.5669716596603394,-0.8399580121040344,-0.28198590874671936,-0.7384784817695618,1.0484415292739868,3.0031473636627197
271,541476,541477,-0.27983301877975464,-0.18282082676887512,1.0602566003799438,10.995462417602539,15.2982177734375,-16.59882354736328,-0.5759711861610413,-0.8399580121040344,-0.2939853072166443,-0.9343036413192749,1.2007538080215454,2.8538060188293457
272,541486,541487,-0.45363685488700867,-0.24554438889026642,1.036577582359314,2.3200464248657227,10.856538772583008,-19.5438232421875,-0.56997150182724,-0.8339582681655884,-0.29998499155044556,-1.0511642694473267,1.257260799407959,2.694410800933838
273,541496,541497,-0.5397706627845764,-0.15790502727031708,1.0440670251846313,-4.531262397766113,10.412511825561523,-22.359006881713867,-0.562471866607666,-0.850457489490509,-0.2954852283000946,-1.1262115240097046,1.106116533279419,2.5021371841430664
274,541506,541507,-0.25340884923934937,-0.0832342579960823,0.987284243106842,-9.297635078430176,10.716124534606934,-24.500513076782227,-0.5849707126617432,-0.8339582681655884,-0.3029848337173462,-1.1943575143814087,0.9925886392593384,2.283679485321045
275,541516,541517,-0.2812706530094147,-0.5486032962799072,1.07157564163208,-8.331108093261719,9.117300987243652,-25.697214126586914,-0.5669716596603394,-0.8429578542709351,-0.2969851493835449,-1.3955895900726318,0.962012767791748,2.039414644241333
276,541526,541527,-0.13959887623786926,-0.372339129447937,1.0025843381881714,-2.3671696186065674,3.8583598136901855,-25.74746322631836,-0.5669716596603394,-0.8399580121040344,-0.28798559308052063,-1.4819227457046509,0.8934140801429749,1.786645531654358
277,541536,541537,-0.13202452659606934,-0.2420547604560852,1.0363355875015259,-0.25136297941207886,-3.312370777130127,-23.836009979248047,-0.5729713439941406,-0.851957380771637,-0.3149842321872711,-1.4015038013458252,0.9034342169761658,1.5435833930969238
278,541546,541547,-0.14410202205181122,-0.08391597121953964,1.0039291381835938,1.9629693031311035,-7.764614105224609,-22.04281234741211,-0.5534723401069641,-0.8534573316574097,-0.29848507046699524,-1.3520587682724,0.8716352581977844,1.3050693273544312
279,541556,541557,-0.16216105222702026,-0.27021846175193787,1.0238583087921143,0.48490017652511597,-4.9988508224487305,-21.199060440063477,-0.5789710283279419,-0.8459576964378357,-0.29098543524742126,-1.2668015956878662,0.9326736927032471,1.0927910804748535
280,541566,541567,-0.35335850715637207,-0.24567030370235443,1.0204451084136963,0.5619189143180847,1.2261701822280884,-21.03220558166504,-0.5759711861610413,-0.8339582681655884,-0.2939853072166443,-1.2451084852218628,0.8354732394218445,0.8678063750267029
281,541576,541577,-0.5886002779006958,-0.2772838771343231,0.999093770980835,0.08681660890579224,5.442306041717529,-18.8662109375,-0.5654717087745667,-0.8414579033851624,-0.2924853563308716,-1.294103741645813,0.8702381253242493,0.6630765199661255
282,541586,541587,-1.1436830759048462,-0.5600014925003052,1.025460124015808,1.3271855115890503,8.137068748474121,-16.23616600036621,-0.5789710283279419,-0.8459576964378357,-0.2939853072166443,-1.401255488395691,0.9020516276359558,0.47751033306121826
283,541596,541597,-0.49551865458488464,-0.3143642842769623,1.032062292098999,3.184641122817993,7.13520622253418,-14.987909317016602,-0.5744712948799133,-0.8414579033851624,-0.3044847846031189,-1.4602559804916382,0.8197319507598877,0.301417738199234
284,541606,541607,-0.19917629659175873,-0.05340439826250076,1.0012662410736084,7.872006416320801,3.116159439086914,-13.843978881835938,-0.5864706635475159,-0.844457745552063,-0.2954852283000946,-1.486151099205017,0.9212926030158997,0.16904710233211517
285,541616,541617,-0.8850322365760803,0.016672858968377113,1.0199456214904785,12.95188045501709,-2.0867958068847656,-12.225224494934082,-0.5714713931083679,-0.8384580612182617,-0.2834858298301697,-1.5283534526824951,0.9612371325492859,0.025887196883559227
286,541626,541627,-0.3830527365207672,-0.08015361428260803,1.0009119510650635,13.027511596679688,-8.694727897644043,-9.535320281982422,-0.5744712948799133,-0.8474575877189636,-0.2864856719970703,-1.4798709154129028,1.2026774883270264,-0.07100751250982285
287,541636,541637,-0.8379929065704346,-0.4773520529270172,0.976833701133728,7.9683756828308105,-11.387045860290527,-6.435433864593506,-0.5894705057144165,-0.8384580612182617,-0.277486115694046,-1.354621410369873,1.355851411819458,-0.1592639833688736
288,541646,541647,-0.5717690587043762,-0.32336774468421936,0.9567415714263916,-1.664793610572815,-12.776382446289062,-2.7536678314208984,-0.5894705057144165,-0.8384580612182617,-0.277486115694046,-1.3140108585357666,1.4093222618103027,-0.23718097805976868
289,541656,541657,-0.6507490873336792,-0.20934396982192993,0.9684751629829407,-10.744915008544922,-11.282228469848633,-0.3562101721763611,-0.5894705057144165,-0.8384580612182617,-0.277486115694046,-1.2458356618881226,1.2893147468566895,-0.29959943890571594
290,541666,541667,-0.7025442719459534,-0.165114164352417,1.015378475189209,-17.920867919921875,-5.502883434295654,2.1101815700531006,-0.56997150182724,-0.8429578542709351,-0.2969851493835449,-1.131782054901123,1.1218496561050415,-0.3204197883605957
291,541676,541677,-0.19467538595199585,-0.0787704586982727,0.9672133326530457,-17.86656379699707,-1.3804292678833008,4.424203395843506,-0.5714713931083679,-0.8324583768844604,-0.28948551416397095,-1.0377566814422607,0.8735343813896179,-0.31649118661880493
292,541686,541687,-0.3332267701625824,-0.46714070439338684,1.0205926895141602,-10.831334114074707,5.88240909576416,5.594886302947998,-0.5819708704948425,-0.8459576964378357,-0.28798559308052063,-1.1045678853988647,0.7958822250366211,-0.2641129791736603
293,541696,541697,-0.6254934072494507,-0.5585503578186035,0.9285255670547485,-1.2396413087844849,8.417647361755371,6.675859451293945,-0.5714713931083679,-0.8324583768844604,-0.28948551416397095,-1.1183356046676636,0.7485257983207703,-0.1925196796655655
294,541706,541707,-0.5452189445495605,-0.1505439728498459,0.9913777112960815,11.058294296264648,5.653900623321533,8.94429874420166,-0.5729713439941406,-0.8339582681655884,-0.28498575091362,-1.1552709341049194,0.7963269352912903,-0.10710995644330978
295,541716,541717,-0.3547452390193939,-0.24139916896820068,0.944758951663971,18.81102752685547,1.8925397396087646,11.712027549743652,-0.5729713439941406,-0.8459576964378357,-0.29098543524742126,-1.2314159870147705,0.8824543952941895,-0.024276237934827805
296,541726,541727,-0.5777772068977356,-0.5904821753501892,0.9932695627212524,17.01266098022461,-4.181436538696289,15.045557975769043,-0.5714713931083679,-0.8324583768844604,-0.2834858298301697,-1.2307946681976318,1.0655890703201294,0.0913885235786438
297,541736,541737,-0.5677903294563293,-1.0445847511291504,1.0123258829116821,12.208759307861328,-11.22744369506836,17.118070602416992,-0.5894705057144165,-0.8474575877189636,-0.29848507046699524,-1.135961651802063,1.0770478248596191,0.20452538132667542
298,541746,541747,-0.42992663383483887,-0.40986645221710205,0.951359212398529,3.0723934173583984,-17.111248016357422,18.07906150817871,-0.5849707126617432,-0.8579570651054382,-0.28798559308052063,-1.0648627281188965,1.1367355585098267,0.3527061641216278
299,541756,541757,-0.9010355472564697,-0.21621383726596832,1.0038431882858276,-5.208261966705322,-18.538414001464844,18.596256256103516,-0.5789710283279419,-0.8549572229385376,-0.29098543524742126,-0.7692877650260925,1.193207859992981,0.5429461598396301
300,541766,541767,-0.32273924350738525,-0.30910593271255493,1.0071961879730225,-10.286161422729492,-17.880613327026367,18.54021644592285,-0.5819708704948425,-0.8459576964378357,-0.28498575091362,-0.6800035238265991,1.1322131156921387,0.7122690081596375
301,541776,541777,-0.8032578229904175,-0.4113602042198181,1.0049060583114624,-16.35954475402832,-14.914937019348145,16.316463470458984,-0.5564721822738647,-0.8384580612182617,-0.2864856719970703,-0.467648983001709,0.9755706191062927,0.8857975006103516
302,541786,541787,-0.37689903378486633,-0.7066144943237305,0.9824482798576355,-19.463428497314453,-14.625070571899414,10.975164413452148,-0.562471866607666,-0.8384580612182617,-0.2834858298301697,-0.3546319007873535,0.9351392984390259,1.0618423223495483
303,541796,541797,-0.3104156255722046,-0.301079660654068,0.9988423585891724,-19.62639045715332,-11.213553428649902,4.623814582824707,-0.5609719157218933,-0.8459576964378357,-0.29998499155044556,-0.18219664692878723,0.7030150890350342,1.1670986413955688
304,541806,541807,-0.5942977070808411,0.0072721634060144424,1.0189918279647827,-15.730996131896973,-3.898756980895996,1.7708115577697754,-0.5579720735549927,-0.8489575386047363,-0.28498575091362,-0.08071985095739365,0.42464837431907654,1.203286051750183
305,541816,541817,-0.987390398979187,-0.06359107792377472,1.019445538520813,-8.394820213317871,3.5708556175231934,-0.14066854119300842,-0.5579720735549927,-0.836958110332489,-0.28498575091362,-0.014834221452474594,0.2970706820487976,1.2272489070892334
306,541826,541827,-0.3152907192707062,-0.17072875797748566,0.9629786610603333,4.508423328399658,12.077903747558594,-2.4272305965423584,-0.56997150182724,-0.8339582681655884,-0.28498575091362,-0.16673023998737335,0.30024290084838867,1.228097677230835
307,541836,541837,-0.06583339720964432,0.023113854229450226,1.0322794914245605,15.757916450500488,10.609809875488281,-4.333987712860107,-0.577471137046814,-0.8384580612182617,-0.2924853563308716,-0.34356316924095154,0.3671175241470337,1.2060550451278687
308,541846,541847,-0.38234442472457886,0.030830953270196915,1.011182427406311,19.029874801635742,6.8241705894470215,-6.526190280914307,-0.577471137046814,-0.8384580612182617,-0.2924853563308716,-0.4201013147830963,0.5703032612800598,1.1697736978530884
309,541856,541857,-0.36429861187934875,-0.19266463816165924,0.9650208950042725,20.072643280029297,-0.06377056241035461,-7.680687427520752,-0.5744712948799133,-0.844457745552063,-0.2864856719970703,-0.49210649728775024,0.7567877173423767,1.1064749956130981
310,541866,541867,-0.33087196946144104,-0.18816548585891724,1.037521481513977,17.87364387512207,-6.140448570251465,-7.356671333312988,-0.5729713439941406,-0.851957380771637,-0.2939853072166443,-0.4491947293281555,0.803058385848999,1.0211385488510132
311,541876,541877,-0.07737186551094055,-0.03963872045278549,0.9807626008987427,13.971253395080566,-11.857935905456543,-8.579689979553223,-0.577471137046814,-0.8384580612182617,-0.2954852283000946,-0.3330061137676239,1.0307095050811768,0.9523025751113892
312,541886,541887,-0.30445393919944763,-0.12895387411117554,0.9787967801094055,13.257539749145508,-21.695819854736328,-7.286971092224121,-0.56997150182724,-0.8279585838317871,-0.28498575091362,-0.29774126410484314,1.2060130834579468,0.8650384545326233
313,541896,541897,-0.6644408106803894,-0.1675579696893692,1.0406185388565063,10.485150337219238,-23.635967254638672,-6.56492280960083,-0.5684715509414673,-0.8324583768844604,-0.2924853563308716,0.06858858466148376,1.4281857013702393,0.7981528639793396
314,541906,541907,-0.5302878618240356,-0.4249584674835205,1.0134118795394897,6.068448066711426,-23.130577087402344,-7.568438529968262,-0.5684715509414673,-0.844457745552063,-0.2864856719970703,0.24524280428886414,1.4423927068710327,0.7212880253791809
315,541916,541917,-0.3507676124572754,-0.10293881595134735,1.0589333772659302,4.6364593505859375,-12.029882431030273,-10.00791072845459,-0.5714713931083679,-0.8384580612182617,-0.29848507046699524,0.43616554141044617,1.4786230325698853,0.6395557522773743
316,541926,541927,-0.28527402877807617,-0.04144010692834854,1.0066416263580322,4.328691482543945,-7.572454929351807,-11.772913932800293,-0.5744712948799133,-0.8294585347175598,-0.277486115694046,0.5022343397140503,1.5604060888290405,0.5340544581413269
317,541936,541937,-0.5381114482879639,-0.49137717485427856,0.995678186416626,2.6737637519836426,0.21315374970436096,-12.955738067626953,-0.5669716596603394,-0.8489575386047363,-0.29098543524742126,0.5404537320137024,1.495013952255249,0.4166716933250427
318,541946,541947,-0.7606168985366821,-0.2385849952697754,0.9776313304901123,0.432491660118103,7.73505973815918,-14.023597717285156,-0.5579720735549927,-0.836958110332489,-0.29098543524742126,0.5200044512748718,1.5491786003112793,0.2862701714038849
319,541956,541957,-0.9004647731781006,-0.5748178958892822,0.9636825919151306,-2.619100570678711,12.581090927124023,-14.229927062988281,-0.5729713439941406,-0.8399580121040344,-0.28798559308052063,0.38023146986961365,1.5526301860809326,0.14485764503479004
320,541966,541967,-1.1189000606536865,-0.6303965449333191,0.9419634342193604,-4.149876117706299,11.492452621459961,-13.877084732055664,-0.56997150182724,-0.8189590573310852,-0.27898603677749634,0.28617119789123535,1.5079087018966675,0.01097127515822649
321,541976,541977,-0.41740813851356506,-0.7303155660629272,1.0022796392440796,-6.04175329208374,12.058128356933594,-12.863170623779297,-0.5669716596603394,-0.8339582681655884,-0.27298635244369507,0.1764966994524002,1.4386889934539795,-0.1212032213807106
322,541986,541987,-0.4842168390750885,-0.3534139096736908,0.992766797542572,-7.814940452575684,4.192569732666016,-11.30898380279541,-0.56997150182724,-0.8399580121040344,-0.27898603677749634,0.11419413983821869,1.4159982204437256,-0.24586527049541473
323,541996,541997,-0.4609004557132721,-0.5008498430252075,1.090370774269104,-8.189532279968262,-0.5891487002372742,-10.05557918548584,-0.5714713931083679,-0.8474575877189636,-0.28948551416397095,0.05939168483018875,1.367498517036438,-0.3617468774318695
324,542006,542007,-0.7773597836494446,-0.3363637328147888,0.9883289933204651,-5.719719886779785,-4.682929992675781,-9.066452026367188,-0.5744712948799133,-0.844457745552063,-0.2864856719970703,0.08797365427017212,1.3187403678894043,-0.46350163221359253
325,542016,542017,-0.7051899433135986,-0.21106953918933868,0.9951807260513306,-2.0980677604675293,-4.661746501922607,-8.240994453430176,-0.5684715509414673,-0.8414579033851624,-0.3014849126338959,0.17821812629699707,1.2382581233978271,-0.5479074716567993
326,542026,542027,-0.8727182149887085,-0.473458468914032,0.9929038882255554,3.2358460426330566,-4.154269218444824,-6.912441253662109,-0.5744712948799133,-0.8474575877189636,-0.28948551416397095,0.17066936194896698,1.2308546304702759,-0.6371461153030396
327,542036,542037,-0.7479744553565979,-0.8930174708366394,1.1445562839508057,4.031688690185547,-6.723774433135986,-5.5996270179748535,-0.5654717087745667,-0.8474575877189636,-0.2864856719970703,0.2611607015132904,1.2671657800674438,-0.7034490704536438
328,542046,542047,-0.3191940486431122,-1.035991907119751,0.8814342021942139,9.91885757446289,-8.5961332321167,-3.391716241836548,-0.5639718174934387,-0.8429578542709351,-0.29098543524742126,0.3660910725593567,1.3603928089141846,-0.7633915543556213
329,542056,542057,-0.1105264276266098,-1.003730058670044,0.9356000423431396,5.350586414337158,-14.568703651428223,-0.1885504275560379,-0.5834708213806152,-0.8324583768844604,-0.2834858298301697,0.453972190618515,1.4864200353622437,-0.8074808120727539
330,542066,542067,-0.5247950553894043,-0.9027323126792908,0.9757016897201538,-0.8900285959243774,-17.66350746154785,2.9275286197662354,-0.5714713931083679,-0.8354582190513611,-0.3014849126338959,0.6360155344009399,1.608343243598938,-0.8171163201332092
331,542076,542077,-0.7823567986488342,-0.5398113131523132,1.1682449579238892,-9.755354881286621,-19.81159210205078,6.302046775817871,-0.5654717087745667,-0.8594570159912109,-0.29848507046699524,0.9417001008987427,1.5426150560379028,-0.7698222994804382
332,542086,542087,-0.6115443110466003,-0.4133633077144623,1.1151690483093262,-15.531242370605469,-10.355020523071289,7.569422721862793,-0.5759711861610413,-0.8429578542709351,-0.29098543524742126,1.0756604671478271,1.4902762174606323,-0.7281976342201233
333,542096,542097,-0.6151182651519775,-0.2524610757827759,1.021865963935852,-21.20063018798828,0.08189498633146286,10.168846130371094,-0.5519723892211914,-0.8489575386047363,-0.29098543524742126,1.198867678642273,1.1845393180847168,-0.6324431300163269
334,542106,542107,-0.637363851070404,-0.37314802408218384,0.9948439598083496,-20.833267211914062,11.437596321105957,11.556219100952148,-0.5534723401069641,-0.8414579033851624,-0.28948551416397095,1.1446404457092285,0.9623265266418457,-0.5384470224380493
335,542116,542117,-0.6628802418708801,-0.4143988788127899,1.0410871505737305,-13.518043518066406,16.164295196533203,12.072092056274414,-0.5669716596603394,-0.8399580121040344,-0.2939853072166443,1.0091590881347656,0.7759684324264526,-0.4283216595649719
336,542126,542127,-0.36086562275886536,-0.4163540005683899,0.8787536025047302,-7.057713508605957,12.454655647277832,12.55551815032959,-0.5654717087745667,-0.8414579033851624,-0.2834858298301697,0.77007657289505,0.6185157299041748,-0.31151047348976135
337,542136,542137,-0.25746989250183105,-0.1430215686559677,0.9740163683891296,-0.31100746989250183,10.401642799377441,12.267034530639648,-0.5789710283279419,-0.8279585838317871,-0.28498575091362,0.6299840211868286,0.6440192461013794,-0.20639175176620483
338,542146,542147,-0.5145567655563354,-0.2224252074956894,0.9341567158699036,5.915943622589111,3.354196786880493,9.918731689453125,-0.5654717087745667,-0.8414579033851624,-0.277486115694046,0.5483037233352661,0.6997188925743103,-0.09404518455266953
339,542156,542157,-0.5258675217628479,-0.045207031071186066,0.9819102883338928,4.624256134033203,1.2706475257873535,8.46766185760498,-0.554972231388092,-0.851957380771637,-0.28798559308052063,0.5704083442687988,0.7459919452667236,0.01167494896799326
340,542166,542167,-0.46384891867637634,-0.2822694182395935,0.8865863084793091,-1.9645156860351562,5.184933185577393,7.432015419006348,-0.5564721822738647,-0.8564571738243103,-0.29848507046699524,0.5849578380584717,0.76329106092453,0.10545111447572708
341,542176,542177,-0.399928480386734,-0.09414875507354736,0.8943009376525879,-10.535965919494629,5.824658393859863,6.225519180297852,-0.5594720244407654,-0.8534573316574097,-0.2924853563308716,0.5665623545646667,0.7463899254798889,0.18276096880435944
342,542186,542187,-0.5984822511672974,0.03280043974518776,0.9935320019721985,-21.351198196411133,11.554316520690918,4.617879390716553,-0.5444727540016174,-0.8474575877189636,-0.29848507046699524,0.4230539798736572,0.6433879733085632,0.2425445169210434
343,542196,542197,-0.19197328388690948,-0.4735354781150818,1.0031441450119019,-28.52712059020996,15.02430248260498,3.65960431098938,-0.5639718174934387,-0.8549572229385376,-0.2969851493835449,0.351444274187088,0.29905518889427185,0.3184472322463989
344,542206,542207,-0.18932604789733887,-0.5801267027854919,0.9840739965438843,-27.02155876159668,14.119501113891602,5.030421733856201,-0.5594720244407654,-0.8474575877189636,-0.2924853563308716,0.26070109009742737,0.1082678958773613,0.34234902262687683
345,542216,542217,-0.31558001041412354,-0.08711456507444382,0.9835871458053589,-22.877933502197266,16.567176818847656,5.007110118865967,-0.5504724383354187,-0.8594570159912109,-0.29848507046699524,0.13420559465885162,-0.1378951072692871,0.3867611885070801
346,542226,542227,-0.5053086280822754,0.017077984288334846,1.0391545295715332,-16.410560607910156,12.45075511932373,4.442211151123047,-0.5579720735549927,-0.8549572229385376,-0.2969851493835449,-0.14378225803375244,-0.2464698702096939,0.41502904891967773
347,542236,542237,-0.3422389030456543,-0.37312087416648865,1.053885817527771,-11.726076126098633,7.096811294555664,5.573579788208008,-0.5579720735549927,-0.8549572229385376,-0.3059847056865692,-0.2061155140399933,-0.47369515895843506,0.4660966694355011
348,542246,542247,-0.16766555607318878,-0.20198091864585876,0.974891722202301,-7.060297966003418,0.5238329172134399,6.265821933746338,-0.5609719157218933,-0.8609569072723389,-0.3029848337173462,-0.1788424402475357,-0.5363827347755432,0.5066071152687073
349,542256,542257,-0.22530321776866913,-0.06173616647720337,1.0265767574310303,-4.328414440155029,1.2435836791992188,7.758707046508789,-0.5519723892211914,-0.8729563355445862,-0.29998499155044556,-0.22204774618148804,-0.6246909499168396,0.5702832937240601
350,542266,542267,-0.16702662408351898,0.07160264998674393,1.0350627899169922,-1.9942710399627686,5.8252997398376465,7.136048793792725,-0.5519723892211914,-0.8489575386047363,-0.3059847056865692,-0.14605523645877838,-0.6467297077178955,0.6370413303375244
351,542276,542277,-0.2950603663921356,-0.364239364862442,1.0251215696334839,-7.5463547706604,11.847091674804688,6.164948463439941,-0.5594720244407654,-0.8564571738243103,-0.29848507046699524,-0.3857223391532898,-0.603471040725708,0.7175354957580566
352,542286,542287,-0.31156784296035767,-0.25282806158065796,1.0428228378295898,-13.052860260009766,18.19282341003418,5.278472423553467,-0.554972231388092,-0.8549572229385376,-0.3059847056865692,-0.4897564947605133,-0.7985824942588806,0.7871817350387573
353,542296,542297,-0.06980110704898834,-0.10485833883285522,1.0182677507400513,-10.775598526000977,19.946983337402344,5.471579551696777,-0.5564721822738647,-0.850457489490509,-0.3014849126338959,-0.7410051822662354,-0.9697680473327637,0.8502483367919922
354,542306,542307,-0.033374834805727005,0.14909222722053528,1.0390359163284302,-6.7434773445129395,15.669962882995605,5.555440902709961,-0.5519723892211914,-0.8489575386047363,-0.3059847056865692,-0.827456533908844,-1.084336280822754,0.8832480907440186
355,542316,542317,-0.2198152095079422,-0.02312426269054413,1.0284167528152466,-3.921142578125,10.466575622558594,6.007166862487793,-0.5504724383354187,-0.8534573316574097,-0.29848507046699524,-0.9273262023925781,-1.2136200666427612,0.9296145439147949
356,542326,542327,-0.6159260272979736,-0.09799529612064362,1.101900577545166,-1.4245121479034424,0.6528457403182983,7.679996967315674,-0.5564721822738647,-0.8534573316574097,-0.3044847846031189,-0.9418704509735107,-1.1549053192138672,0.9676347970962524
357,542336,542337,-0.6077151894569397,-0.09840552508831024,1.0118870735168457,1.3168760538101196,-10.925546646118164,8.738770484924316,-0.5684715509414673,-0.844457745552063,-0.30748462677001953,-0.9284567832946777,-1.1972863674163818,1.0387458801269531
358,542346,542347,-0.39265796542167664,-0.01911141909658909,1.0103578567504883,3.8912606239318848,-16.57733726501465,10.03594970703125,-0.5639718174934387,-0.8459576964378357,-0.2969851493835449,-0.746284008026123,-1.2520010471343994,1.1108890771865845
359,542356,542357,-0.821377158164978,-0.032068077474832535,1.0229988098144531,5.742255687713623,-17.860361099243164,10.115897178649902,-0.5639718174934387,-0.8579570651054382,-0.3059847056865692,-0.6512079834938049,-1.1982775926589966,1.2302895784378052
360,542366,542367,-0.37510401010513306,-0.026239095255732536,1.0221108198165894,7.896566867828369,-17.705947875976562,9.253490447998047,-0.5564721822738647,-0.8474575877189636,-0.2924853563308716,-0.3553978204727173,-1.1136341094970703,1.302473545074463
361,542376,542377,-0.46658623218536377,-0.05129990726709366,1.021990180015564,11.558830261230469,-12.091631889343262,7.877595901489258,-0.5459727048873901,-0.8579570651054382,-0.31798410415649414,-0.24884271621704102,-1.0524049997329712,1.4246933460235596
362,542386,542387,-0.26643499732017517,-0.1373436450958252,1.057222843170166,14.376296043395996,-3.5077695846557617,6.728677272796631,-0.5474725961685181,-0.8534573316574097,-0.29848507046699524,-0.10653307288885117,-0.9293457865715027,1.4997352361679077
363,542396,542397,-0.0726911723613739,-0.05515513941645622,1.038233757019043,14.989498138427734,6.109604835510254,5.509425640106201,-0.5474725961685181,-0.8534573316574097,-0.29848507046699524,-0.11041996628046036,-0.8468642234802246,1.5815322399139404
364,542406,542407,-0.2906058728694916,-0.0970102921128273,1.0499883890151978,13.566014289855957,15.647333145141602,4.505267143249512,-0.5474725961685181,-0.8534573316574097,-0.29848507046699524,-0.27140602469444275,-0.6834146976470947,1.66573965549469
365,542416,542417,-0.39808782935142517,-0.4684964716434479,1.0357427597045898,9.56471061706543,22.37140464782715,4.402659893035889,-0.5639718174934387,-0.8459576964378357,-0.30898454785346985,-0.5720120668411255,-0.5512446165084839,1.749526023864746
366,542426,542427,-0.14178182184696198,-0.13975802063941956,1.0456148386001587,1.3576979637145996,19.0079402923584,5.04395866394043,-0.5579720735549927,-0.8459576964378357,-0.2969851493835449,-0.5703599452972412,-0.7075486183166504,1.716548204421997
367,542436,542437,-0.1960926204919815,-0.08191290497779846,1.0423824787139893,-4.801146984100342,12.28812313079834,7.9841437339782715,-0.562471866607666,-0.844457745552063,-0.2864856719970703,-0.668225884437561,-0.6124813556671143,1.742310643196106
368,542446,542447,-0.09228125214576721,-0.018735963851213455,1.0039321184158325,-10.91129207611084,4.961036205291748,10.076547622680664,-0.562471866607666,-0.8384580612182617,-0.2954852283000946,-0.80455082654953,-0.6930317282676697,1.8204010725021362
369,542456,542457,-0.019209694117307663,0.02782193012535572,0.9541221261024475,-18.529598236083984,-3.4037716388702393,10.36046028137207,-0.56997150182724,-0.8489575386047363,-0.28498575091362,-0.823967695236206,-0.8096410036087036,1.906448483467102
370,542466,542467,-0.4085538387298584,-0.08294495195150375,1.0011329650878906,-19.392637252807617,-11.53032398223877,9.152183532714844,-0.56997150182724,-0.8459576964378357,-0.3059847056865692,-0.7768964171409607,-1.025275468826294,2.000643014907837
371,542476,542477,-0.8625258207321167,-0.18076932430267334,1.027036428451538,-16.845914840698242,-14.087641716003418,8.692353248596191,-0.5564721822738647,-0.8234587907791138,-0.28948551416397095,-0.6189551949501038,-1.17062246799469,2.080059289932251
372,542486,542487,-0.2099711000919342,-0.041536249220371246,1.063463568687439,-10.650571823120117,-13.139456748962402,8.038490295410156,-0.5504724383354187,-0.8354582190513611,-0.2924853563308716,-0.49460023641586304,-1.4007792472839355,2.169856309890747
373,542496,542497,-0.3934362530708313,-0.004885835573077202,1.0401469469070435,-2.5511672496795654,-9.057360649108887,7.625384330749512,-0.5564721822738647,-0.844457745552063,-0.2924853563308716,-0.39831867814064026,-1.4595530033111572,2.269444704055786
374,542506,542507,-0.8314419388771057,0.005994668696075678,1.0640056133270264,10.34685230255127,-1.2203059196472168,8.569840431213379,-0.5489725470542908,-0.8489575386047363,-0.2969851493835449,-0.3020258843898773,-1.43348228931427,2.3520259857177734
375,542516,542517,-0.9979268312454224,0.0008547232719138265,1.0344533920288086,18.641481399536133,5.2113800048828125,8.903435707092285,-0.5609719157218933,-0.8489575386047363,-0.29998499155044556,-0.30869635939598083,-1.2015807628631592,2.4524402618408203
376,542526,542527,-0.6941165328025818,-0.06855747848749161,1.0753744840621948,20.330509185791016,9.721484184265137,7.558664798736572,-0.5594720244407654,-0.844457745552063,-0.3014849126338959,-0.44532063603401184,-1.0910788774490356,2.5703742504119873
377,542536,542537,-0.43386268615722656,0.06040159985423088,1.0483686923980713,19.210721969604492,10.055747985839844,4.287944316864014,-0.5759711861610413,-0.8459576964378357,-0.2939853072166443,-0.6292292475700378,-0.8881338834762573,2.6631765365600586
378,542546,542547,-0.5216835141181946,-0.24339140951633453,1.1163750886917114,19.94243812561035,7.092362403869629,0.4062551259994507,-0.562471866607666,-0.8384580612182617,-0.2924853563308716,-0.7097167372703552,-0.8302769064903259,2.6898343563079834
379,542556,542557,-0.22654712200164795,-0.17341838777065277,1.0144691467285156,24.048728942871094,7.108160972595215,-2.33223819732666,-0.562471866607666,-0.844457745552063,-0.2864856719970703,-0.7614728212356567,-0.5255103707313538,2.701514482498169
380,542566,542567,-0.1887059211730957,-0.006141201592981815,1.0216176509857178,22.939735412597656,4.31516695022583,-3.775777816772461,-0.5669716596603394,-0.8279585838317871,-0.2939853072166443,-0.8224988579750061,-0.3320770859718323,2.6762709617614746
381,542576,542577,-0.21578969061374664,0.010033066384494305,1.0085276365280151,18.217430114746094,-1.3026418685913086,-5.077130317687988,-0.5744712948799133,-0.8384580612182617,-0.2864856719970703,-0.8292626142501831,-0.2246953397989273,2.6168525218963623
382,542586,542587,-0.15301835536956787,-0.11760228127241135,1.047642469406128,15.13095760345459,-1.1917273998260498,-5.049524784088135,-0.5669716596603394,-0.8399580121040344,-0.28498575091362,-0.7673498392105103,-0.10476561635732651,2.5366435050964355
383,542596,542597,-0.19598926603794098,-0.3149126172065735,1.0011965036392212,15.748697280883789,0.48772433400154114,-4.290654182434082,-0.5594720244407654,-0.8414579033851624,-0.2834858298301697,-0.7808284163475037,0.04708656668663025,2.492344379425049
384,542606,542607,-0.5013460516929626,-0.2145533412694931,1.0178453922271729,15.417478561401367,5.571222305297852,-5.020956039428711,-0.5654717087745667,-0.8414579033851624,-0.28048595786094666,-0.831662654876709,0.27251526713371277,2.464848756790161
385,542616,542617,-0.20782573521137238,-0.11431273072957993,1.0087393522262573,18.229915618896484,7.6554765701293945,-4.22877311706543,-0.5759711861610413,-0.8399580121040344,-0.2759861946105957,-0.9341284036636353,0.3685060441493988,2.4204986095428467
386,542626,542627,-0.15359334647655487,-0.07831630855798721,1.0224026441574097,20.63406753540039,9.123167037963867,-2.6390721797943115,-0.5849707126617432,-0.8429578542709351,-0.27898603677749634,-0.9957996010780334,0.5775054693222046,2.3801496028900146
387,542636,542637,-0.45494651794433594,0.00033852781052701175,0.9873232245445251,20.0821533203125,9.786219596862793,-1.948081374168396,-0.5759711861610413,-0.8279585838317871,-0.29098543524742126,-1.1450979709625244,0.8116598129272461,2.3678205013275146
388,542646,542647,-0.21378935873508453,0.14208075404167175,1.031495451927185,14.873806953430176,11.636313438415527,-2.049065351486206,-0.5864706635475159,-0.8294585347175598,-0.26848655939102173,-1.2558581829071045,0.8845566511154175,2.335731029510498
389,542656,542657,-0.5145508646965027,-0.1972835659980774,1.0249781608581543,4.55393123626709,5.946785926818848,-1.9347591400146484,-0.577471137046814,-0.8324583768844604,-0.28948551416397095,-1.340998649597168,1.062474012374878,2.3159327507019043
390,542666,542667,-1.0932908058166504,-0.19147005677223206,1.0004030466079712,-4.007272243499756,-3.277163028717041,-0.5070117115974426,-0.5819708704948425,-0.836958110332489,-0.27898603677749634,-1.3278526067733765,1.0163426399230957,2.2742912769317627
391,542676,542677,-0.9776061177253723,-0.11497969925403595,1.0310189723968506,-5.3458709716796875,-14.104438781738281,1.998707890510559,-0.5819708704948425,-0.8309584259986877,-0.29098543524742126,-1.2080076932907104,0.9975999593734741,2.26377272605896
392,542686,542687,-0.7220598459243774,-0.138405904173851,0.9563652873039246,0.11142769455909729,-20.97874641418457,1.8585984706878662,-0.5654717087745667,-0.844457745552063,-0.2834858298301697,-0.9558621048927307,0.9790391325950623,2.2782487869262695
393,542696,542697,-0.8303096890449524,-0.4322540760040283,1.0043302774429321,2.6211798191070557,-23.697263717651367,2.014270782470703,-0.5639718174934387,-0.8219588994979858,-0.28798559308052063,-0.8277295827865601,0.9544673562049866,2.293247938156128
394,542706,542707,-0.35350292921066284,-0.9880473613739014,1.0865522623062134,7.9864397048950195,-24.169246673583984,0.9911762475967407,-0.577471137046814,-0.8354582190513611,-0.2864856719970703,-0.4920072555541992,0.98484867811203,2.3079726696014404
395,542716,542717,-0.18243464827537537,-0.3616354167461395,0.9882476329803467,17.619314193725586,-20.1446533203125,0.1264631450176239,-0.5834708213806152,-0.8294585347175598,-0.2834858298301697,-0.3205772042274475,1.0566434860229492,2.3175621032714844
396,542726,542727,-0.18245457112789154,-0.1859762966632843,0.9069826602935791,23.513071060180664,-11.313568115234375,1.0736970901489258,-0.5864706635475159,-0.8384580612182617,-0.2834858298301697,-0.16099323332309723,1.2618178129196167,2.319622755050659
397,542736,542737,-0.44972509145736694,-0.30434364080429077,0.9513142108917236,25.29081153869629,-0.546872615814209,2.1239609718322754,-0.5729713439941406,-0.8249587416648865,-0.2759861946105957,-0.06743190437555313,1.613528847694397,2.338879108428955
398,542746,542747,-0.6242038607597351,-0.41048887372016907,0.9353364706039429,19.634952545166016,7.248863220214844,3.1961135864257812,-0.5894705057144165,-0.8324583768844604,-0.28048595786094666,-0.06498905271291733,1.7549312114715576,2.3478469848632812
399,542756,542757,-0.43557125329971313,-0.5232572555541992,0.7632834911346436,12.597760200500488,13.901052474975586,0.7361935973167419,-0.5669716596603394,-0.8339582681655884,-0.27298635244369507,-0.26330724358558655,1.8771904706954956,2.3637425899505615
400,542766,542767,-0.36637529730796814,-0.3482070863246918,0.8663678765296936,8.727293968200684,16.355058670043945,-1.7287541627883911,-0.5714713931083679,-0.8354582190513611,-0.2834858298301697,-0.4033156931400299,1.9751619100570679,2.376333236694336
401,542776,542777,-0.38789355754852295,-0.13319870829582214,0.9841167330741882,0.9342532157897949,14.59181022644043,-3.1645894050598145,-0.577471137046814,-0.844457745552063,-0.28948551416397095,-0.569279134273529,2.117959499359131,2.3740596771240234
402,542786,542787,-0.4684048593044281,0.043157909065485,1.0558927059173584,-6.663539409637451,9.892172813415527,-5.584671974182129,-0.5729713439941406,-0.851957380771637,-0.29098543524742126,-0.7954226136207581,2.143923282623291,2.341323137283325
403,542796,542797,-0.5309716463088989,-0.17832989990711212,1.0208419561386108,-12.560418128967285,3.052581310272217,-6.387026309967041,-0.5654717087745667,-0.8474575877189636,-0.2924853563308716,-0.8578415513038635,2.047403335571289,2.2977242469787598
404,542806,542807,-0.4090588092803955,-0.16518718004226685,0.9980117082595825,-11.631855010986328,-7.973268985748291,-4.884857177734375,-0.5744712948799133,-0.8474575877189636,-0.30748462677001953,-0.8446635603904724,1.8802852630615234,2.2412657737731934
405,542816,542817,-0.26040610671043396,-0.39601507782936096,0.9939866065979004,-5.582128047943115,-20.27851104736328,-2.0757975578308105,-0.5564721822738647,-0.8474575877189636,-0.3014849126338959,-0.6458070874214172,1.7396140098571777,2.2110562324523926
406,542826,542827,-0.4768221378326416,-0.1674259454011917,0.981141209602356,5.081416606903076,-28.015859603881836,0.1989007145166397,-0.554972231388092,-0.851957380771637,-0.29098543524742126,-0.34961360692977905,1.7833162546157837,2.212671995162964
407,542836,542837,-0.9606385827064514,-0.4223423898220062,0.9812104105949402,16.650575637817383,-28.68724250793457,1.8478944301605225,-0.5579720735549927,-0.851957380771637,-0.29998499155044556,-0.17922015488147736,1.8591272830963135,2.1821038722991943
408,542846,542847,-0.6435894966125488,-0.35223570466041565,0.9643515944480896,22.68645477294922,-26.481548309326172,3.3338944911956787,-0.562471866607666,-0.8624568581581116,-0.29848507046699524,0.15248294174671173,2.0955748558044434,2.2074224948883057
409,542856,542857,-0.7580199837684631,-0.7223258018493652,0.9697864055633545,25.093372344970703,-19.603700637817383,6.381866931915283,-0.5504724383354187,-0.8534573316574097,-0.2954852283000946,0.4186718165874481,2.4781527519226074,2.239326238632202
410,542866,542867,-0.3728885352611542,-0.6318791508674622,0.97685307264328,20.465072631835938,-9.406988143920898,8.658267974853516,-0.5654717087745667,-0.8564571738243103,-0.29848507046699524,0.4962475895881653,2.5073599815368652,2.2527036666870117
411,542876,542877,-0.6658852100372314,-0.08968991786241531,0.9594718813896179,15.088088989257812,-1.0589436292648315,9.903878211975098,-0.5594720244407654,-0.8684565424919128,-0.3044847846031189,0.5723680853843689,2.7539243698120117,2.323906183242798
412,542886,542887,-0.3790355622768402,0.013393150642514229,0.9876486659049988,3.9911510944366455,6.764338970184326,10.616693496704102,-0.5654717087745667,-0.850457489490509,-0.2834858298301697,0.5809219479560852,2.888296604156494,2.4171254634857178
413,542896,542897,-0.8837141990661621,-0.1798613965511322,0.9695730805397034,-11.169793128967285,11.860821723937988,9.399373054504395,-0.5669716596603394,-0.8549572229385376,-0.2939853072166443,0.46964308619499207,2.895542860031128,2.5081021785736084
414,542906,542907,-0.4771172106266022,-0.0906723290681839,0.9340025782585144,-22.279924392700195,15.594193458557129,8.67206859588623,-0.5729713439941406,-0.8429578542709351,-0.28798559308052063,0.3766342103481293,2.6885712146759033,2.6189630031585693
415,542916,542917,-0.3139772415161133,-0.056340403854846954,0.9768120646476746,-34.45351791381836,19.123693466186523,7.58053731918335,-0.5579720735549927,-0.8399580121040344,-0.2969851493835449,0.20263254642486572,2.498277425765991,2.7005562782287598
416,542926,542927,-0.12750685214996338,-0.07261992990970612,0.9680633544921875,-44.80735778808594,16.565492630004883,8.83316421508789,-0.5519723892211914,-0.8459576964378357,-0.28498575091362,-0.010491667315363884,2.0429136753082275,2.782766342163086
417,542936,542937,-0.14946775138378143,-0.07633265852928162,0.9791164398193359,-51.820228576660156,10.720495223999023,9.211433410644531,-0.5594720244407654,-0.8414579033851624,-0.28948551416397095,-0.034806109964847565,1.8453552722930908,2.9142682552337646
418,542946,542947,-0.5291811227798462,-0.17746512591838837,0.9833700060844421,-51.70680236816406,4.851800918579102,7.103748321533203,-0.5519723892211914,-0.8429578542709351,-0.2969851493835449,-0.1638626754283905,1.2613556385040283,3.005586624145508
419,542956,542957,-0.3493061363697052,-0.08530019223690033,0.9979559183120728,-43.60499572753906,0.3893711566925049,7.074385643005371,-0.5474725961685181,-0.8324583768844604,-0.2924853563308716,-0.1582985818386078,0.5016717910766602,3.114811658859253
420,542966,542967,-0.3446614742279053,-0.0814831480383873,0.9747737050056458,-31.077816009521484,-5.368197441101074,6.508934497833252,-0.562471866607666,-0.8564571738243103,-0.2924853563308716,-0.1607004851102829,0.46118277311325073,3.167917013168335
421,542976,542977,-0.7078951001167297,-0.0818459764122963,0.9678459167480469,-20.610727310180664,-9.038797378540039,3.9986956119537354,-0.5459727048873901,-0.836958110332489,-0.29098543524742126,-0.05819711834192276,0.16071569919586182,3.2464771270751953
422,542986,542987,-0.20439481735229492,0.10627110302448273,0.9520241618156433,-11.290045738220215,-7.734604835510254,0.7788360714912415,-0.5669716596603394,-0.8429578542709351,-0.29998499155044556,-0.0721854418516159,-0.030572718009352684,3.25852108001709
423,542996,542997,-0.103152334690094,0.020600775256752968,1.0422691106796265,-1.9259545803070068,-6.449225425720215,1.137242317199707,-0.5534723401069641,-0.844457745552063,-0.28948551416397095,0.04418838396668434,-0.16345302760601044,3.2813332080841064
424,543006,543007,-0.742167055606842,-0.7163715362548828,1.0224542617797852,4.7681050300598145,-7.127173900604248,0.728450357913971,-0.5669716596603394,-0.8399580121040344,-0.28798559308052063,0.09444600343704224,-0.14486752450466156,3.287498950958252
425,543016,543017,-0.2970086336135864,-0.15790259838104248,1.0048229694366455,6.806916236877441,-1.3638721704483032,1.5020129680633545,-0.554972231388092,-0.8459576964378357,-0.29098543524742126,0.12477591633796692,0.038496408611536026,3.2782533168792725
426,543026,543027,-0.5073129534721375,0.06629518419504166,1.0709084272384644,7.073012351989746,4.7998762130737305,2.171250343322754,-0.554972231388092,-0.8399580121040344,-0.2969851493835449,0.16782037913799286,0.09623963385820389,3.296205997467041
427,543036,543037,-1.122418761253357,-0.3058813512325287,1.0251634120941162,0.07386787980794907,12.206613540649414,3.5757908821105957,-0.5714713931083679,-0.8474575877189636,-0.28948551416397095,0.09188102185726166,0.13685256242752075,3.31394624710083
428,543046,543047,-1.0648176670074463,-0.7573281526565552,0.982150137424469,-9.390846252441406,17.526273727416992,5.981533050537109,-0.5594720244407654,-0.8474575877189636,-0.2954852283000946,-0.09622218459844589,0.07730145752429962,3.3456027507781982
429,543056,543057,-0.8413649797439575,-0.330594927072525,0.9615925550460815,-20.230470657348633,17.43134880065918,7.7547807693481445,-0.5594720244407654,-0.8564571738243103,-0.3014849126338959,-0.2050207108259201,-0.008227504789829254,3.409818172454834
430,543066,543067,-0.9892500042915344,0.02757612057030201,1.0491794347763062,-27.888885498046875,10.933774948120117,9.385437965393066,-0.5579720735549927,-0.8429578542709351,-0.2969851493835449,-0.3072493076324463,-0.25879648327827454,3.4960036277770996
431,543076,543077,-0.20318594574928284,-0.13062216341495514,1.0491491556167603,-33.879859924316406,0.4926503896713257,11.1515531539917,-0.5639718174934387,-0.851957380771637,-0.28798559308052063,-0.43060046434402466,-0.6232126355171204,3.5910532474517822
432,543086,543087,-0.11655917763710022,-0.1219724491238594,1.0868957042694092,-33.376976013183594,-8.600411415100098,10.324868202209473,-0.5594720244407654,-0.8414579033851624,-0.2834858298301697,-0.4225347936153412,-0.7747048735618591,3.696178436279297
433,543096,543097,-0.2788682281970978,0.034544628113508224,1.0721662044525146,-27.753725051879883,-18.10171890258789,9.199555397033691,-0.5504724383354187,-0.8354582190513611,-0.2924853563308716,-0.32777562737464905,-1.1945346593856812,3.8060333728790283
434,543106,543107,-0.39983320236206055,-0.36946630477905273,1.0442525148391724,-13.122008323669434,-18.215700149536133,8.493979454040527,-0.5474725961685181,-0.8264586329460144,-0.3014849126338959,-0.255921334028244,-1.3485110998153687,3.9009411334991455
435,543116,543117,-0.8685015439987183,-0.1452753096818924,0.9976682066917419,5.724502086639404,-19.391956329345703,7.871301651000977,-0.5474725961685181,-0.8354582190513611,-0.2834858298301697,0.06015593931078911,-1.539986491203308,3.9828457832336426
436,543126,543127,-0.6425549387931824,-0.1490270495414734,1.0005381107330322,15.033897399902344,-16.04020881652832,7.38934850692749,-0.5639718174934387,-0.8339582681655884,-0.2969851493835449,0.30082544684410095,-1.4004801511764526,4.055209159851074
437,543136,543137,-0.21969299018383026,-0.015432675369083881,1.0144426822662354,21.491512298583984,-7.465673923492432,7.205939292907715,-0.5609719157218933,-0.8339582681655884,-0.29998499155044556,0.32453852891921997,-1.322087049484253,4.1603264808654785
438,543146,543147,0.024241624400019646,0.1346614509820938,1.000675916671753,24.280641555786133,2.927602767944336,5.858005046844482,-0.5579720735549927,-0.8279585838317871,-0.28198590874671936,0.35354796051979065,-1.0009938478469849,4.23624849319458
439,543156,543157,-0.12506930530071259,0.025705114006996155,1.0227460861206055,21.869781494140625,14.059855461120605,4.416817665100098,-0.5579720735549927,-0.8279585838317871,-0.28198590874671936,0.276666522026062,-0.9293233752250671,4.3131022453308105
440,543166,543167,-0.3812965452671051,-0.4856991171836853,0.9950169920921326,13.786370277404785,22.700345993041992,4.140095233917236,-0.5579720735549927,-0.8279585838317871,-0.28198590874671936,0.11188808083534241,-0.632197916507721,4.3559160232543945
441,543176,543177,-0.5588533282279968,-0.5398110151290894,1.0141963958740234,4.944056987762451,24.51043128967285,3.2481424808502197,-0.5579720735549927,-0.8129593133926392,-0.2969851493835449,-0.1839020550251007,-0.6102659702301025,4.415907382965088
442,543186,543187,-1.3290956020355225,-0.5378040075302124,1.056969404220581,-7.481667995452881,18.809953689575195,1.9227780103683472,-0.5609719157218933,-0.8279585838317871,-0.26998651027679443,-0.34099820256233215,-0.589625895023346,4.426192283630371
443,543196,543197,-1.5582294464111328,-0.8553621172904968,0.964692234992981,-16.307138442993164,8.869937896728516,2.4423065185546875,-0.5744712948799133,-0.8264586329460144,-0.28048595786094666,-0.4664393961429596,-0.7530931234359741,4.432967662811279
444,543206,543207,-0.5665555596351624,-0.4610483646392822,0.9875171184539795,-16.86798095703125,0.31608647108078003,2.4141499996185303,-0.5609719157218933,-0.8249587416648865,-0.28198590874671936,-0.5625858306884766,-0.9516091346740723,4.4564127922058105
445,543216,543217,-0.137883260846138,-0.2333037108182907,0.9702329635620117,-5.0301899909973145,-12.179250717163086,4.284348487854004,-0.5504724383354187,-0.8234587907791138,-0.2834858298301697,-0.4934315085411072,-1.1830824613571167,4.467138767242432
446,543226,543227,-0.2743997573852539,-0.1459568440914154,0.9753816723823547,9.03111743927002,-20.18598175048828,6.578128814697266,-0.5534723401069641,-0.8324583768844604,-0.277486115694046,-0.26134100556373596,-1.21504545211792,4.481784820556641
447,543236,543237,-0.12583495676517487,-0.04737263545393944,0.9503326416015625,21.6313419342041,-26.94133758544922,7.772731304168701,-0.5594720244407654,-0.8234587907791138,-0.2834858298301697,-0.12686815857887268,-1.0298068523406982,4.563292026519775
448,543246,543247,-0.010381282307207584,0.024743158370256424,0.9422094225883484,33.369911193847656,-31.49193000793457,7.702381134033203,-0.5534723401069641,-0.8354582190513611,-0.2834858298301697,0.18066425621509552,-0.6445854902267456,4.6283721923828125
449,543256,543257,-0.48796865344047546,-0.29103052616119385,0.9796563982963562,38.52243423461914,-29.04343032836914,7.688852310180664,-0.5474725961685181,-0.8354582190513611,-0.2864856719970703,0.39569470286369324,-0.4639556109905243,4.736480236053467
450,543266,543267,-0.8499430418014526,-0.40394482016563416,0.9588285088539124,35.198368072509766,-20.93379020690918,8.399759292602539,-0.5504724383354187,-0.8534573316574097,-0.2954852283000946,0.6979737877845764,0.06512434780597687,4.804119110107422
451,543276,543277,-0.5677356123924255,-0.41858306527137756,0.9870728850364685,25.846969604492188,-12.211136817932129,9.674880981445312,-0.5414729118347168,-0.850457489490509,-0.3014849126338959,0.8115150332450867,0.24354663491249084,4.920755863189697
452,543286,543287,-0.3689294755458832,-0.05403897538781166,0.9458715319633484,11.672063827514648,-1.7941787242889404,9.89931869506836,-0.5639718174934387,-0.8549572229385376,-0.28798559308052063,0.9797677397727966,0.4719838798046112,5.0075788497924805
453,543296,543297,-0.051975999027490616,0.03370209410786629,0.9790017604827881,-4.906625270843506,7.691024303436279,7.919123649597168,-0.5414729118347168,-0.8534573316574097,-0.29848507046699524,0.9184102416038513,0.5380145907402039,5.129865646362305
454,543306,543307,-0.04873277619481087,0.05974603816866875,0.9925152659416199,-18.12852668762207,15.549391746520996,5.835707664489746,-0.5339732766151428,-0.8339582681655884,-0.3059847056865692,0.7723944187164307,0.41312360763549805,5.236695766448975
455,543316,543317,-0.4594062566757202,-0.007574747782200575,0.9570479989051819,-32.33293914794922,26.152557373046875,1.6164644956588745,-0.5429728627204895,-0.8429578542709351,-0.29998499155044556,0.5526166558265686,0.13769838213920593,5.3192925453186035
456,543326,543327,-0.9090873003005981,-0.14876499772071838,0.978726863861084,-37.74717330932617,31.159282684326172,-0.2939562499523163,-0.5594720244407654,-0.8414579033851624,-0.3014849126338959,0.34009480476379395,-0.04323996976017952,5.314603805541992
457,543336,543337,-0.7234138250350952,-0.33435001969337463,1.0100432634353638,-26.14023780822754,26.99358367919922,-1.6643834114074707,-0.5324733853340149,-0.8474575877189636,-0.27148643136024475,0.010480118915438652,-0.47348079085350037,5.316542148590088
458,543346,543347,-0.5484490394592285,-0.0775376632809639,1.037161946296692,-7.532715797424316,21.805084228515625,-4.470515251159668,-0.5519723892211914,-0.8459576964378357,-0.28498575091362,-0.32414308190345764,-0.6974285244941711,5.301558017730713
459,543356,543357,-0.2555879056453705,0.12479198724031448,1.0135587453842163,12.659457206726074,10.102212905883789,-6.501165866851807,-0.5504724383354187,-0.8264586329460144,-0.2834858298301697,-0.47964268922805786,-0.7491028308868408,5.245875358581543
460,543366,543367,-0.12911996245384216,-0.01906527951359749,1.0118463039398193,22.42473793029785,-1.979048252105713,-7.815713882446289,-0.5429728627204895,-0.8339582681655884,-0.2939853072166443,-0.536300539970398,-0.5239468216896057,5.163969993591309
461,543376,543377,-0.01351400651037693,-0.00026685287593863904,0.97339928150177,25.252168655395508,-11.593406677246094,-7.860783576965332,-0.5519723892211914,-0.8489575386047363,-0.2939853072166443,-0.3975943922996521,-0.23127099871635437,5.061748027801514
462,543386,543387,-0.11487525701522827,0.00925382785499096,1.012880563735962,22.211339950561523,-13.832151412963867,-7.948774814605713,-0.5609719157218933,-0.8489575386047363,-0.28798559308052063,-0.4187539517879486,-0.0566592700779438,5.009294033050537
463,543396,543397,-0.25957387685775757,-0.4407823979854584,0.9876744151115417,13.858577728271484,-14.843772888183594,-7.972664833068848,-0.554972231388092,-0.8489575386047363,-0.29098543524742126,-0.1800524741411209,0.2025565356016159,4.9103827476501465
464,543406,543407,-0.767017662525177,-0.690146803855896,0.980553925037384,4.179920673370361,-13.424972534179688,-6.594882488250732,-0.5519723892211914,-0.8399580121040344,-0.2969851493835449,-0.0193987675011158,0.2526957094669342,4.830420017242432
465,543416,543417,-1.5261125564575195,-1.0758779048919678,1.015467882156372,-2.743018627166748,-12.118701934814453,-5.636936187744141,-0.5534723401069641,-0.8414579033851624,-0.2864856719970703,0.23262599110603333,0.3071545362472534,4.7447662353515625
466,543426,543427,-0.8555775880813599,-0.5450255870819092,1.0886480808258057,-3.698805570602417,-7.368753910064697,-5.045095920562744,-0.5579720735549927,-0.8399580121040344,-0.28498575091362,0.2936907410621643,0.2038697451353073,4.704845428466797
467,543436,543437,-0.4128912389278412,-0.04383762925863266,1.064746379852295,-0.6113995313644409,-4.1750593185424805,-3.7875936031341553,-0.5564721822738647,-0.8324583768844604,-0.2924853563308716,0.424727201461792,0.17079389095306396,4.648765563964844
468,543446,543447,-0.14145134389400482,-0.639487087726593,1.0334306955337524,3.1457738876342773,-1.193968415260315,-2.681966543197632,-0.5519723892211914,-0.8309584259986877,-0.2939853072166443,0.41435813903808594,0.18366310000419617,4.615655899047852
469,543456,543457,-0.2449478656053543,-0.7307068705558777,1.0213919878005981,5.849982738494873,-0.2922092378139496,-0.9855764508247375,-0.5639718174934387,-0.8339582681655884,-0.29998499155044556,0.42369648814201355,0.246199831366539,4.588247776031494
470,543466,543467,-0.611348032951355,-0.18296080827713013,0.9832906723022461,8.284577369689941,-1.8355573415756226,0.472530335187912,-0.5579720735549927,-0.8339582681655884,-0.28798559308052063,0.42160168290138245,0.35068193078041077,4.573585510253906
471,543476,543477,-0.5035349726676941,-0.14253579080104828,0.9801311492919922,6.930444717407227,-4.451200008392334,0.7657046318054199,-0.5654717087745667,-0.8294585347175598,-0.28948551416397095,0.4502975344657898,0.41298478841781616,4.577797889709473
472,543486,543487,-0.8424387574195862,-0.16435950994491577,1.046440839767456,-3.8707592487335205,-3.240108013153076,-0.6145468354225159,-0.5519723892211914,-0.8399580121040344,-0.28498575091362,0.44234517216682434,0.4113994538784027,4.594223499298096
473,543496,543497,-0.8719049096107483,-0.3435314893722534,0.9844165444374084,-14.730365753173828,2.5927939414978027,-5.6927170753479,-0.562471866607666,-0.8414579033851624,-0.2954852283000946,0.4738920032978058,0.39622893929481506,4.588498115539551
474,543506,543507,-0.8455141186714172,-0.63641756772995,0.9978373050689697,-20.68126678466797,6.04890775680542,-10.132126808166504,-0.5489725470542908,-0.8279585838317871,-0.28498575091362,0.4450748562812805,0.15899305045604706,4.5472612380981445
