,timestamp_start,timestamp_end,acc.x,acc.y,acc.z,gyro.x,gyro.y,gyro.z,mag.x,mag.y,mag.z,stabilizer.pitch,stabilizer.roll,stabilizer.yaw
0,285841,285842,-0.10498129576444626,-0.05066109448671341,0.9945705533027649,-11.957686424255371,5.886453151702881,-10.311968803405762,-0.5684715509414673,-0.8234587907791138,-0.28048595786094666,-0.8033260107040405,0.8281314373016357,-1.0623408555984497
1,285851,285852,-0.5994687080383301,-0.10589060187339783,1.0272787809371948,-10.550369262695312,8.347393035888672,-11.041485786437988,-0.5819708704948425,-0.8249587416648865,-0.28198590874671936,-0.9384969472885132,0.6850535869598389,-1.1591342687606812
2,285861,285862,-0.35519352555274963,-0.0779370442032814,1.0154544115066528,-5.573626518249512,12.550931930541992,-9.747941970825195,-0.5639718174934387,-0.836958110332489,-0.29098543524742126,-0.724901020526886,0.6348667144775391,-1.2722723484039307
3,285871,285872,-0.15884509682655334,-0.04509270191192627,1.044959306716919,2.1615500450134277,16.734960556030273,-8.226407051086426,-0.577471137046814,-0.8384580612182617,-0.2864856719970703,-1.0092148780822754,0.5390003323554993,-1.3559376001358032
4,285881,285882,-0.11186886578798294,-0.028091948479413986,0.9893295764923096,6.401706218719482,18.7213077545166,-6.971294403076172,-0.5729713439941406,-0.8279585838317871,-0.29098543524742126,-1.1350139379501343,0.6880569458007812,-1.4655503034591675
5,285891,285892,-0.1600404977798462,-0.05122080445289612,1.0048145055770874,7.384609699249268,22.75565528869629,-5.7287068367004395,-0.5744712948799133,-0.844457745552063,-0.2834858298301697,-1.228952169418335,0.8167161345481873,-1.5461543798446655
6,285901,285902,-0.12659434974193573,-0.015931321308016777,0.9806725978851318,3.0812158584594727,23.57358741760254,-4.631538391113281,-0.5789710283279419,-0.8459576964378357,-0.27898603677749634,-1.3772623538970947,0.8803859353065491,-1.596567153930664
7,285911,285912,-0.2995665967464447,-0.00020606543694157153,1.0037140846252441,-2.3923747539520264,28.01212501525879,-4.41148042678833,-0.5804709792137146,-0.8384580612182617,-0.2864856719970703,-1.550981879234314,0.8694373369216919,-1.6306679248809814
8,285921,285922,-0.33035704493522644,-0.07024988532066345,1.0455633401870728,-8.350911140441895,35.42182540893555,-4.987577438354492,-0.5864706635475159,-0.8204589486122131,-0.2864856719970703,-1.8014076948165894,0.767602801322937,-1.6591432094573975
9,285931,285932,-0.255845844745636,-0.3427446186542511,1.021000623703003,-14.5123929977417,41.022518157958984,-6.744751453399658,-0.5879706144332886,-0.8249587416648865,-0.29098543524742126,-2.0968821048736572,0.648402750492096,-1.7033917903900146
10,285941,285942,-0.20983722805976868,-0.07872197777032852,1.0285367965698242,-14.114574432373047,40.14539337158203,-9.013592720031738,-0.5909704566001892,-0.8249587416648865,-0.28798559308052063,-2.464824676513672,0.5710455775260925,-1.7794435024261475
11,285951,285952,-0.2617243826389313,-0.1204700767993927,0.9861416816711426,-9.130230903625488,47.2331657409668,-9.813706398010254,-0.5864706635475159,-0.8144592642784119,-0.27148643136024475,-3.0944902896881104,0.4403456747531891,-1.8761478662490845
12,285961,285962,-0.7846419811248779,-0.45868363976478577,0.9657654762268066,2.62522292137146,38.63080978393555,-10.73099422454834,-0.5924703478813171,-0.8144592642784119,-0.26848655939102173,-3.3816800117492676,0.4781719148159027,-1.9728567600250244
13,285971,285972,-0.6148450970649719,-0.25892794132232666,0.9641818404197693,5.563753604888916,34.25355529785156,-11.650283813476562,-0.6089695692062378,-0.8249587416648865,-0.28198590874671936,-4.027563571929932,0.46287548542022705,-2.085127830505371
14,285981,285982,-0.2180951088666916,-0.47069963812828064,0.9800844192504883,3.9631171226501465,28.50766372680664,-12.227107048034668,-0.6134693026542664,-0.8114594221115112,-0.2834858298301697,-3.9063942432403564,0.5457758903503418,-2.1901934146881104
15,285991,285992,-0.27247369289398193,-0.13832780718803406,0.9926111102104187,-0.6019120216369629,23.325820922851562,-12.2744722366333,-0.6134693026542664,-0.8294585347175598,-0.26248687505722046,-4.405412197113037,0.5317851305007935,-2.318895101547241
16,286001,286002,-0.2712332010269165,-0.025006506592035294,0.9810593128204346,-3.670538902282715,14.789434432983398,-11.864054679870605,-0.6194689869880676,-0.8174591064453125,-0.2654867172241211,-4.646157741546631,0.4419901669025421,-2.4513168334960938
17,286011,286012,-0.26436081528663635,-0.33604729175567627,0.9765923619270325,-6.764786720275879,9.676589965820312,-11.620360374450684,-0.6209689378738403,-0.8129593133926392,-0.2759861946105957,-4.535634994506836,0.434287428855896,-2.555105447769165
18,286021,286022,-0.0899801179766655,-0.1139209046959877,0.933982253074646,-12.278225898742676,4.909420013427734,-9.970355033874512,-0.623968780040741,-0.8189590573310852,-0.2759861946105957,-4.692160129547119,0.24894143640995026,-2.690774440765381
19,286031,286032,-0.6914106011390686,-0.39949101209640503,0.9418349862098694,-19.050771713256836,1.4447098970413208,-8.549911499023438,-0.6179690957069397,-0.8279585838317871,-0.26998651027679443,-4.6058855056762695,0.23898878693580627,-2.7487077713012695
20,286041,286042,-0.7870315909385681,-0.9618460536003113,0.9172382354736328,-24.82225227355957,7.991364002227783,-8.510772705078125,-0.6134693026542664,-0.8114594221115112,-0.26848655939102173,-4.745553970336914,-0.09480522572994232,-2.870251417160034
21,286051,286052,-1.094807744026184,-0.6777823567390442,0.910276472568512,-28.54933738708496,4.756932735443115,-4.8710551261901855,-0.6089695692062378,-0.8039597868919373,-0.26998651027679443,-4.740859031677246,-0.36665579676628113,-2.9455153942108154
22,286061,286062,-1.4161851406097412,-0.5277913808822632,0.9419979453086853,-22.96955108642578,0.33917784690856934,-4.397112846374512,-0.6029698252677917,-0.8069596290588379,-0.2759861946105957,-4.783401012420654,-0.6739933490753174,-3.0023319721221924
23,286071,286072,-0.9795501232147217,-0.06989312171936035,0.9189496040344238,-13.928839683532715,-1.449912667274475,-3.7841169834136963,-0.6059696674346924,-0.8069596290588379,-0.2549872398376465,-4.832580089569092,-1.0134820938110352,-3.0930402278900146
24,286081,286082,-0.9780016541481018,-0.1522192656993866,0.9258589148521423,-0.8985356092453003,-4.120577812194824,-2.8554532527923584,-0.5939702987670898,-0.8129593133926392,-0.27898603677749634,-4.545327186584473,-0.9298043847084045,-3.0550668239593506
25,286091,286092,-1.2941714525222778,-0.35246726870536804,0.9834445714950562,12.336584091186523,-7.188796520233154,-3.9061954021453857,-0.6149692535400391,-0.8099594712257385,-0.26998651027679443,-4.551486492156982,-0.9212573766708374,-3.078190803527832
26,286101,286102,-0.7978875041007996,-0.2785561978816986,0.9778656959533691,17.744760513305664,-5.413845062255859,-3.676297664642334,-0.6104694604873657,-0.8204589486122131,-0.2924853563308716,-4.569530487060547,-0.7738622426986694,-3.096590757369995
27,286111,286112,-0.6434761881828308,-0.4412088692188263,0.9558885097503662,18.973352432250977,-2.4618494510650635,-1.9211944341659546,-0.622468888759613,-0.8114594221115112,-0.2654867172241211,-4.1369309425354,-0.481284499168396,-3.119943141937256
28,286121,286122,-0.748625636100769,-0.26145362854003906,0.9258633852005005,14.44411563873291,4.503413677215576,-0.9636079668998718,-0.616469144821167,-0.8234587907791138,-0.28048595786094666,-4.189789295196533,-0.25688570737838745,-3.1073319911956787
29,286131,286132,-0.4753599464893341,-0.2708570659160614,0.9294403195381165,6.246418476104736,12.327157020568848,-1.015366792678833,-0.6179690957069397,-0.8129593133926392,-0.2669866383075714,-4.076598644256592,-0.10926876962184906,-3.134167194366455
30,286141,286142,-0.8691281080245972,-0.354442834854126,0.9014896750450134,0.8909702301025391,15.572336196899414,-1.0628193616867065,-0.6194689869880676,-0.8114594221115112,-0.26248687505722046,-4.289474964141846,-0.14988136291503906,-3.1781601905822754
31,286151,286152,-0.5814627408981323,-0.7809270620346069,0.9660257697105408,-5.345784664154053,16.958171844482422,-0.5593878626823425,-0.616469144821167,-0.80545973777771,-0.2744862735271454,-4.227743148803711,-0.20484746992588043,-3.2456917762756348
32,286161,286162,-0.5911228656768799,-0.33987554907798767,0.8753151297569275,-10.009486198425293,19.45462417602539,0.26993227005004883,-0.6209689378738403,-0.8069596290588379,-0.2639867961406708,-4.600020885467529,-0.35433685779571533,-3.2660183906555176
33,286171,286172,-0.6766574382781982,-0.7795308232307434,0.9484097361564636,-12.659173011779785,22.708364486694336,0.5500050783157349,-0.6089695692062378,-0.797960102558136,-0.2759861946105957,-4.9004974365234375,-0.572942316532135,-3.303570508956909
34,286181,286182,-0.4196440577507019,-0.8611400127410889,0.8718886375427246,-16.182416915893555,22.95526123046875,1.6409374475479126,-0.6299684643745422,-0.8099594712257385,-0.26998651027679443,-4.876158714294434,-0.4878699779510498,-3.2283413410186768
35,286191,286192,-0.38607674837112427,-0.6327404379844666,0.857732892036438,-19.265411376953125,24.616422653198242,3.3560197353363037,-0.6269686222076416,-0.797960102558136,-0.2549872398376465,-5.197660446166992,-0.8101559281349182,-3.265962600708008
36,286201,286202,-0.3999234139919281,-0.4981801509857178,0.828489363193512,-21.33201789855957,11.781325340270996,6.3077545166015625,-0.6254687309265137,-0.80545973777771,-0.26248687505722046,-5.365673542022705,-0.892488956451416,-3.1720974445343018
37,286211,286212,-0.07181570678949356,-0.6544524431228638,0.8985270261764526,-22.496753692626953,-7.042234420776367,9.674615859985352,-0.6209689378738403,-0.8189590573310852,-0.2759861946105957,-5.407127857208252,-1.0707824230194092,-3.091809034347534
38,286221,286222,-0.5059760808944702,-0.24167406558990479,0.9172704815864563,-18.5338134765625,-16.60723114013672,10.894553184509277,-0.6179690957069397,-0.8129593133926392,-0.2669866383075714,-5.241322040557861,-1.404866337776184,-3.067051649093628
39,286231,286232,-0.5230902433395386,-0.6261191964149475,0.9739595651626587,-12.937520980834961,-23.318727493286133,11.02169418334961,-0.6059696674346924,-0.8219588994979858,-0.27898603677749634,-4.907127857208252,-1.4556899070739746,-2.917656421661377
40,286241,286242,-0.30125510692596436,-0.5002869367599487,0.9569329619407654,-10.0599946975708,-27.93592643737793,10.221526145935059,-0.6269686222076416,-0.8249587416648865,-0.27298635244369507,-4.723037242889404,-1.7049293518066406,-2.8541853427886963
41,286251,286252,-0.3438856899738312,-0.44373810291290283,0.9740312099456787,-2.683641195297241,-25.03920555114746,8.786025047302246,-0.616469144821167,-0.8204589486122131,-0.27148643136024475,-4.35531759262085,-1.5982164144515991,-2.6681158542633057
42,286261,286262,-0.8228232860565186,-0.8361831903457642,0.9814184904098511,5.255092144012451,-20.760576248168945,8.291373252868652,-0.6014699339866638,-0.8174591064453125,-0.2834858298301697,-4.1072187423706055,-1.5924992561340332,-2.5676145553588867
43,286271,286272,-0.5993438363075256,-0.3887808620929718,0.9847724437713623,12.187739372253418,-15.070026397705078,7.4771013259887695,-0.6134693026542664,-0.8234587907791138,-0.277486115694046,-3.9205360412597656,-1.4589945077896118,-2.4466075897216797
44,286281,286282,-0.29571643471717834,-0.18742907047271729,0.9844514727592468,16.172256469726562,-10.538349151611328,6.131735801696777,-0.6119694113731384,-0.8279585838317871,-0.28198590874671936,-3.8158950805664062,-1.3694018125534058,-2.382655143737793
45,286291,286292,-0.2183694839477539,-0.2639326751232147,0.9763106107711792,17.358434677124023,0.3941943645477295,5.183233261108398,-0.6089695692062378,-0.8309584259986877,-0.26998651027679443,-3.801593780517578,-1.1353492736816406,-2.278897762298584
46,286301,286302,-0.0557524636387825,-0.0335843600332737,0.9411149621009827,16.872591018676758,8.87628173828125,5.980769634246826,-0.6149692535400391,-0.8129593133926392,-0.27298635244369507,-3.7919411659240723,-1.0994881391525269,-2.2953598499298096
47,286311,286312,-0.3214728534221649,-0.10632563382387161,0.9393371939659119,11.838312149047852,13.764829635620117,6.79290246963501,-0.6134693026542664,-0.8174591064453125,-0.27148643136024475,-4.053207874298096,-0.8648290038108826,-2.1632046699523926
48,286321,286322,-0.4659721255302429,-0.45783936977386475,0.9250726103782654,4.0451765060424805,13.868766784667969,4.841859817504883,-0.6089695692062378,-0.8129593133926392,-0.27898603677749634,-4.034780502319336,-0.7885425686836243,-2.154418468475342
49,286331,286332,-0.14478862285614014,-0.388393759727478,0.9415281414985657,-7.131310939788818,11.819348335266113,3.6594014167785645,-0.616469144821167,-0.8234587907791138,-0.26848655939102173,-4.220989227294922,-0.7053942680358887,-2.075556993484497
50,286341,286342,-0.3612104058265686,-0.1635083258152008,0.9726163148880005,-15.097450256347656,0.3931196928024292,1.3394384384155273,-0.6194689869880676,-0.8144592642784119,-0.28048595786094666,-4.3315839767456055,-0.8735083341598511,-2.073329210281372
51,286351,286352,-0.3297765254974365,0.09167318046092987,0.9636322855949402,-19.545642852783203,-9.260098457336426,-0.5795015096664429,-0.6179690957069397,-0.8009599447250366,-0.27898603677749634,-4.173071384429932,-1.0843472480773926,-2.1138057708740234
52,286361,286362,-0.1538953334093094,0.04389406740665436,0.9441284537315369,-15.983586311340332,-22.57917594909668,-0.8626023530960083,-0.5984700918197632,-0.8174591064453125,-0.2744862735271454,-4.030299663543701,-1.2776119709014893,-2.1291682720184326
53,286371,286372,-0.15226344764232635,-0.13087798655033112,0.9459052681922913,-6.433574199676514,-32.148651123046875,-1.1604461669921875,-0.6014699339866638,-0.8234587907791138,-0.2744862735271454,-3.7213597297668457,-1.3243622779846191,-2.112154006958008
54,286381,286382,-0.280489057302475,-0.13966503739356995,0.9891379475593567,5.96319580078125,-33.3460693359375,0.2409437894821167,-0.5999699831008911,-0.8309584259986877,-0.29098543524742126,-3.3377506732940674,-1.4261119365692139,-2.1473042964935303
55,286391,286392,-0.1797611117362976,-0.06065477803349495,0.9889759421348572,16.207414627075195,-25.175981521606445,2.304607391357422,-0.6029698252677917,-0.8399580121040344,-0.2759861946105957,-2.965545892715454,-1.3235056400299072,-2.137665271759033
56,286401,286402,-0.45116305351257324,-0.05012434720993042,0.9629775881767273,21.959436416625977,-12.07475471496582,5.014944553375244,-0.6089695692062378,-0.8249587416648865,-0.2669866383075714,-2.754753351211548,-1.0607753992080688,-2.0761032104492188
57,286411,286412,-0.21086841821670532,-0.15064239501953125,0.9072737693786621,19.2423038482666,0.64952552318573,5.750408172607422,-0.6179690957069397,-0.8279585838317871,-0.27898603677749634,-2.8059539794921875,-0.8016259074211121,-1.9780877828598022
58,286421,286422,-0.08241966366767883,-0.10402709990739822,0.9705711007118225,15.851729393005371,10.797966957092285,5.320937633514404,-0.6134693026542664,-0.8324583768844604,-0.2954852283000946,-2.843212604522705,-0.7317478656768799,-1.954647421836853
59,286431,286432,-0.08010006695985794,-0.10736873745918274,0.944802463054657,12.077136039733887,15.173136711120605,5.438310623168945,-0.6134693026542664,-0.8114594221115112,-0.27148643136024475,-2.8745665550231934,-0.6326233744621277,-1.9335845708847046
60,286441,286442,-0.09790819883346558,-0.18956628441810608,0.9663780331611633,6.278334617614746,14.07168197631836,6.139828681945801,-0.5939702987670898,-0.8309584259986877,-0.27898603677749634,-3.024021625518799,-0.5157580971717834,-1.8750776052474976
61,286451,286452,-0.7769351005554199,-0.4988720417022705,0.9479784965515137,1.8342097997665405,9.88571834564209,4.8220109939575195,-0.6059696674346924,-0.8219588994979858,-0.28798559308052063,-3.290191888809204,-0.4306241273880005,-1.7832797765731812
62,286461,286462,-0.37163329124450684,-0.5760399699211121,0.9560799598693848,-2.588249921798706,5.615178108215332,4.350137233734131,-0.5939702987670898,-0.836958110332489,-0.28798559308052063,-3.2528271675109863,-0.5595210790634155,-1.7894598245620728
63,286471,286472,-0.3771645426750183,-0.30990317463874817,0.9821013808250427,-2.1416218280792236,2.6228866577148438,4.535450458526611,-0.6029698252677917,-0.8339582681655884,-0.29098543524742126,-3.306274652481079,-0.5245918035507202,-1.7343838214874268
64,286481,286482,-0.9689929485321045,-0.007915732450783253,1.0146673917770386,0.7849018573760986,-1.4864734411239624,5.331429958343506,-0.6014699339866638,-0.8354582190513611,-0.28948551416397095,-3.2277257442474365,-0.5445002913475037,-1.7067713737487793
65,286491,286492,-0.568095326423645,-0.31154441833496094,1.0069650411605835,4.078047275543213,-4.163898468017578,7.409305572509766,-0.6014699339866638,-0.8324583768844604,-0.28948551416397095,-3.220297336578369,-0.5817941427230835,-1.6573394536972046
66,286501,286502,-0.8644160032272339,-1.071663737297058,1.043299913406372,8.189515113830566,-5.267154216766357,9.376802444458008,-0.6089695692062378,-0.8279585838317871,-0.2759861946105957,-3.10868501663208,-0.49153223633766174,-1.5840349197387695
67,286511,286512,-1.2079726457595825,-1.0838483572006226,1.02022123336792,4.2047929763793945,-13.770792007446289,9.855966567993164,-0.5969701409339905,-0.8339582681655884,-0.27898603677749634,-3.100451707839966,-0.35471826791763306,-1.4702495336532593
68,286521,286522,-1.031016230583191,-0.9659233093261719,1.0239390134811401,-2.81642746925354,-21.63409996032715,8.828079223632812,-0.5999699831008911,-0.8309584259986877,-0.28498575091362,-2.882624387741089,-0.37040793895721436,-1.3902157545089722
69,286531,286532,-0.5108963847160339,-0.27396446466445923,1.0032994747161865,-6.889854907989502,-26.21214485168457,7.549961566925049,-0.5939702987670898,-0.8159592151641846,-0.27898603677749634,-2.5460145473480225,-0.4120345115661621,-1.3187637329101562
70,286541,286542,-0.034389860928058624,-0.3715817332267761,0.984199583530426,-2.342010974884033,-27.563674926757812,5.898989677429199,-0.5984700918197632,-0.8474575877189636,-0.28948551416397095,-2.282606840133667,-0.502578854560852,-1.2487666606903076
71,286551,286552,-0.15279367566108704,-0.11992212384939194,1.0062445402145386,3.314002513885498,-27.407255172729492,5.358071804046631,-0.5969701409339905,-0.8279585838317871,-0.28198590874671936,-1.9312375783920288,-0.5110156536102295,-1.1969176530838013
72,286561,286562,-0.2676692605018616,-0.051219649612903595,1.0410300493240356,5.5652594566345215,-20.176517486572266,4.34821891784668,-0.5894705057144165,-0.8234587907791138,-0.277486115694046,-1.6005477905273438,-0.43220216035842896,-1.146592378616333
73,286571,286572,-0.18455390632152557,-0.08530870079994202,1.042580246925354,7.999779224395752,-11.720919609069824,4.429646015167236,-0.5969701409339905,-0.836958110332489,-0.27298635244369507,-1.452466368675232,-0.3916613757610321,-1.0954121351242065
74,286581,286582,-0.3004002571105957,-0.15369005501270294,1.0070998668670654,3.254211664199829,-6.351649284362793,7.03418493270874,-0.5879706144332886,-0.8279585838317871,-0.27898603677749634,-1.3003265857696533,-0.32797670364379883,-1.044839859008789
75,286591,286592,-0.197575181722641,-0.24803322553634644,0.9781070351600647,-1.2940508127212524,3.7098569869995117,6.46029806137085,-0.5954701900482178,-0.8204589486122131,-0.28048595786094666,-1.2525997161865234,-0.3389962315559387,-0.9759597182273865
76,286601,286602,-0.14883193373680115,-0.04774387925863266,0.9722409844398499,-3.7500104904174805,6.8810834884643555,6.627493381500244,-0.5954701900482178,-0.8204589486122131,-0.28048595786094666,-1.3447258472442627,-0.4180338382720947,-0.9049742817878723
77,286611,286612,-0.6008593440055847,0.06506194919347763,1.0224430561065674,-5.482490539550781,2.7010586261749268,5.137024879455566,-0.5954701900482178,-0.8204589486122131,-0.28048595786094666,-1.4770622253417969,-0.5245870351791382,-0.8365043997764587
78,286621,286622,-0.3144757151603699,-0.01959957554936409,0.9583806395530701,-5.357967853546143,1.3189516067504883,5.6344451904296875,-0.5909704566001892,-0.8099594712257385,-0.28198590874671936,-1.541680097579956,-0.3692784309387207,-0.7956523299217224
79,286631,286632,-0.3056221008300781,0.012181580998003483,1.0207144021987915,-5.047986030578613,2.7620162963867188,5.555103778839111,-0.5984700918197632,-0.8294585347175598,-0.27148643136024475,-1.5769996643066406,-0.5839224457740784,-0.7235449552536011
80,286641,286642,-0.12122935801744461,-0.0016947680851444602,1.0257158279418945,-2.197061777114868,3.515313148498535,4.794118404388428,-0.5909704566001892,-0.8399580121040344,-0.27298635244369507,-1.6280113458633423,-0.6370710134506226,-0.666843593120575
81,286651,286652,-0.07760663330554962,0.09897421300411224,1.0064793825149536,5.215010643005371,-2.1531708240509033,4.3149824142456055,-0.5939702987670898,-0.8249587416648865,-0.28498575091362,-1.6797064542770386,-0.6211156249046326,-0.6221217513084412
82,286661,286662,-0.08843955397605896,0.14713814854621887,1.0441133975982666,12.206438064575195,-3.2285268306732178,3.4185101985931396,-0.5834708213806152,-0.8324583768844604,-0.2834858298301697,-1.512424349784851,-0.35292184352874756,-0.6192812919616699
83,286671,286672,-0.15071813762187958,-0.020959097892045975,1.0017000436782837,20.33184814453125,-2.4870693683624268,-0.08941712230443954,-0.5969701409339905,-0.836958110332489,-0.28198590874671936,-1.5366380214691162,-0.3235156536102295,-0.5730879306793213
84,286681,286682,-0.40182235836982727,-0.08412248641252518,0.952642560005188,20.392765045166016,-9.346980094909668,-1.0661481618881226,-0.5984700918197632,-0.8324583768844604,-0.2864856719970703,-1.4710183143615723,-0.24132618308067322,-0.5572699904441833
85,286691,286692,-0.14176318049430847,0.0048775700852274895,1.0354883670806885,19.18395233154297,-11.645845413208008,-2.7105493545532227,-0.5759711861610413,-0.836958110332489,-0.2939853072166443,-1.3137822151184082,-0.0877658873796463,-0.5658037066459656
86,286701,286702,-0.2247714251279831,-0.023884009569883347,0.9998053312301636,14.806901931762695,-13.969075202941895,-3.834256649017334,-0.5849707126617432,-0.8399580121040344,-0.28198590874671936,-1.047206163406372,0.1096702367067337,-0.6059190630912781
87,286711,286712,-0.4986436665058136,-0.007969699800014496,1.024767279624939,12.42081356048584,-15.748339653015137,-3.7860255241394043,-0.5894705057144165,-0.844457745552063,-0.28048595786094666,-0.8871631026268005,0.24361605942249298,-0.6452633738517761
88,286721,286722,-0.3367041349411011,-0.048795413225889206,1.003829002380371,8.023786544799805,-13.18391227722168,-4.353271961212158,-0.5789710283279419,-0.8399580121040344,-0.2759861946105957,-0.7081665396690369,0.33759960532188416,-0.6785417199134827
89,286731,286732,-0.2615490257740021,-0.01931593008339405,1.0277620553970337,5.0468339920043945,-3.989175796508789,-4.984779357910156,-0.5804709792137146,-0.844457745552063,-0.2864856719970703,-0.6633296012878418,0.3640105426311493,-0.7106805443763733
90,286741,286742,-0.35322147607803345,-0.26116305589675903,1.059519648551941,3.5956130027770996,7.528583526611328,-6.514307022094727,-0.5819708704948425,-0.8399580121040344,-0.29098543524742126,-0.7044155597686768,0.3449017405509949,-0.7482729554176331
91,286751,286752,-0.09490762650966644,-0.10795260220766068,1.0386974811553955,3.608821392059326,20.320955276489258,-8.999231338500977,-0.5714713931083679,-0.8324583768844604,-0.2864856719970703,-0.8541880249977112,0.4536105990409851,-0.8344231843948364
92,286761,286762,-0.16685965657234192,-0.09909259527921677,1.026896357536316,0.7114993333816528,27.71596908569336,-10.728375434875488,-0.5864706635475159,-0.8384580612182617,-0.2834858298301697,-0.9750189781188965,0.40960827469825745,-0.9057428240776062
93,286771,286772,-0.31460994482040405,-0.5598975419998169,1.020154595375061,2.051626205444336,29.422618865966797,-13.485785484313965,-0.5864706635475159,-0.8324583768844604,-0.2654867172241211,-1.28292715549469,0.4681386947631836,-1.0283334255218506
94,286781,286782,-0.20694832503795624,-0.31621241569519043,1.0667644739151,9.530978202819824,23.681411743164062,-16.761554718017578,-0.5954701900482178,-0.8144592642784119,-0.28948551416397095,-1.5973668098449707,0.5531316995620728,-1.1807259321212769
95,286791,286792,-0.0952368900179863,-0.1067221537232399,0.9888482689857483,14.846631050109863,10.104026794433594,-19.778854370117188,-0.5939702987670898,-0.836958110332489,-0.2759861946105957,-1.7314739227294922,0.7560732960700989,-1.372372031211853
96,286801,286802,-0.08049482852220535,-0.18956150114536285,0.9838571548461914,17.487316131591797,-2.9097084999084473,-20.849382400512695,-0.5939702987670898,-0.8279585838317871,-0.28198590874671936,-1.7195907831192017,0.8813238739967346,-1.5627983808517456
97,286811,286812,-0.6155217885971069,-0.3193073868751526,1.062936544418335,19.1024112701416,-11.876422882080078,-19.454694747924805,-0.5909704566001892,-0.8309584259986877,-0.2759861946105957,-1.5728517770767212,0.9215455055236816,-1.7324316501617432
98,286821,286822,-0.3386395275592804,-0.24003605544567108,1.0411696434020996,15.261870384216309,-13.751008987426758,-17.50441551208496,-0.5939702987670898,-0.8399580121040344,-0.28498575091362,-1.450514793395996,1.2583874464035034,-1.9617352485656738
99,286831,286832,-0.21043112874031067,-0.33803898096084595,0.948165237903595,9.234978675842285,-6.426774978637695,-15.70740795135498,-0.6194689869880676,-0.8324583768844604,-0.2834858298301697,-1.3243926763534546,1.3772605657577515,-2.1315314769744873
100,286841,286842,-0.11378618329763412,-0.08545023947954178,1.002368688583374,-0.3104577660560608,-2.44399356842041,-10.091947555541992,-0.5954701900482178,-0.8384580612182617,-0.2744862735271454,-1.2987301349639893,1.385830283164978,-2.2671098709106445
101,286851,286852,-1.0431791543960571,0.07137612253427505,1.0639170408248901,-6.999575138092041,-2.603057622909546,-6.8487372398376465,-0.6074696183204651,-0.8264586329460144,-0.28948551416397095,-1.275659203529358,1.3933157920837402,-2.367734432220459
102,286861,286862,-0.7292747497558594,0.28115352988243103,1.0849820375442505,-7.659209251403809,-14.887014389038086,-1.730597972869873,-0.6014699339866638,-0.8264586329460144,-0.2744862735271454,-1.286005973815918,1.3087053298950195,-2.4294753074645996
103,286871,286872,-0.17946189641952515,-0.08775484561920166,1.1256030797958374,-11.529562950134277,-14.834728240966797,2.8401401042938232,-0.5909704566001892,-0.8159592151641846,-0.28498575091362,-1.0609041452407837,1.1932111978530884,-2.4213037490844727
104,286881,286882,-0.791303813457489,-0.37782469391822815,1.0312660932540894,-11.451343536376953,-11.765779495239258,6.077675819396973,-0.5984700918197632,-0.8294585347175598,-0.277486115694046,-0.8296957015991211,1.030659794807434,-2.3635807037353516
105,286891,286892,-0.8416600227355957,-0.5542570352554321,1.0154540538787842,-12.896965026855469,-15.768092155456543,10.24195384979248,-0.5864706635475159,-0.8144592642784119,-0.27148643136024475,-0.6919861435890198,0.939690113067627,-2.302924394607544
106,286901,286902,-0.538624107837677,-0.7393404245376587,0.9819757342338562,-16.37436294555664,-9.608123779296875,12.799893379211426,-0.5984700918197632,-0.8324583768844604,-0.27148643136024475,-0.5261147022247314,0.8076430559158325,-2.1950018405914307
107,286911,286912,-0.3257107734680176,-0.23797161877155304,1.0107518434524536,-14.77203369140625,-8.075087547302246,12.522552490234375,-0.5954701900482178,-0.8234587907791138,-0.2744862735271454,-0.45381930470466614,0.7018687129020691,-2.085242509841919
108,286921,286922,-0.3483484387397766,0.0012612470891326666,0.9921525120735168,-15.196446418762207,-12.624316215515137,12.64813232421875,-0.6014699339866638,-0.8174591064453125,-0.26848655939102173,-0.3923616409301758,0.481975257396698,-1.9418004751205444
109,286931,286932,-0.5282878875732422,-0.1119605302810669,0.9988778829574585,-18.102863311767578,-13.379098892211914,13.01545238494873,-0.6059696674346924,-0.8159592151641846,-0.26998651027679443,-0.18916603922843933,0.3113214075565338,-1.7995487451553345
110,286941,286942,-0.2695833444595337,-0.3158559799194336,1.004158854484558,-17.344411849975586,-6.2213287353515625,10.954611778259277,-0.5924703478813171,-0.8114594221115112,-0.2744862735271454,-0.1384698748588562,0.17511668801307678,-1.7007554769515991
111,286951,286952,-0.11255870759487152,-0.2139846682548523,0.9341284036636353,-14.42737102508545,0.7390565276145935,9.475052833557129,-0.5999699831008911,-0.8069596290588379,-0.26998651027679443,-0.0626571774482727,0.05576569586992264,-1.6049675941467285
112,286961,286962,-0.032636214047670364,0.2475934475660324,0.9824655055999756,-8.296854972839355,6.809902191162109,8.881241798400879,-0.5969701409339905,-0.8039597868919373,-0.2759861946105957,-0.17711223661899567,-0.14915834367275238,-1.5041660070419312
113,286971,286972,-0.10806719958782196,0.16442972421646118,0.964800238609314,-3.4166154861450195,13.67663288116455,7.250617027282715,-0.5999699831008911,-0.8069596290588379,-0.2669866383075714,-0.3130530118942261,-0.17985595762729645,-1.4404569864273071
114,286981,286982,-0.06291542947292328,0.051039256155490875,0.9678342938423157,6.433831214904785,17.439897537231445,7.26702356338501,-0.616469144821167,-0.8144592642784119,-0.26848655939102173,-0.5417675971984863,-0.13055531680583954,-1.4012224674224854
115,286991,286992,-0.2040664702653885,-0.0020920238457620144,0.9154279828071594,14.17570972442627,24.154460906982422,6.152719497680664,-0.5969701409339905,-0.8159592151641846,-0.2669866383075714,-0.6805429458618164,0.0023869432043284178,-1.3413053750991821
116,287001,287002,-0.23973597586154938,-0.047299645841121674,0.8988039493560791,13.712220191955566,24.46450424194336,8.208598136901855,-0.6074696183204651,-0.8204589486122131,-0.27148643136024475,-0.7845339179039001,0.23454169929027557,-1.2836074829101562
117,287011,287012,-0.2548656165599823,-0.14926977455615997,0.9748746156692505,9.173234939575195,22.34859848022461,8.20142936706543,-0.5864706635475159,-0.8234587907791138,-0.2594870328903198,-1.1805191040039062,0.3754163086414337,-1.2185543775558472
118,287021,287022,-0.33811551332473755,-0.08005567640066147,0.9929671287536621,3.4550132751464844,20.24759292602539,4.92604923248291,-0.6044697761535645,-0.8234587907791138,-0.277486115694046,-1.5216493606567383,0.5058774948120117,-1.1619130373001099
119,287031,287032,-0.0635623186826706,0.038705047219991684,0.938511073589325,-3.0476715564727783,7.043229103088379,0.1433049440383911,-0.5909704566001892,-0.8279585838317871,-0.27898603677749634,-1.6390380859375,0.3974193334579468,-1.0764645338058472
120,287041,287042,0.05936785042285919,0.05599408969283104,0.959185004234314,-10.642304420471191,-5.834031105041504,-4.122769832611084,-0.6044697761535645,-0.8204589486122131,-0.2834858298301697,-1.5488444566726685,0.18605248630046844,-1.0308905839920044
121,287051,287052,-0.0639246478676796,-0.1391734480857849,0.967271625995636,-10.859042167663574,-15.129639625549316,-9.366352081298828,-0.5879706144332886,-0.836958110332489,-0.27898603677749634,-1.480836033821106,0.09266787022352219,-1.0899338722229004
122,287061,287062,-0.045556508004665375,0.14357487857341766,0.9871640205383301,-4.8450493812561035,-24.454004287719727,-12.545263290405273,-0.5939702987670898,-0.8249587416648865,-0.28198590874671936,-1.2604907751083374,-0.056474823504686356,-1.1737990379333496
123,287071,287072,-0.04146367684006691,-0.2991873621940613,1.0035333633422852,1.1541905403137207,-27.52521514892578,-13.731630325317383,-0.5894705057144165,-0.8204589486122131,-0.28048595786094666,-0.8989248871803284,-0.09689696878194809,-1.2948042154312134
124,287081,287082,-0.04778130352497101,-0.29796338081359863,0.9752383828163147,6.624644756317139,-22.152246475219727,-14.577163696289062,-0.577471137046814,-0.8324583768844604,-0.28048595786094666,-0.5142551064491272,-0.047477323561906815,-1.4350202083587646
125,287091,287092,-0.009599968791007996,-0.028742704540491104,0.9594625234603882,12.038420677185059,-22.81566619873047,-13.48705005645752,-0.5819708704948425,-0.8219588994979858,-0.28798559308052063,-0.5035115480422974,0.09731978178024292,-1.608273983001709
126,287101,287102,-0.018118929117918015,-0.1918455958366394,0.9640445113182068,16.99669075012207,-13.769290924072266,-12.810588836669922,-0.5834708213806152,-0.8354582190513611,-0.277486115694046,-0.3490974009037018,0.17245438694953918,-1.7347362041473389
127,287111,287112,0.04029823839664459,-0.40325334668159485,0.9553744196891785,20.804763793945312,-3.1589622497558594,-11.700474739074707,-0.5729713439941406,-0.8489575386047363,-0.27898603677749634,-0.20664942264556885,0.47815194725990295,-1.888471245765686
128,287121,287122,-0.11441868543624878,-0.1129574179649353,0.96146160364151,21.458232879638672,1.6706663370132446,-10.71380615234375,-0.5804709792137146,-0.8414579033851624,-0.2744862735271454,-0.14948008954524994,0.7585849761962891,-2.014293909072876
129,287131,287132,-0.37044212222099304,-0.08341959118843079,0.997327446937561,17.613056182861328,2.613593101501465,-10.045219421386719,-0.5909704566001892,-0.8489575386047363,-0.28498575091362,-0.15637125074863434,0.9511367678642273,-2.115269184112549
130,287141,287142,-0.2714960277080536,0.0212137121707201,0.9657752513885498,3.680145025253296,-0.12783092260360718,-8.857880592346191,-0.5714713931083679,-0.844457745552063,-0.29848507046699524,-0.23885047435760498,0.9200212955474854,-2.175868511199951
131,287151,287152,-0.3833341896533966,0.07577626407146454,0.9509950280189514,-7.707963466644287,-4.958122730255127,-11.230789184570312,-0.5849707126617432,-0.8459576964378357,-0.28198590874671936,-0.1986052542924881,0.8875898122787476,-2.2615854740142822
132,287161,287162,-0.11368428170681,0.010230421088635921,0.9967527389526367,-9.893640518188477,-16.177101135253906,-10.851689338684082,-0.5819708704948425,-0.8429578542709351,-0.28198590874671936,-0.074374720454216,0.7713271379470825,-2.363379716873169
133,287171,287172,-0.158273845911026,-0.05065121874213219,1.054425597190857,-10.325263977050781,-22.439022064208984,-8.460352897644043,-0.56997150182724,-0.8459576964378357,-0.28798559308052063,0.21119572222232819,0.6268889904022217,-2.449263572692871
134,287181,287182,-0.4904804825782776,-0.1137329712510109,0.9810662865638733,-6.7777509689331055,-22.189210891723633,-6.8328537940979,-0.5744712948799133,-0.844457745552063,-0.29848507046699524,0.3699140250682831,0.6207204461097717,-2.5663161277770996
135,287191,287192,-0.28573471307754517,0.0683707520365715,0.9839223027229309,-1.9412297010421753,-17.539779663085938,-6.176547527313232,-0.5834708213806152,-0.844457745552063,-0.2864856719970703,0.5268977284431458,0.5331684350967407,-2.634354829788208
136,287201,287202,-0.11772157996892929,0.04029350355267525,0.9407280087471008,-0.8835660815238953,-10.034891128540039,-2.968388319015503,-0.5789710283279419,-0.8429578542709351,-0.2939853072166443,0.5419068932533264,0.6614733934402466,-2.74652361869812
137,287211,287212,0.00023670065274927765,-0.06162072345614433,0.9360116720199585,3.322115421295166,-4.022363185882568,-2.0583536624908447,-0.5789710283279419,-0.8399580121040344,-0.28198590874671936,0.7315645217895508,0.6608249545097351,-2.7676165103912354
138,287221,287222,-0.09393665194511414,-0.09238912165164948,0.9358405470848083,10.434013366699219,-12.727187156677246,2.5078847408294678,-0.5759711861610413,-0.8429578542709351,-0.27898603677749634,0.637550950050354,0.8122345805168152,-2.820227861404419
139,287231,287232,-0.12497355043888092,-0.031269706785678864,0.945905864238739,13.074263572692871,-16.231643676757812,8.518309593200684,-0.56997150182724,-0.8489575386047363,-0.29098543524742126,0.896122932434082,0.9141375422477722,-2.7665131092071533
140,287241,287242,-0.1609915941953659,-0.1411908119916916,0.9556967616081238,9.816266059875488,-9.734930992126465,10.831308364868164,-0.5684715509414673,-0.8714563846588135,-0.30748462677001953,1.0973109006881714,1.1111901998519897,-2.6946353912353516
141,287251,287252,-0.29726582765579224,-0.2040221095085144,0.9954732060432434,1.1903849840164185,-5.974123477935791,14.48047924041748,-0.5714713931083679,-0.8654567003250122,-0.3044847846031189,1.2572704553604126,1.0768591165542603,-2.530446767807007
142,287261,287262,-0.27576932311058044,-0.30913737416267395,0.9726471900939941,-15.40294075012207,5.959626197814941,16.2910213470459,-0.5639718174934387,-0.8699564933776855,-0.3029848337173462,1.3163119554519653,1.0197081565856934,-2.368144989013672
143,287271,287272,-0.20450428128242493,-0.11109834164381027,0.9998473525047302,-22.67681312561035,10.01082706451416,17.09050941467285,-0.562471866607666,-0.8624568581581116,-0.3014849126338959,1.211292028427124,0.7951093316078186,-2.18927001953125
144,287281,287282,-0.11394523084163666,-0.025711238384246826,1.0482041835784912,-25.033058166503906,13.804728507995605,15.640917778015137,-0.5684715509414673,-0.8654567003250122,-0.3014849126338959,1.0494515895843506,0.4806160032749176,-1.9954142570495605
145,287291,287292,-0.23180951178073883,-0.2987019717693329,1.0918349027633667,-28.272533416748047,20.546131134033203,15.950769424438477,-0.5579720735549927,-0.8759561777114868,-0.2939853072166443,0.830983579158783,0.13127152621746063,-1.80613374710083
146,287301,287302,-0.3753145635128021,0.004673424642533064,1.0964750051498413,-30.154394149780273,28.39883804321289,11.854900360107422,-0.5594720244407654,-0.8654567003250122,-0.28948551416397095,0.49465614557266235,-0.04357956349849701,-1.7146937847137451
147,287311,287312,-0.17010308802127838,0.07613978534936905,1.1341131925582886,-26.078081130981445,32.84682083129883,7.704903602600098,-0.5579720735549927,-0.8699564933776855,-0.29998499155044556,0.1140979453921318,-0.46288013458251953,-1.570491075515747
148,287321,287322,-0.21391661465168,0.011305449530482292,1.1432673931121826,-17.481698989868164,37.267513275146484,4.856259822845459,-0.5519723892211914,-0.8549572229385376,-0.29998499155044556,-0.25208595395088196,-0.5860581398010254,-1.5568722486495972
149,287331,287332,-0.48988229036331177,-0.06865522265434265,1.1110494136810303,-6.757853031158447,35.74209213256836,3.546449899673462,-0.5804709792137146,-0.8564571738243103,-0.2864856719970703,-0.6033321619033813,-0.6437623500823975,-1.551916241645813
150,287341,287342,-0.6186797618865967,-0.1747056394815445,1.1205995082855225,-3.7231428623199463,31.794200897216797,5.745569705963135,-0.5744712948799133,-0.8564571738243103,-0.28948551416397095,-0.9408717155456543,-0.7645280361175537,-1.499052882194519
151,287351,287352,-0.2732030749320984,0.04868197441101074,1.090374231338501,1.6287057399749756,15.869674682617188,5.684887409210205,-0.5714713931083679,-0.8414579033851624,-0.2834858298301697,-1.2487026453018188,-0.612384557723999,-1.511267066001892
152,287361,287362,-0.3808251619338989,-0.19507549703121185,1.0537976026535034,1.8285053968429565,1.7948687076568604,3.6677520275115967,-0.5834708213806152,-0.8534573316574097,-0.2954852283000946,-1.3757017850875854,-0.613498330116272,-1.453021764755249
153,287371,287372,-0.4517909288406372,-0.2780936658382416,1.0911498069763184,5.325429916381836,-31.651350021362305,6.192296981811523,-0.5729713439941406,-0.8429578542709351,-0.29998499155044556,-1.2763645648956299,-0.6550156474113464,-1.385183572769165
154,287381,287382,-0.14517320692539215,-0.17121487855911255,1.0703455209732056,7.032230377197266,-46.391014099121094,4.732703685760498,-0.5849707126617432,-0.8669566512107849,-0.2939853072166443,-0.7098332643508911,-0.5699744820594788,-1.3329848051071167
155,287391,287392,-0.04913295805454254,-0.13447856903076172,1.1063545942306519,8.106122970581055,-58.4946174621582,6.086912631988525,-0.5669716596603394,-0.8549572229385376,-0.2939853072166443,-0.2749038338661194,-0.463895320892334,-1.2867910861968994
156,287401,287402,-0.14959439635276794,0.031066760420799255,1.1350057125091553,8.30630874633789,-42.705223083496094,4.002716064453125,-0.5684715509414673,-0.8594570159912109,-0.30748462677001953,0.44534918665885925,-0.4883614480495453,-1.2142117023468018
157,287411,287412,-0.10837908089160919,0.034254852682352066,1.0640947818756104,4.4456586837768555,-35.970787048339844,2.23321270942688,-0.5654717087745667,-0.844457745552063,-0.2954852283000946,0.8939968347549438,-0.3694843053817749,-1.181247591972351
158,287421,287422,-0.12257738411426544,-0.14867275953292847,1.060226321220398,-2.3960466384887695,-29.461872100830078,2.8137640953063965,-0.5654717087745667,-0.844457745552063,-0.2954852283000946,0.9938797950744629,-0.31953108310699463,-1.142919659614563
159,287431,287432,-0.16436626017093658,0.01383269764482975,1.0765713453292847,-1.4880527257919312,-8.413238525390625,1.8154226541519165,-0.5654717087745667,-0.844457745552063,-0.2954852283000946,1.381866216659546,-0.2931109070777893,-1.1381057500839233
160,287441,287442,-0.07147658616304398,0.14927658438682556,1.0317561626434326,-4.150333881378174,3.000910758972168,2.0927579402923584,-0.577471137046814,-0.8534573316574097,-0.28948551416397095,1.3916431665420532,-0.4148752689361572,-1.0887714624404907
161,287451,287452,-0.210036501288414,-0.239143505692482,1.0496068000793457,-9.16760540008545,6.967390060424805,0.6175325512886047,-0.5579720735549927,-0.8399580121040344,-0.2939853072166443,1.3680843114852905,-0.49821707606315613,-1.0603718757629395
162,287461,287462,-0.09021683037281036,-0.03772386163473129,1.0290303230285645,-3.0531444549560547,6.457580089569092,-0.2751859724521637,-0.5639718174934387,-0.8399580121040344,-0.28198590874671936,1.267451524734497,-0.6247864961624146,-1.0376217365264893
163,287471,287472,-0.07972674816846848,0.09497315436601639,1.0591025352478027,-3.5864861011505127,13.034582138061523,-1.2475416660308838,-0.5534723401069641,-0.8324583768844604,-0.2864856719970703,1.1545345783233643,-0.6812992691993713,-1.0372058153152466
164,287481,287482,-0.23868988454341888,-0.04611453413963318,1.0982674360275269,-1.1300686597824097,23.13518714904785,-2.150407552719116,-0.5744712948799133,-0.8384580612182617,-0.28048595786094666,1.0152308940887451,-0.7280897498130798,-1.0455970764160156
165,287491,287492,-0.15515534579753876,-0.04065088927745819,1.0256743431091309,11.768046379089355,24.036846160888672,-2.7068827152252197,-0.5714713931083679,-0.8324583768844604,-0.2954852283000946,0.7984760403633118,-0.7051848769187927,-1.068213939666748
166,287501,287502,-0.01931946352124214,0.028183525428175926,1.0142168998718262,15.661383628845215,30.677587509155273,-2.2396013736724854,-0.5744712948799133,-0.844457745552063,-0.2834858298301697,0.523924708366394,-0.5011454820632935,-1.121782898902893
167,287511,287512,-0.6968071460723877,0.051369696855545044,1.0268617868423462,16.750789642333984,30.795305252075195,-5.887977600097656,-0.5804709792137146,-0.8264586329460144,-0.28048595786094666,0.03411156311631203,-0.3899150490760803,-1.1192926168441772
168,287521,287522,-0.4729151129722595,0.10857628285884857,1.0897995233535767,9.989623069763184,15.584803581237793,-5.635225772857666,-0.5849707126617432,-0.8279585838317871,-0.2669866383075714,0.023851027712225914,-0.1990479826927185,-1.2150275707244873
169,287531,287532,-0.48745328187942505,0.0763031542301178,1.086490511894226,5.5696210861206055,11.410776138305664,-8.549599647521973,-0.5804709792137146,-0.8474575877189636,-0.2834858298301697,-0.07726124674081802,-0.17646175622940063,-1.2570130825042725
170,287541,287542,-0.03483281284570694,0.06854303926229477,0.9572215676307678,10.078339576721191,-7.899082660675049,-9.052918434143066,-0.5849707126617432,-0.8339582681655884,-0.28498575091362,-0.0602867566049099,-0.1974485069513321,-1.3162561655044556
171,287551,287552,-0.018888868391513824,0.05560992658138275,1.0024802684783936,14.7182035446167,-17.783178329467773,-9.095519065856934,-0.5894705057144165,-0.844457745552063,-0.28048595786094666,0.06612421572208405,-0.08152186870574951,-1.4107598066329956
172,287561,287562,-0.10459964722394943,-0.09260432422161102,0.9582533240318298,20.681034088134766,-26.210872650146484,-9.068432807922363,-0.5744712948799133,-0.8234587907791138,-0.2834858298301697,0.28319284319877625,0.04736298695206642,-1.494753360748291
173,287571,287572,-0.1519971787929535,-0.17618562281131744,0.9798265099525452,24.91819953918457,-34.17072296142578,-3.987431049346924,-0.5789710283279419,-0.8399580121040344,-0.28798559308052063,0.6138449311256409,0.4073917865753174,-1.6238274574279785
174,287581,287582,-0.2080889642238617,-0.2917097210884094,1.0284028053283691,23.505107879638672,-20.37015724182129,-4.018790245056152,-0.577471137046814,-0.8474575877189636,-0.2834858298301697,1.015735149383545,0.6041162610054016,-1.6712642908096313
175,287591,287592,-0.1363592892885208,-0.0882551297545433,0.999579906463623,22.11883544921875,-9.380247116088867,-1.5691232681274414,-0.5714713931083679,-0.8324583768844604,-0.2834858298301697,1.1597906351089478,0.6485517024993896,-1.6583331823349
176,287601,287602,-0.08242101967334747,0.13753581047058105,1.0784664154052734,17.265140533447266,10.254859924316406,0.4196487069129944,-0.5834708213806152,-0.8354582190513611,-0.28048595786094666,1.2412604093551636,0.951958954334259,-1.7031056880950928
177,287611,287612,-0.12043590098619461,0.046393103897571564,0.9720551371574402,5.577908515930176,27.17940330505371,0.30613550543785095,-0.5879706144332886,-0.8399580121040344,-0.27898603677749634,1.0965172052383423,1.022060513496399,-1.6751993894577026
178,287621,287622,-0.03545979782938957,-0.03533504530787468,0.8840785622596741,-5.887984752655029,39.000980377197266,-1.610255241394043,-0.5819708704948425,-0.8159592151641846,-0.28198590874671936,0.7098638415336609,1.1254950761795044,-1.684633731842041
179,287631,287632,-0.06449151039123535,0.057777561247348785,0.9538320302963257,-15.937797546386719,41.94862747192383,-1.295673131942749,-0.5909704566001892,-0.8339582681655884,-0.28798559308052063,0.2238159477710724,0.8337913751602173,-1.621742844581604
180,287641,287642,-0.18993046879768372,0.0548224076628685,0.9184929728507996,-20.846391677856445,37.94965362548828,1.1857280731201172,-0.5879706144332886,-0.8309584259986877,-0.28798559308052063,-0.16404974460601807,0.7391176819801331,-1.637207269668579
181,287651,287652,-0.27147552371025085,-0.14046235382556915,0.9407316446304321,-20.54192352294922,36.07978820800781,0.0013925899984315038,-0.5879706144332886,-0.8249587416648865,-0.26998651027679443,-0.5040779113769531,0.43964776396751404,-1.5958722829818726
182,287661,287662,-0.08279132843017578,-0.14487384259700775,0.8652498722076416,-12.723408699035645,20.695087432861328,0.600504994392395,-0.5849707126617432,-0.8249587416648865,-0.28198590874671936,-0.7827292084693909,0.23816494643688202,-1.5804798603057861
183,287671,287672,-0.27452537417411804,-0.28552135825157166,0.9180713891983032,-6.597142219543457,3.940363883972168,2.203719139099121,-0.5894705057144165,-0.8294585347175598,-0.277486115694046,-0.9198325276374817,0.21810747683048248,-1.588506817817688
184,287681,287682,-0.2969939410686493,-0.41245129704475403,0.9964844584465027,3.448110342025757,-10.437284469604492,-0.99107825756073,-0.5984700918197632,-0.8294585347175598,-0.28048595786094666,-1.0030980110168457,0.16002820432186127,-1.5700268745422363
185,287691,287692,-0.15496361255645752,-0.49448683857917786,0.9903309345245361,8.273222923278809,-18.401165008544922,-0.9795740246772766,-0.5909704566001892,-0.8279585838317871,-0.28198590874671936,-0.7774046063423157,0.24350836873054504,-1.5793414115905762
186,287701,287702,-0.13748186826705933,-0.2724904417991638,1.0531423091888428,13.6118803024292,-14.491189002990723,-0.7342464923858643,-0.5864706635475159,-0.8264586329460144,-0.2744862735271454,-0.5152914524078369,0.41135677695274353,-1.6013857126235962
187,287711,287712,-0.0837177261710167,0.06430597603321075,0.995352029800415,21.29867935180664,-6.162383079528809,0.474404901266098,-0.577471137046814,-0.8264586329460144,-0.2834858298301697,-0.3167116641998291,0.5231345891952515,-1.6049340963363647
188,287721,287722,-0.0620807483792305,0.22692640125751495,0.990789532661438,20.74917221069336,17.829736709594727,1.0903342962265015,-0.5909704566001892,-0.8339582681655884,-0.28198590874671936,-0.29990115761756897,0.7391341924667358,-1.6069986820220947
189,287731,287732,-0.29077664017677307,0.02608671225607395,0.964558482170105,17.43890953063965,35.62031555175781,1.4534262418746948,-0.5924703478813171,-0.8324583768844604,-0.2744862735271454,-0.717881977558136,1.025899052619934,-1.6121313571929932
190,287741,287742,-0.11061309278011322,0.09370339661836624,1.0182065963745117,14.056474685668945,48.08726501464844,2.524475574493408,-0.5879706144332886,-0.8309584259986877,-0.27898603677749634,-1.1210309267044067,1.1793267726898193,-1.5872668027877808
191,287751,287752,-0.12202247232198715,-0.12197474390268326,1.0157560110092163,9.605873107910156,41.33452224731445,5.693338871002197,-0.5999699831008911,-0.8489575386047363,-0.27898603677749634,-1.683192253112793,1.273911714553833,-1.5466480255126953
192,287761,287762,-0.5958552956581116,-0.3352714478969574,0.9082303643226624,2.449777364730835,24.295425415039062,8.570716857910156,-0.6089695692062378,-0.8429578542709351,-0.27898603677749634,-1.924630045890808,1.3715734481811523,-1.4685695171356201
193,287771,287772,-0.2389432191848755,0.006037188693881035,0.9885194301605225,-3.0585296154022217,-2.086878776550293,11.596936225891113,-0.6074696183204651,-0.850457489490509,-0.277486115694046,-2.0944931507110596,1.3556326627731323,-1.3720817565917969
194,287781,287782,-0.28460612893104553,0.06091676279902458,0.9800805449485779,-10.583894729614258,-25.964523315429688,15.937623977661133,-0.5909704566001892,-0.8339582681655884,-0.28498575091362,-2.055605411529541,1.251325011253357,-1.259900689125061
195,287791,287792,-0.8889857530593872,-0.2390783578157425,1.0121597051620483,-17.117708206176758,-32.90064239501953,16.670469284057617,-0.5924703478813171,-0.8474575877189636,-0.28948551416397095,-1.639714241027832,1.1015489101409912,-1.09934401512146
196,287801,287802,-0.23518291115760803,0.15500150620937347,1.0419737100601196,-24.724430084228516,-42.220767974853516,19.308307647705078,-0.5894705057144165,-0.8324583768844604,-0.2834858298301697,-1.0916943550109863,0.9735850095748901,-0.9129633903503418
197,287811,287812,-0.09165781736373901,0.15798163414001465,0.975259006023407,-28.41779327392578,-36.00739669799805,22.552011489868164,-0.5819708704948425,-0.8489575386047363,-0.2969851493835449,-0.8605987429618835,0.8569037318229675,-0.7429163455963135
198,287821,287822,-0.23038256168365479,0.07458357512950897,0.9809763431549072,-26.221464157104492,-26.161035537719727,25.519868850708008,-0.577471137046814,-0.8264586329460144,-0.28948551416397095,-0.3510355055332184,0.4764179289340973,-0.5134695768356323
199,287831,287832,-0.12915943562984467,-0.13322791457176208,0.9842679500579834,-21.832292556762695,-10.936991691589355,26.262481689453125,-0.5729713439941406,-0.8339582681655884,-0.28498575091362,-0.24662789702415466,0.21468062698841095,-0.2782324552536011
200,287841,287842,-1.0678248405456543,-0.2691563665866852,0.9761884212493896,-12.779119491577148,2.5512924194335938,28.46407699584961,-0.5879706144332886,-0.8429578542709351,-0.26998651027679443,-0.26355597376823425,-0.11188165098428726,-0.031467657536268234
201,287851,287852,-1.224970817565918,-0.2177012860774994,1.0073003768920898,-7.178625583648682,16.48157501220703,26.62957763671875,-0.5729713439941406,-0.8429578542709351,-0.28198590874671936,-0.3037010431289673,-0.15752141177654266,0.2544804811477661
202,287861,287862,-0.48393601179122925,-0.11309230327606201,1.000402808189392,-4.039340496063232,18.09059715270996,22.830610275268555,-0.5759711861610413,-0.8339582681655884,-0.27898603677749634,-0.5097176432609558,-0.11440575867891312,0.518514096736908
203,287871,287872,-0.6527979373931885,-0.31202587485313416,0.9664852619171143,4.58735990524292,13.072511672973633,20.44077491760254,-0.577471137046814,-0.8324583768844604,-0.28048595786094666,-0.7303033471107483,-0.07816391438245773,0.748607337474823
204,287881,287882,-0.8633137941360474,-0.014921804890036583,0.9407767057418823,9.22632122039795,14.543526649475098,18.175037384033203,-0.5744712948799133,-0.8294585347175598,-0.28948551416397095,-0.9663646817207336,0.07172667980194092,0.9500168561935425
205,287891,287892,-0.7107170820236206,0.21961575746536255,0.9966018795967102,8.642658233642578,15.325394630432129,13.365616798400879,-0.5909704566001892,-0.8429578542709351,-0.28798559308052063,-1.1341394186019897,0.13397246599197388,1.1226266622543335
206,287901,287902,-0.10003089904785156,0.09120279550552368,1.0072375535964966,2.3801283836364746,13.48076343536377,8.851177215576172,-0.5849707126617432,-0.8219588994979858,-0.2939853072166443,-1.3599638938903809,0.18760649859905243,1.2483044862747192
207,287911,287912,0.02450483664870262,-0.15869316458702087,0.9011253714561462,-8.940313339233398,9.231954574584961,5.740504264831543,-0.56997150182724,-0.8339582681655884,-0.28798559308052063,-1.4749970436096191,-0.06644361466169357,1.3187235593795776
208,287921,287922,-0.03067498467862606,-0.0018288354622200131,0.9808030724525452,-19.03575897216797,3.44504451751709,2.9703052043914795,-0.5744712948799133,-0.844457745552063,-0.277486115694046,-1.3189020156860352,-0.27362334728240967,1.376461148262024
209,287931,287932,-0.07461493462324142,0.10413350909948349,1.055311918258667,-26.65361785888672,2.6020803451538086,-0.614314079284668,-0.5759711861610413,-0.836958110332489,-0.2759861946105957,-1.382285237312317,-0.16417577862739563,1.4254006147384644
210,287941,287942,-0.05758131295442581,0.07070239633321762,1.0128672122955322,-27.246204376220703,10.672203063964844,-7.3707275390625,-0.577471137046814,-0.8144592642784119,-0.28048595786094666,-1.426690936088562,-0.3978913128376007,1.4067453145980835
211,287951,287952,-0.2594449520111084,0.006735539995133877,1.03391695022583,-19.492712020874023,4.647071838378906,-14.32348346710205,-0.5684715509414673,-0.8234587907791138,-0.28948551416397095,-1.5550124645233154,-0.6912741661071777,1.3201440572738647
212,287961,287962,-0.13645488023757935,-0.00209694798104465,1.0074005126953125,-9.624425888061523,-7.709571838378906,-17.262197494506836,-0.577471137046814,-0.8174591064453125,-0.26848655939102173,-1.66732919216156,-0.8553054332733154,1.1781519651412964
213,287971,287972,-0.17818963527679443,-0.1128566786646843,1.0154579877853394,-0.8470186591148376,-11.524604797363281,-21.75910758972168,-0.5804709792137146,-0.8294585347175598,-0.26848655939102173,-1.5345922708511353,-1.0025213956832886,0.9904323220252991
214,287981,287982,-0.13208815455436707,0.1300371140241623,0.9597935676574707,10.174642562866211,-15.557021141052246,-23.886585235595703,-0.5879706144332886,-0.8309584259986877,-0.26998651027679443,-1.3162177801132202,-0.9303091764450073,0.7807196974754333
215,287991,287992,-0.11282366514205933,0.2821981608867645,1.0322016477584839,19.821475982666016,-15.918146133422852,-25.36289405822754,-0.577471137046814,-0.8294585347175598,-0.2834858298301697,-1.110146164894104,-0.7568320035934448,0.5485012531280518
216,288001,288002,-0.1492929607629776,0.1207055151462555,1.038042664527893,26.524721145629883,-11.340286254882812,-30.808738708496094,-0.5804709792137146,-0.8414579033851624,-0.2654867172241211,-0.9734809994697571,-0.5645465850830078,0.2871149778366089
217,288011,288012,-0.4586179554462433,-0.18219292163848877,0.9891521334648132,31.83896827697754,-6.5033063888549805,-32.82741928100586,-0.5744712948799133,-0.8354582190513611,-0.28048595786094666,-0.8997310400009155,-0.26919201016426086,-0.007127995602786541
218,288021,288022,-0.3068455159664154,-0.10403750091791153,0.9899682402610779,33.673282623291016,3.681509494781494,-33.15224075317383,-0.5894705057144165,-0.844457745552063,-0.28048595786094666,-0.7856919169425964,0.10110468417406082,-0.3278938829898834
219,288031,288032,-0.1779908686876297,0.020099742338061333,1.0134575366973877,32.70895004272461,0.08622840791940689,-30.54458999633789,-0.5879706144332886,-0.8399580121040344,-0.28798559308052063,-0.8001826405525208,0.2947816252708435,-0.6701448559761047
220,288041,288042,-0.32893550395965576,0.11027614772319794,1.0562942028045654,28.42898178100586,-12.225561141967773,-22.40461540222168,-0.5939702987670898,-0.8489575386047363,-0.29098543524742126,-0.7462907433509827,0.751954197883606,-0.9454199075698853
221,288051,288052,-0.30781838297843933,0.047996338456869125,1.0566256046295166,16.35165786743164,-22.32598114013672,-14.594122886657715,-0.577471137046814,-0.850457489490509,-0.2924853563308716,-0.7152299880981445,0.7038753032684326,-1.1948550939559937
222,288061,288062,-0.262035608291626,-0.304556280374527,0.9740580916404724,3.460350751876831,-27.868505477905273,-8.574463844299316,-0.5924703478813171,-0.8564571738243103,-0.28948551416397095,-0.37809130549430847,0.8436108231544495,-1.3506324291229248
223,288071,288072,-0.685613751411438,-0.02215154655277729,1.0258156061172485,-13.678324699401855,-28.53654670715332,-0.4733675718307495,-0.5864706635475159,-0.8414579033851624,-0.2834858298301697,-0.12153300642967224,0.8248099684715271,-1.4379600286483765
224,288081,288082,-0.9969828128814697,0.06683813780546188,1.057647705078125,-32.22842025756836,-16.556182861328125,4.900259971618652,-0.5819708704948425,-0.836958110332489,-0.27898603677749634,0.17585815489292145,0.5898430347442627,-1.456050992012024
225,288091,288092,-0.5665791034698486,0.043831728398799896,1.0967350006103516,-37.18360137939453,-10.289640426635742,7.185590744018555,-0.577471137046814,-0.8324583768844604,-0.2864856719970703,0.23473872244358063,0.10006128251552582,-1.4184978008270264
226,288101,288102,-0.4641854763031006,0.10977306962013245,1.1340504884719849,-34.641265869140625,-1.7902456521987915,10.690521240234375,-0.56997150182724,-0.8249587416648865,-0.27898603677749634,0.3242410719394684,-0.057023607194423676,-1.3311129808425903
227,288111,288112,-0.5358286499977112,-0.05104167386889458,1.0736281871795654,-24.464637756347656,9.7753267288208,10.703434944152832,-0.5759711861610413,-0.8339582681655884,-0.2759861946105957,0.36080339550971985,-0.507636308670044,-1.2319954633712769
228,288121,288122,-0.47684183716773987,-0.05429931730031967,1.0065079927444458,-11.75583267211914,11.0262451171875,10.126023292541504,-0.5879706144332886,-0.8159592151641846,-0.26998651027679443,0.2628898620605469,-0.708591878414154,-1.1224716901779175
229,288131,288132,-0.10814658552408218,-0.0771215483546257,0.9974432587623596,-1.1358728408813477,8.5474214553833,8.155547142028809,-0.5999699831008911,-0.8129593133926392,-0.2759861946105957,0.11186903715133667,-0.7146055102348328,-1.024493932723999
230,288141,288142,-0.16950517892837524,-0.06020354852080345,1.0340207815170288,17.770204544067383,2.2597262859344482,5.729321479797363,-0.6029698252677917,-0.8219588994979858,-0.28198590874671936,-0.012935391627252102,-0.6660431027412415,-0.9478127956390381
231,288151,288152,-0.3174009621143341,-0.06419578194618225,1.009157419204712,35.45735168457031,-4.411800861358643,6.987800598144531,-0.5834708213806152,-0.8204589486122131,-0.28948551416397095,0.02997097186744213,-0.33350157737731934,-0.8973792195320129
232,288161,288162,-0.1719455122947693,-0.09709902107715607,1.0112595558166504,44.27002716064453,-3.683704137802124,6.349952697753906,-0.5864706635475159,-0.8414579033851624,-0.277486115694046,0.10399193316698074,0.05374840646982193,-0.8408334851264954
233,288171,288172,-0.2857748568058014,0.05981600657105446,1.0083503723144531,45.3042106628418,-5.647062301635742,4.404359817504883,-0.5909704566001892,-0.8399580121040344,-0.28798559308052063,0.20437830686569214,0.43412524461746216,-0.7850133180618286
234,288181,288182,-0.1578536033630371,-0.13865748047828674,1.028807282447815,39.4224853515625,-11.121906280517578,4.332790851593018,-0.5879706144332886,-0.8339582681655884,-0.28798559308052063,0.339246541261673,0.9599789977073669,-0.7486116886138916
235,288191,288192,-0.2428470402956009,-0.060507286339998245,1.0557829141616821,26.504186630249023,-12.304373741149902,5.547431468963623,-0.5864706635475159,-0.8414579033851624,-0.277486115694046,0.46367916464805603,1.3795779943466187,-0.7119631767272949
236,288201,288202,-0.05090290307998657,0.08456245064735413,1.0658631324768066,6.670868873596191,-7.041460037231445,2.6646857261657715,-0.5984700918197632,-0.8414579033851624,-0.2744862735271454,0.58802330493927,1.5058088302612305,-0.6601486802101135
237,288211,288212,-0.27714061737060547,-0.27272889018058777,1.0084971189498901,-9.143207550048828,-3.5343353748321533,-2.002284526824951,-0.5819708704948425,-0.836958110332489,-0.27298635244369507,0.6303679943084717,1.5412575006484985,-0.638425350189209
238,288221,288222,-0.1352233588695526,-0.007176665589213371,1.0138949155807495,-22.81841468811035,1.801532506942749,-6.567806720733643,-0.5819708704948425,-0.8429578542709351,-0.28198590874671936,0.48249125480651855,1.3104745149612427,-0.6501655578613281
239,288231,288232,-0.15066544711589813,-0.09486346691846848,1.0655630826950073,-27.4487247467041,-3.426990270614624,-8.868724822998047,-0.5819708704948425,-0.8429578542709351,-0.28198590874671936,0.5013952255249023,1.0207202434539795,-0.7059049010276794
240,288241,288242,-0.4939103424549103,-0.47294408082962036,1.0410592555999756,-28.49315643310547,-2.0858898162841797,-11.065579414367676,-0.5819708704948425,-0.8429578542709351,-0.28198590874671936,0.5789316296577454,0.7384376525878906,-0.7945316433906555
241,288251,288252,-0.37420839071273804,-0.2981993854045868,1.0014560222625732,-25.52663803100586,6.0151262283325195,-14.586769104003906,-0.5819708704948425,-0.8429578542709351,-0.28198590874671936,0.62668377161026,0.44154590368270874,-0.9048692584037781
242,288261,288262,-0.5368178486824036,-0.17501883208751678,0.9141845703125,-16.080228805541992,6.40830659866333,-18.678489685058594,-0.5834708213806152,-0.8324583768844604,-0.277486115694046,0.5889329314231873,0.20936450362205505,-1.0527923107147217
243,288271,288272,-0.22696612775325775,-0.14823302626609802,0.9248415231704712,-2.0509538650512695,-1.4075143337249756,-17.951826095581055,-0.5789710283279419,-0.8339582681655884,-0.27298635244369507,0.5456532835960388,0.20771656930446625,-1.2502338886260986
244,288281,288282,-0.18068887293338776,-0.24203844368457794,1.000078558921814,14.870165824890137,-5.00347900390625,-18.785593032836914,-0.5969701409339905,-0.8279585838317871,-0.27298635244369507,0.5840632915496826,0.28352731466293335,-1.4382753372192383
245,288291,288292,-0.29175668954849243,-0.42719215154647827,0.9259915351867676,32.227256774902344,-3.8027029037475586,-18.763376235961914,-0.5834708213806152,-0.8294585347175598,-0.277486115694046,0.6766908764839172,0.5680385231971741,-1.6356498003005981
246,288301,288302,-0.35542088747024536,-0.31174010038375854,0.8665594458580017,37.53076171875,-8.016544342041016,-17.36757469177246,-0.5804709792137146,-0.8474575877189636,-0.2834858298301697,0.7698460221290588,0.8822333812713623,-1.81191885471344
247,288311,288312,-0.8758975267410278,-0.5436645150184631,0.7840668559074402,28.14690589904785,-4.8624162673950195,-19.394851684570312,-0.5879706144332886,-0.836958110332489,-0.2939853072166443,0.8327798843383789,1.3241119384765625,-2.006047248840332
248,288321,288322,-0.3853957951068878,-0.5276077389717102,0.8453453779220581,6.8779191970825195,1.4582688808441162,-21.951160430908203,-0.5819708704948425,-0.851957380771637,-0.29098543524742126,0.8557409048080444,1.5253998041152954,-2.190838575363159
249,288331,288332,-0.06451122462749481,-0.42308810353279114,0.9403626322746277,-14.820639610290527,7.98219108581543,-22.298664093017578,-0.5669716596603394,-0.8459576964378357,-0.28798559308052063,0.8472847938537598,1.4538021087646484,-2.379089117050171
250,288341,288342,-0.1551942378282547,-0.39792388677597046,0.9696062207221985,-38.06296920776367,21.018760681152344,-22.686887741088867,-0.5594720244407654,-0.8414579033851624,-0.28048595786094666,0.7779166102409363,1.1566320657730103,-2.573776960372925
251,288351,288352,-0.21651197969913483,-0.09015343338251114,0.9704684019088745,-50.57653045654297,35.19684600830078,-23.304100036621094,-0.5879706144332886,-0.8579570651054382,-0.28498575091362,0.5704919695854187,0.8087157607078552,-2.803426504135132
252,288361,288362,-0.23708252608776093,0.09628910571336746,0.9826306104660034,-52.17724609375,30.066036224365234,-21.834272384643555,-0.5609719157218933,-0.8579570651054382,-0.28798559308052063,0.09901930391788483,0.13538607954978943,-3.009247064590454
253,288371,288372,-0.34158235788345337,0.09987975656986237,1.0782054662704468,-48.44755554199219,32.48059844970703,-21.64876937866211,-0.5594720244407654,-0.850457489490509,-0.29848507046699524,-0.23743857443332672,-0.13122329115867615,-3.2792749404907227
254,288381,288382,-0.6192312836647034,-0.06017747148871422,1.0635603666305542,-32.34446716308594,31.09473991394043,-18.54479217529297,-0.56997150182724,-0.8399580121040344,-0.28198590874671936,-0.44284042716026306,-0.6858571767807007,-3.4643754959106445
255,288391,288392,-0.37361058592796326,0.13565585017204285,0.9920791983604431,-11.188645362854004,27.13648796081543,-20.303274154663086,-0.5804709792137146,-0.844457745552063,-0.27148643136024475,-0.8363564014434814,-0.8195851445198059,-3.696993350982666
256,288401,288402,-0.6047224402427673,0.043166182935237885,1.0785433053970337,8.908665657043457,18.73857307434082,-19.284507751464844,-0.5819708704948425,-0.8399580121040344,-0.28498575091362,-1.1606765985488892,-0.9021927118301392,-3.9058101177215576
257,288411,288412,-0.38542646169662476,-0.34831422567367554,1.2011183500289917,30.761648178100586,1.617828130722046,-15.43137264251709,-0.5969701409339905,-0.8489575386047363,-0.28798559308052063,-1.1174774169921875,-0.7063815593719482,-4.09213924407959
258,288421,288422,-0.14367061853408813,0.026639360934495926,1.0046203136444092,43.22125244140625,-10.374326705932617,-15.150732040405273,-0.5849707126617432,-0.8729563355445862,-0.2939853072166443,-1.1129387617111206,-0.26128843426704407,-4.264185428619385
259,288431,288432,-0.5446067452430725,-0.2049321085214615,1.0559017658233643,37.78910446166992,-22.351280212402344,-14.528721809387207,-0.5954701900482178,-0.8654567003250122,-0.2954852283000946,-0.9255553483963013,0.2706461250782013,-4.424712181091309
260,288441,288442,-0.3813933730125427,-0.18872115015983582,1.001560091972351,38.87590026855469,-36.8604736328125,-13.405867576599121,-0.5954701900482178,-0.8534573316574097,-0.2924853563308716,-0.651684045791626,0.5913746356964111,-4.568381309509277
261,288451,288452,-0.7982936501502991,-0.37636569142341614,0.9590452313423157,36.21229934692383,-30.577259063720703,-13.602119445800781,-0.5954701900482178,-0.850457489490509,-0.2834858298301697,-0.24877233803272247,0.9620351791381836,-4.708655834197998
262,288461,288462,-0.7221373319625854,-0.3467138409614563,0.8873472809791565,21.397266387939453,-29.171348571777344,-6.691669940948486,-0.5894705057144165,-0.8774561285972595,-0.2924853563308716,0.20558582246303558,1.3956791162490845,-4.840795516967773
263,288471,288472,-0.6759406328201294,-0.053329698741436005,1.074925184249878,3.9076335430145264,-28.133310317993164,-2.0141568183898926,-0.5849707126617432,-0.8579570651054382,-0.2939853072166443,0.4755688011646271,1.5216301679611206,-4.91133975982666
264,288481,288482,-0.33284857869148254,-0.19029873609542847,1.0519752502441406,-13.808320045471191,-18.279605865478516,2.0205960273742676,-0.5729713439941406,-0.8789560198783875,-0.3059847056865692,0.8389219045639038,1.5310423374176025,-4.9319281578063965
265,288491,288492,-0.49394771456718445,-0.38239842653274536,1.0677165985107422,-22.5395565032959,-0.23744487762451172,2.710453987121582,-0.5744712948799133,-0.8534573316574097,-0.30748462677001953,0.8612608909606934,1.2740998268127441,-4.916458606719971
266,288501,288502,-0.3208954930305481,-0.06743572652339935,1.1714508533477783,-24.57947540283203,3.5072383880615234,5.8912506103515625,-0.5759711861610413,-0.8639568090438843,-0.28798559308052063,0.7740007042884827,1.021897554397583,-4.888627052307129
267,288511,288512,-0.4211929440498352,0.028731465339660645,1.1270384788513184,-26.078916549682617,22.254777908325195,5.823898792266846,-0.5759711861610413,-0.8429578542709351,-0.2939853072166443,0.7236772179603577,0.662962794303894,-4.824163436889648
268,288521,288522,-0.49125680327415466,-0.015487972646951675,1.0766830444335938,-24.43910789489746,25.849807739257812,5.71524715423584,-0.5894705057144165,-0.8564571738243103,-0.28948551416397095,0.5063847303390503,0.5770518183708191,-4.782689094543457
269,288531,288532,-0.27325204014778137,-0.3020285367965698,1.147457480430603,-28.181169509887695,30.575706481933594,3.9719078540802,-0.5909704566001892,-0.8339582681655884,-0.28498575091362,0.12121585756540298,0.2147507667541504,-4.728143692016602
270,288541,288542,-0.06604558974504471,-0.6263170838356018,1.1739693880081177,-19.40447998046875,26.513383865356445,2.777189016342163,-0.5954701900482178,-0.8414579033851624,-0.28048595786094666,-0.09174913913011551,0.17377504706382751,-4.705896377563477
271,288551,288552,-0.15528495609760284,-0.4080770015716553,1.1638461351394653,-13.630602836608887,35.875484466552734,0.1045762449502945,-0.6014699339866638,-0.8294585347175598,-0.28048595786094666,-0.2884286642074585,-0.10594117641448975,-4.6687493324279785
272,288561,288562,-0.20098410546779633,-0.24710418283939362,1.1601734161376953,-4.282280445098877,27.847095489501953,0.4025209844112396,-0.5984700918197632,-0.8264586329460144,-0.28048595786094666,-0.5813389420509338,-0.1363568753004074,-4.67628812789917
273,288571,288572,-0.25921112298965454,0.180450901389122,1.0599026679992676,3.698729991912842,22.80463218688965,-3.17531681060791,-0.6029698252677917,-0.8249587416648865,-0.28198590874671936,-0.8500932455062866,-0.019067877903580666,-4.695650100708008
274,288581,288582,-0.35918769240379333,-0.28220435976982117,1.0533639192581177,10.368896484375,4.270040988922119,-0.8868170380592346,-0.6089695692062378,-0.8219588994979858,-0.27898603677749634,-1.142331600189209,-0.001436699996702373,-4.726119041442871
275,288591,288592,-0.15295948088169098,-0.18365617096424103,0.9382129907608032,15.911005973815918,-15.993343353271484,0.42720848321914673,-0.6134693026542664,-0.8294585347175598,-0.28048595786094666,-1.0826362371444702,0.2628645896911621,-4.737372875213623
276,288601,288602,-0.17071150243282318,-0.025288911536335945,0.9557821154594421,8.397335052490234,-22.452495574951172,4.143077373504639,-0.5954701900482178,-0.8234587907791138,-0.2834858298301697,-0.7964640259742737,0.3613939881324768,-4.7212982177734375
277,288611,288612,-0.586899995803833,-0.6280450820922852,0.9406263828277588,6.6922760009765625,-26.033748626708984,5.653876781463623,-0.6029698252677917,-0.8339582681655884,-0.2759861946105957,-0.5131928324699402,0.41885361075401306,-4.676952362060547
278,288621,288622,-1.0016857385635376,-0.7892733812332153,0.9212390184402466,-9.405524253845215,-20.391220092773438,9.067243576049805,-0.5969701409339905,-0.8249587416648865,-0.2939853072166443,-0.16655302047729492,0.41330385208129883,-4.611067295074463
279,288631,288632,-0.7845048904418945,-0.44549015164375305,0.9407883286476135,-16.69568634033203,-3.063474416732788,8.98956298828125,-0.5954701900482178,-0.8294585347175598,-0.28948551416397095,0.06327672302722931,0.3325299024581909,-4.520140171051025
280,288641,288642,-0.25565993785858154,-0.24253399670124054,0.9208714365959167,-20.982471466064453,1.6860321760177612,11.467031478881836,-0.5954701900482178,-0.8294585347175598,-0.28048595786094666,-0.025747181847691536,0.06974871456623077,-4.423622131347656
281,288651,288652,-0.12589295208454132,-0.4103260338306427,0.9311854839324951,-25.05171775817871,12.575072288513184,12.549652099609375,-0.5924703478813171,-0.8264586329460144,-0.28948551416397095,-0.1653815060853958,-0.19333909451961517,-4.306092739105225
282,288661,288662,-0.09730777889490128,-0.039845697581768036,0.9910356402397156,-25.28864288330078,24.85654067993164,11.049294471740723,-0.6014699339866638,-0.8324583768844604,-0.28048595786094666,-0.2507891058921814,-0.16386207938194275,-4.180690288543701
283,288671,288672,0.04735875502228737,0.005580478347837925,0.935835599899292,-26.26685905456543,23.265512466430664,12.633203506469727,-0.6014699339866638,-0.8414579033851624,-0.277486115694046,-0.5579440593719482,-0.5142029523849487,-4.064394950866699
284,288681,288682,-0.045986682176589966,-0.0244459081441164,0.9706874489784241,-24.06084442138672,27.21254539489746,9.660172462463379,-0.5984700918197632,-0.8204589486122131,-0.277486115694046,-0.7865585088729858,-0.786217987537384,-3.943920135498047
285,288691,288692,-0.16379232704639435,0.031018510460853577,0.9600093364715576,-17.355587005615234,15.729327201843262,9.480673789978027,-0.5894705057144165,-0.8324583768844604,-0.2864856719970703,-1.0470079183578491,-1.0101280212402344,-3.8407719135284424
286,288701,288702,-0.14889764785766602,-0.09164636582136154,1.0243253707885742,-12.159564971923828,13.815583229064941,7.823176383972168,-0.5939702987670898,-0.836958110332489,-0.27898603677749634,-1.09618079662323,-1.1300742626190186,-3.7489562034606934
287,288711,288712,-0.16061311960220337,-0.20171216130256653,0.9738394618034363,-1.4871920347213745,2.032728433609009,6.686819076538086,-0.6059696674346924,-0.8309584259986877,-0.28798559308052063,-1.2179430723190308,-1.228438138961792,-3.667069911956787
288,288721,288722,-0.6514332890510559,-0.5582279562950134,0.992412269115448,0.010158178396522999,-2.906355381011963,5.607161045074463,-0.5999699831008911,-0.8399580121040344,-0.28798559308052063,-1.2415356636047363,-1.1838189363479614,-3.594846248626709
289,288731,288732,-0.43096721172332764,-0.3707011342048645,0.9062873721122742,8.449471473693848,-7.217465877532959,2.355931282043457,-0.5924703478813171,-0.8414579033851624,-0.2834858298301697,-1.1738462448120117,-1.1601216793060303,-3.5413990020751953
290,288741,288742,-0.08100669831037521,-0.573010265827179,0.8907006978988647,7.644908905029297,-17.87925910949707,2.8679113388061523,-0.5804709792137146,-0.8414579033851624,-0.2864856719970703,-1.0387464761734009,-1.0959581136703491,-3.51912522315979
291,288751,288752,-0.1159447431564331,-0.2559387683868408,0.9629950523376465,9.000295639038086,-16.03436851501465,-2.3459835052490234,-0.5954701900482178,-0.844457745552063,-0.28948551416397095,-0.7807178497314453,-1.031812310218811,-3.512924909591675
292,288761,288762,-0.10015015304088593,0.06204571574926376,0.9525150060653687,8.941462516784668,-18.506637573242188,-0.722206711769104,-0.5909704566001892,-0.8459576964378357,-0.29098543524742126,-0.6139392256736755,-0.8805527091026306,-3.525125741958618
293,288771,288772,-0.3160257935523987,-0.09538900852203369,1.0823626518249512,0.51346755027771,-4.022879600524902,-1.0690267086029053,-0.5924703478813171,-0.8414579033851624,-0.28948551416397095,-0.47510862350463867,-0.8899995684623718,-3.545665979385376
294,288781,288782,-0.5438451170921326,-0.16762442886829376,1.1180334091186523,0.07646903395652771,7.433791637420654,-3.0896012783050537,-0.5744712948799133,-0.8474575877189636,-0.3044847846031189,-0.4788602590560913,-0.8693292737007141,-3.5572595596313477
295,288791,288792,-0.3247326612472534,-0.2128000259399414,1.1498937606811523,-10.623417854309082,19.295515060424805,-2.7882940769195557,-0.5744712948799133,-0.8384580612182617,-0.2954852283000946,-0.6665788292884827,-0.9573251605033875,-3.5849714279174805
296,288801,288802,-0.16761448979377747,-0.1495441049337387,1.1240226030349731,-14.404277801513672,32.679317474365234,-6.528497695922852,-0.5819708704948425,-0.8339582681655884,-0.28798559308052063,-0.887954831123352,-1.1174368858337402,-3.6318812370300293
297,288811,288812,-0.11664967238903046,-0.024282442405819893,1.1756504774093628,-11.675803184509277,30.270166397094727,-5.827286720275879,-0.5864706635475159,-0.8354582190513611,-0.2834858298301697,-1.057889461517334,-1.1893666982650757,-3.719019889831543
298,288821,288822,-0.19508548080921173,0.022197414189577103,1.0951486825942993,-10.13561725616455,38.175960540771484,-8.470163345336914,-0.5924703478813171,-0.8414579033851624,-0.277486115694046,-1.5734972953796387,-1.4296497106552124,-3.7659807205200195
299,288831,288832,-0.05997471138834953,0.07178015261888504,1.097385048866272,-2.6691930294036865,21.679046630859375,-6.002284526824951,-0.5969701409339905,-0.8429578542709351,-0.26998651027679443,-1.9117333889007568,-1.472257375717163,-3.8465945720672607
300,288841,288842,-0.033522579818964005,0.16695722937583923,1.0120960474014282,2.310030221939087,13.801924705505371,-6.5774078369140625,-0.5864706635475159,-0.8204589486122131,-0.28048595786094666,-2.0250661373138428,-1.3999149799346924,-3.924044132232666
301,288851,288852,-0.7449821829795837,0.08147472888231277,1.0675499439239502,3.124155282974243,-12.855513572692871,-2.489126682281494,-0.6089695692062378,-0.836958110332489,-0.28198590874671936,-1.9694563150405884,-1.3963464498519897,-4.0162739753723145
302,288861,288862,-0.48821350932121277,0.06857417523860931,1.069823145866394,-1.7344944477081299,-24.930551528930664,-1.1590654850006104,-0.5954701900482178,-0.8414579033851624,-0.2834858298301697,-1.7571934461593628,-1.3948792219161987,-4.058248996734619
303,288871,288872,-0.40225332975387573,-0.19092467427253723,1.1873332262039185,-8.386744499206543,-34.90548324584961,1.9181575775146484,-0.6044697761535645,-0.8384580612182617,-0.2834858298301697,-1.3676111698150635,-1.4728807210922241,-4.101848125457764
304,288881,288882,-0.5264983177185059,-0.5363984107971191,1.040027379989624,-0.8003240823745728,-31.298078536987305,-0.5677379965782166,-0.5909704566001892,-0.8309584259986877,-0.26998651027679443,-1.080413579940796,-1.610116720199585,-4.0911993980407715
305,288891,288892,-0.6450797915458679,-0.29961827397346497,1.0897947549819946,-2.9696333408355713,-28.330841064453125,2.690221071243286,-0.5969701409339905,-0.8249587416648865,-0.27898603677749634,-0.6871779561042786,-1.6639628410339355,-4.114582538604736
306,288901,288902,-0.3535263240337372,-0.19207093119621277,1.019837498664856,8.558317184448242,-18.54306983947754,1.8558992147445679,-0.5879706144332886,-0.8129593133926392,-0.2759861946105957,-0.3465716242790222,-1.5636605024337769,-4.085150241851807
307,288911,288912,-0.4721885323524475,-0.12330860644578934,1.0086288452148438,10.575207710266113,-10.934045791625977,4.153128623962402,-0.5924703478813171,-0.8264586329460144,-0.26848655939102173,-0.20447902381420135,-1.52470064163208,-4.050401210784912
308,288921,288922,-0.22611409425735474,-0.09278672933578491,1.0393940210342407,9.464558601379395,4.436958312988281,1.4840964078903198,-0.6044697761535645,-0.8234587907791138,-0.26848655939102173,-0.2756446897983551,-1.3663514852523804,-3.955781936645508
309,288931,288932,-0.10278677195310593,0.06062416359782219,1.0379564762115479,11.101617813110352,10.448295593261719,2.5321245193481445,-0.616469144821167,-0.8174591064453125,-0.26848655939102173,-0.3476988673210144,-1.2252360582351685,-3.915630340576172
310,288941,288942,-0.05629027262330055,-0.0027024787850677967,1.0294731855392456,7.251898765563965,22.969602584838867,2.341219663619995,-0.6044697761535645,-0.8234587907791138,-0.2654867172241211,-0.5402181148529053,-1.207484245300293,-3.882126808166504
311,288951,288952,-0.13580508530139923,-0.12328927218914032,1.0225099325180054,2.524653911590576,15.306909561157227,0.6449308395385742,-0.5894705057144165,-0.7994599938392639,-0.277486115694046,-0.790939211845398,-1.1102222204208374,-3.844937324523926
312,288961,288962,-0.20233649015426636,-0.055152151733636856,1.0396432876586914,3.9083669185638428,14.67506217956543,1.922152042388916,-0.6044697761535645,-0.8084595799446106,-0.25348731875419617,-0.8797047734260559,-1.001365065574646,-3.8451602458953857
313,288971,288972,-0.3263237178325653,-0.13142719864845276,1.0831998586654663,10.642292022705078,8.271977424621582,2.0160350799560547,-0.6119694113731384,-0.8129593133926392,-0.27298635244369507,-0.9549258351325989,-0.9988393187522888,-3.8496596813201904
314,288981,288982,-0.3650839328765869,-0.08769103139638901,1.0872329473495483,14.489209175109863,4.446961879730225,2.9856066703796387,-0.5924703478813171,-0.8144592642784119,-0.2834858298301697,-1.0788887739181519,-0.8903815150260925,-3.8176021575927734
315,288991,288992,-0.11649824678897858,-0.16633835434913635,1.0500913858413696,12.020586013793945,6.7482008934021,3.657517671585083,-0.6104694604873657,-0.8234587907791138,-0.2654867172241211,-1.1479833126068115,-0.7311133146286011,-3.782750129699707
316,289001,289002,-0.3954230844974518,-0.05613701418042183,1.0589138269424438,13.553370475769043,-0.8843356370925903,6.519511699676514,-0.5954701900482178,-0.8174591064453125,-0.27148643136024475,-1.1496353149414062,-0.6694351434707642,-3.7612385749816895
317,289011,289012,-0.39941221475601196,-0.4048368036746979,0.9994135499000549,12.081435203552246,-13.063920974731445,9.118048667907715,-0.6029698252677917,-0.8189590573310852,-0.28198590874671936,-1.0393565893173218,-0.4604654610157013,-3.7051591873168945
318,289021,289022,-0.40462592244148254,-0.31759920716285706,0.9735339283943176,12.590846061706543,-23.430208206176758,9.67662525177002,-0.6044697761535645,-0.8174591064453125,-0.2834858298301697,-0.8889365792274475,-0.3999922573566437,-3.62636661529541
319,289031,289032,-0.42462101578712463,-0.37243980169296265,0.9859354496002197,8.862340927124023,-28.757192611694336,11.958109855651855,-0.5984700918197632,-0.8264586329460144,-0.27148643136024475,-0.51662278175354,-0.27043718099594116,-3.555490732192993
320,289041,289042,-1.143782615661621,-0.10565420240163803,1.0317234992980957,8.64576530456543,-30.474340438842773,14.302595138549805,-0.5999699831008911,-0.8279585838317871,-0.27298635244369507,-0.2147696316242218,-0.20227229595184326,-3.4398536682128906
321,289051,289052,-0.9539055228233337,-0.15971538424491882,1.0301421880722046,10.614055633544922,-28.520883560180664,16.628934860229492,-0.5909704566001892,-0.8219588994979858,-0.28198590874671936,0.05473332852125168,-0.12656328082084656,-3.290081739425659
322,289061,289062,-0.4340845048427582,-0.1978011429309845,0.9837366938591003,7.980550765991211,-23.048669815063477,18.909168243408203,-0.5909704566001892,-0.8219588994979858,-0.28198590874671936,0.35939937829971313,-0.029890863224864006,-3.126373529434204
323,289071,289072,-0.29320400953292847,0.05739540234208107,0.9424192309379578,0.2357930839061737,-16.095151901245117,22.093111038208008,-0.5909704566001892,-0.8219588994979858,-0.28198590874671936,0.5647501349449158,0.08454112708568573,-2.9304251670837402
324,289081,289082,-0.15878164768218994,-0.01992562599480152,1.001587986946106,-5.128724098205566,-5.778154373168945,24.636308670043945,-0.5924703478813171,-0.8144592642784119,-0.28048595786094666,0.620977520942688,0.011591892689466476,-2.707005262374878
325,289091,289092,-0.12402018904685974,-0.032349951565265656,1.0061925649642944,-12.503849029541016,15.949457168579102,23.469200134277344,-0.5849707126617432,-0.8309584259986877,-0.26998651027679443,0.5676011443138123,-0.08355851471424103,-2.463109016418457
326,289101,289102,-0.09767070412635803,0.002285995054990053,0.9914529919624329,-19.233978271484375,30.989641189575195,22.732280731201172,-0.5849707126617432,-0.8219588994979858,-0.28498575091362,0.29250627756118774,-0.2918725907802582,-2.221498966217041
327,289111,289112,-0.05069738253951073,-0.1440415382385254,0.9658209085464478,-22.239973068237305,39.49808883666992,21.57975959777832,-0.5894705057144165,-0.8204589486122131,-0.2744862735271454,-0.0012807321036234498,-0.46034902334213257,-1.999609112739563
328,289121,289122,-0.20473572611808777,-0.16952118277549744,0.986517071723938,-15.9960298538208,39.89254379272461,20.88457489013672,-0.5834708213806152,-0.8294585347175598,-0.2834858298301697,-0.49261268973350525,-0.7969583868980408,-1.7777677774429321
329,289131,289132,-0.1616065502166748,-0.016301292926073074,1.0112557411193848,-8.364106178283691,35.974788665771484,20.808406829833984,-0.5939702987670898,-0.8279585838317871,-0.2669866383075714,-0.8428951501846313,-0.8075160980224609,-1.5790784358978271
330,289141,289142,-0.6183472275733948,-0.1466834396123886,0.984557032585144,2.9572343826293945,24.36345863342285,19.806583404541016,-0.5939702987670898,-0.8219588994979858,-0.2669866383075714,-1.254038691520691,-0.8349488377571106,-1.3712395429611206
331,289151,289152,-0.47793689370155334,-0.22079262137413025,1.0040487051010132,11.190252304077148,5.950893402099609,19.834129333496094,-0.5894705057144165,-0.8324583768844604,-0.277486115694046,-1.3405320644378662,-0.7545325756072998,-1.1877011060714722
332,289161,289162,-0.40595754981040955,-0.08209840953350067,1.0878902673721313,20.2774658203125,-5.417449951171875,20.475467681884766,-0.5924703478813171,-0.8264586329460144,-0.2834858298301697,-1.3016993999481201,-0.5319527387619019,-1.0012165307998657
333,289171,289172,-0.29277899861335754,-0.18060769140720367,1.0616236925125122,16.560083389282227,-15.550594329833984,20.95795440673828,-0.577471137046814,-0.844457745552063,-0.277486115694046,-1.2028520107269287,-0.413291871547699,-0.8005412220954895
334,289181,289182,-0.29832783341407776,-0.2505311965942383,1.065105676651001,9.115983009338379,-33.74412536621094,22.402591705322266,-0.5849707126617432,-0.836958110332489,-0.28498575091362,-0.9313032627105713,-0.21691933274269104,-0.5991106033325195
335,289191,289192,-0.1744498908519745,-0.005552531220018864,1.0217761993408203,-1.5544512271881104,-32.821693420410156,21.820581436157227,-0.5864706635475159,-0.844457745552063,-0.2954852283000946,-0.47455745935440063,-0.15488117933273315,-0.38847652077674866
336,289201,289202,-0.12039000540971756,0.09983357042074203,1.0450023412704468,-10.754663467407227,-27.755126953125,20.241310119628906,-0.5894705057144165,-0.8384580612182617,-0.28948551416397095,-0.23036201298236847,-0.19192494451999664,-0.16140486299991608
337,289211,289212,-0.07332859933376312,0.08214392513036728,1.0409616231918335,-15.37688159942627,-18.400299072265625,21.62651252746582,-0.5834708213806152,-0.8264586329460144,-0.2834858298301697,0.1299259215593338,-0.362396240234375,0.044267892837524414
338,289221,289222,-0.1430577039718628,-0.11386623233556747,1.027917504310608,-12.202384948730469,-6.844544887542725,22.700157165527344,-0.5789710283279419,-0.836958110332489,-0.27898603677749634,0.21760164201259613,-0.5131537914276123,0.2649056315422058
339,289231,289232,-0.2761634588241577,-0.16495570540428162,1.0239888429641724,-3.7269365787506104,16.171754837036133,21.837039947509766,-0.5759711861610413,-0.836958110332489,-0.29098543524742126,0.15302489697933197,-0.6747772693634033,0.4858199656009674
340,289241,289242,-0.2651522755622864,-0.19577506184577942,1.030557632446289,-1.1329270601272583,31.044343948364258,18.54183578491211,-0.5759711861610413,-0.8339582681655884,-0.27898603677749634,-0.08141196519136429,-0.7056486010551453,0.6961723566055298
341,289251,289252,-0.1795186698436737,-0.10290543735027313,1.063804268836975,1.7912383079528809,34.066368103027344,16.718425750732422,-0.5834708213806152,-0.8234587907791138,-0.2834858298301697,-0.576162576675415,-0.6299808025360107,0.8906832933425903
342,289261,289262,-0.5504929423332214,-0.3234555125236511,1.0336382389068604,3.484970808029175,26.80614471435547,16.653705596923828,-0.5849707126617432,-0.8399580121040344,-0.28498575091362,-0.8965686559677124,-0.57834792137146,1.0550487041473389
343,289271,289272,-1.0876461267471313,-0.6360090374946594,0.9953321218490601,2.2290382385253906,19.33069610595703,12.166824340820312,-0.5879706144332886,-0.8309584259986877,-0.27298635244369507,-0.9787862300872803,-0.5675673484802246,1.1951777935028076
344,289281,289282,-0.5681835412979126,-0.23137351870536804,0.9985936880111694,1.2173157930374146,11.368691444396973,5.148123741149902,-0.5999699831008911,-0.8309584259986877,-0.28198590874671936,-1.214106798171997,-0.5175988674163818,1.2999225854873657
345,289291,289292,-0.2407236248254776,0.18674613535404205,1.0891649723052979,1.1207283735275269,0.6878530383110046,0.025633960962295532,-0.5909704566001892,-0.8249587416648865,-0.28198590874671936,-1.2212382555007935,-0.48369380831718445,1.3396339416503906
346,289301,289302,-0.04405806213617325,0.0836261659860611,1.0103683471679688,-0.22295567393302917,-9.670624732971191,-3.205364942550659,-0.5954701900482178,-0.8204589486122131,-0.26848655939102173,-1.207450270652771,-0.45881372690200806,1.3377785682678223
347,289311,289312,-0.08613187819719315,-0.21069325506687164,0.9505177140235901,-0.30913570523262024,-15.887724876403809,-7.222930908203125,-0.5999699831008911,-0.836958110332489,-0.28198590874671936,-1.0417468547821045,-0.5156340599060059,1.298661231994629
348,289321,289322,-0.08564962446689606,-0.12005048245191574,1.0056809186935425,7.982293605804443,-22.042770385742188,-7.929898738861084,-0.5939702987670898,-0.8339582681655884,-0.2759861946105957,-0.861842691898346,-0.4839373826980591,1.2322169542312622
349,289331,289332,-0.25866150856018066,-0.2742730379104614,1.0168954133987427,14.049936294555664,-24.709564208984375,-5.655906677246094,-0.5909704566001892,-0.8249587416648865,-0.2759861946105957,-0.6055154204368591,-0.3248646557331085,1.161429524421692
350,289341,289342,-0.38971373438835144,-0.32506510615348816,1.031411051750183,12.758031845092773,-18.05843162536621,-4.998647689819336,-0.5834708213806152,-0.8204589486122131,-0.2744862735271454,-0.2489350140094757,-0.37370565533638,1.0855659246444702
351,289351,289352,-1.0302519798278809,-0.2776261568069458,1.0085302591323853,11.755541801452637,-10.7388334274292,-5.788534641265869,-0.5789710283279419,-0.836958110332489,-0.27298635244369507,-0.19557735323905945,-0.2829228341579437,1.0366522073745728
352,289361,289362,-0.6377410888671875,-0.19425727427005768,0.9768556356430054,13.122184753417969,-6.50700569152832,-5.291355133056641,-0.5789710283279419,-0.8339582681655884,-0.27898603677749634,-0.019794510677456856,-0.04855171591043472,0.985604465007782
353,289371,289372,-0.165962815284729,-0.09908190369606018,0.9424741268157959,10.263884544372559,-2.4669485092163086,-5.700985908508301,-0.5834708213806152,-0.8414579033851624,-0.2864856719970703,0.0028080784250050783,-0.02892202138900757,0.9326936602592468
354,289381,289382,-0.2679590880870819,-0.09527498483657837,0.907711386680603,9.290657043457031,-2.3777921199798584,-4.5542802810668945,-0.5849707126617432,-0.8309584259986877,-0.28198590874671936,-0.04892267286777496,0.03070487082004547,0.8748812079429626
355,289391,289392,-0.3638560175895691,0.001378023880533874,0.9527860283851624,9.067059516906738,0.9784021377563477,-6.670456409454346,-0.5909704566001892,-0.8159592151641846,-0.2759861946105957,-0.047610729932785034,0.21271157264709473,0.8193977475166321
356,289401,289402,-0.91633540391922,-0.08760721981525421,0.998803436756134,12.949234962463379,1.9722471237182617,-7.892094135284424,-0.5834708213806152,-0.8234587907791138,-0.27148643136024475,-0.08252106606960297,0.18889394402503967,0.7497161030769348
357,289411,289412,-0.6663382649421692,0.12734165787696838,1.0902822017669678,18.754728317260742,1.9607776403427124,-8.249690055847168,-0.5669716596603394,-0.8189590573310852,-0.27898603677749634,-0.05727067217230797,0.4423409104347229,0.6696785688400269
358,289421,289422,-0.2645653784275055,0.11092082411050797,1.0232890844345093,19.716516494750977,8.355164527893066,-9.419034004211426,-0.5804709792137146,-0.8384580612182617,-0.277486115694046,-0.12099703401327133,0.5754594206809998,0.5861988663673401
359,289431,289432,-0.11736275255680084,-0.04127911850810051,1.0098141431808472,19.54216194152832,11.128609657287598,-11.10434627532959,-0.5834708213806152,-0.8264586329460144,-0.28948551416397095,-0.2501593828201294,0.7902552485466003,0.48863863945007324
360,289441,289442,-0.26035356521606445,-0.05035283416509628,0.9884019494056702,15.032570838928223,16.785093307495117,-12.862854957580566,-0.5939702987670898,-0.8339582681655884,-0.28498575091362,-0.3452088236808777,0.8540647029876709,0.3844816982746124
361,289451,289452,-0.4713526964187622,-0.1611332893371582,0.9728790521621704,8.265826225280762,15.97433853149414,-13.293792724609375,-0.6044697761535645,-0.8264586329460144,-0.27148643136024475,-0.5801774859428406,0.9639329314231873,0.2583443224430084
362,289461,289462,-1.142176628112793,-0.8579850792884827,0.9819507598876953,-0.10986446589231491,8.958733558654785,-15.500017166137695,-0.5954701900482178,-0.844457745552063,-0.2864856719970703,-0.6547319889068604,1.107574462890625,0.12557415664196014
363,289471,289472,-0.26618391275405884,-0.33930882811546326,0.9664353728294373,-6.582118511199951,10.677340507507324,-17.336606979370117,-0.5939702987670898,-0.8249587416648865,-0.28498575091362,-0.7727807760238647,0.9866652488708496,-0.02886064536869526
364,289481,289482,-0.021723642945289612,0.01042843610048294,0.9055357575416565,-5.946259021759033,-1.4445290565490723,-14.840433120727539,-0.5849707126617432,-0.8249587416648865,-0.28198590874671936,-0.8014369606971741,0.9300817251205444,-0.18742774426937103
365,289491,289492,-0.6656056046485901,-0.010819843038916588,0.9978461861610413,-11.083135604858398,0.5150395631790161,-14.3434476852417,-0.5789710283279419,-0.8339582681655884,-0.2969851493835449,-0.7528007626533508,0.8629289865493774,-0.333089143037796
366,289501,289502,-1.0437278747558594,0.07715554535388947,0.9911615252494812,-16.37824821472168,-0.8834520578384399,-14.083183288574219,-0.5969701409339905,-0.8309584259986877,-0.28198590874671936,-0.718151867389679,0.7057517170906067,-0.46928268671035767
367,289511,289512,-0.30835196375846863,-0.16771230101585388,0.9748036861419678,-20.002452850341797,-5.730775356292725,-12.712944030761719,-0.5909704566001892,-0.8339582681655884,-0.27898603677749634,-0.67287278175354,0.5388160943984985,-0.6014314889907837
368,289521,289522,-0.1324339509010315,-0.38927632570266724,1.0303006172180176,-14.709214210510254,3.020463705062866,-13.51412582397461,-0.5894705057144165,-0.8354582190513611,-0.28948551416397095,-0.6410973072052002,0.3960472047328949,-0.7321949601173401
369,289531,289532,0.07561325281858444,-0.16625113785266876,0.8826324939727783,-5.331517219543457,-7.808662414550781,-11.794184684753418,-0.5804709792137146,-0.8354582190513611,-0.2834858298301697,-0.6114184260368347,0.22530804574489594,-0.8568826913833618
370,289541,289542,-0.09197772294282913,-0.18053549528121948,0.939221978187561,1.0390775203704834,-5.7120866775512695,-12.8993501663208,-0.5804709792137146,-0.8264586329460144,-0.28048595786094666,-0.45751267671585083,0.33623072504997253,-0.9634413719177246
371,289551,289552,-0.1278705596923828,-0.3440450429916382,0.9420801997184753,11.284154891967773,-9.055660247802734,-12.594827651977539,-0.5864706635475159,-0.8414579033851624,-0.2834858298301697,-0.40421074628829956,0.3423760235309601,-1.0903916358947754
372,289561,289562,-0.5255634188652039,-0.6237214207649231,0.945178747177124,12.336071968078613,-2.7279162406921387,-10.57013988494873,-0.5894705057144165,-0.850457489490509,-0.28948551416397095,-0.348418653011322,0.4825496971607208,-1.2097283601760864
373,289571,289572,-0.710370659828186,-0.9465247988700867,0.8629902601242065,12.58105182647705,1.72373366355896,-12.545194625854492,-0.5954701900482178,-0.8534573316574097,-0.2924853563308716,-0.2980767488479614,0.6341286301612854,-1.3136534690856934
374,289581,289582,-0.38100317120552063,-0.5105392336845398,0.8408607244491577,8.650093078613281,-6.2346601486206055,-13.06744384765625,-0.5789710283279419,-0.8549572229385376,-0.29098543524742126,-0.36077484488487244,0.6967916488647461,-1.449260950088501
375,289591,289592,-0.32305651903152466,-0.40407320857048035,0.8589592576026917,4.673742771148682,-5.430334568023682,-17.298311233520508,-0.577471137046814,-0.8594570159912109,-0.28948551416397095,-0.27072396874427795,0.7037230730056763,-1.5822839736938477
376,289601,289602,-0.23099227249622345,-0.4268997013568878,1.0133956670761108,7.2857537269592285,-13.293327331542969,-17.446619033813477,-0.5789710283279419,-0.8699564933776855,-0.2939853072166443,-0.1747228354215622,0.809617280960083,-1.7464065551757812
377,289611,289612,-0.21491993963718414,-0.4650222361087799,1.0132344961166382,3.403559923171997,-4.783567905426025,-17.69721221923828,-0.56997150182724,-0.8699564933776855,-0.28498575091362,-0.0031186104752123356,0.9222663044929504,-1.9130473136901855
378,289621,289622,-0.22786001861095428,-0.21637168526649475,1.0234037637710571,3.181349039077759,-2.7781782150268555,-17.106922149658203,-0.5684715509414673,-0.8804559707641602,-0.28948551416397095,-0.08152952790260315,0.9832233786582947,-2.1103224754333496
379,289631,289632,-0.09873945266008377,-0.0857170969247818,0.9612171649932861,0.6365108489990234,5.46703577041626,-15.439067840576172,-0.5789710283279419,-0.8669566512107849,-0.2969851493835449,-0.07825937122106552,1.0321232080459595,-2.2800824642181396
380,289641,289642,-0.12380056083202362,0.050428617745637894,0.9602084755897522,1.5375183820724487,2.3822226524353027,-16.018449783325195,-0.5759711861610413,-0.8699564933776855,-0.29998499155044556,-0.1861363649368286,1.0602500438690186,-2.443755626678467
381,289651,289652,-0.42339906096458435,-0.18492726981639862,1.129806399345398,-1.8347959518432617,10.33431625366211,-12.896583557128906,-0.5789710283279419,-0.8699564933776855,-0.28798559308052063,-0.21937575936317444,1.005765676498413,-2.589966297149658
382,289661,289662,-0.49662137031555176,-0.16829358041286469,1.105521321296692,-0.7567800879478455,10.284346580505371,-11.422698020935059,-0.5864706635475159,-0.8684565424919128,-0.3014849126338959,-0.3450355529785156,0.9750469326972961,-2.7190768718719482
383,289671,289672,-0.39899998903274536,-0.3425763249397278,1.141508936882019,-8.29375171661377,20.151779174804688,-8.498405456542969,-0.5864706635475159,-0.8534573316574097,-0.28948551416397095,-0.559195339679718,0.9403654336929321,-2.8418562412261963
384,289681,289682,-0.1991114616394043,-0.15460304915905,1.0550484657287598,-8.968984603881836,13.924564361572266,-5.114819526672363,-0.5849707126617432,-0.8549572229385376,-0.2969851493835449,-0.6701290607452393,0.8048052787780762,-2.9025957584381104
385,289691,289692,-0.06428549438714981,-0.13318267464637756,1.0428496599197388,-10.847965240478516,15.984366416931152,-6.872901439666748,-0.5954701900482178,-0.8414579033851624,-0.28948551416397095,-0.721515417098999,0.6462174654006958,-2.9360263347625732
386,289701,289702,-0.10948409885168076,-0.15785738825798035,1.044930338859558,-7.566640853881836,2.1548912525177,-3.9200172424316406,-0.5939702987670898,-0.8429578542709351,-0.2939853072166443,-0.9810550212860107,0.48779356479644775,-3.020928382873535
387,289711,289712,-0.2746596038341522,-0.10656619817018509,1.0498944520950317,-1.2553542852401733,3.906142473220825,-3.239532709121704,-0.5849707126617432,-0.8429578542709351,-0.2969851493835449,-0.9920485019683838,0.40703633427619934,-3.0530471801757812
388,289721,289722,-0.774926483631134,-0.5425113439559937,1.0704519748687744,2.879594326019287,-7.4737701416015625,-1.4686565399169922,-0.5924703478813171,-0.8474575877189636,-0.2834858298301697,-1.039125680923462,0.41002070903778076,-3.086714744567871
389,289731,289732,-0.6587982773780823,-0.45033249258995056,0.9944636225700378,15.303776741027832,-18.62751007080078,-1.3530558347702026,-0.5969701409339905,-0.8489575386047363,-0.28798559308052063,-0.89468914270401,0.5555555820465088,-3.092155933380127
390,289741,289742,-0.2853561043739319,-0.44271039962768555,0.9792277812957764,19.696020126342773,-15.189157485961914,-1.7059099674224854,-0.6029698252677917,-0.8489575386047363,-0.2759861946105957,-0.5987300276756287,0.8101580739021301,-3.0862913131713867
391,289751,289752,-0.3170590400695801,-0.440021812915802,1.029435634613037,31.221664428710938,-19.57149314880371,2.2334280014038086,-0.5909704566001892,-0.8549572229385376,-0.28798559308052063,-0.41074705123901367,1.0897282361984253,-3.0949513912200928
392,289761,289762,-0.5939600467681885,-0.3006611466407776,0.9172994494438171,31.049541473388672,2.698789596557617,3.720789909362793,-0.6044697761535645,-0.8534573316574097,-0.2924853563308716,-0.45149219036102295,1.5211774110794067,-3.1005563735961914
393,289771,289772,-0.46946045756340027,-0.13227999210357666,0.9218612909317017,27.1079044342041,7.215529918670654,8.439735412597656,-0.6119694113731384,-0.851957380771637,-0.26998651027679443,-0.4998460114002228,1.7225921154022217,-3.052125930786133
394,289781,289782,-0.3646768033504486,-0.16891182959079742,0.8983639478683472,5.316224098205566,20.032670974731445,9.514899253845215,-0.6029698252677917,-0.851957380771637,-0.28498575091362,-0.5777748227119446,1.7366560697555542,-2.960963249206543
395,289791,289792,-0.47967615723609924,-0.2490255981683731,0.9669856429100037,-19.645387649536133,17.68204689025879,10.218914031982422,-0.616469144821167,-0.8534573316574097,-0.2864856719970703,-0.7997846603393555,1.7630648612976074,-2.861114025115967
396,289801,289802,-0.17935769259929657,-0.034734681248664856,1.0602631568908691,-40.50144958496094,16.01837158203125,10.161136627197266,-0.5819708704948425,-0.851957380771637,-0.28198590874671936,-1.0594055652618408,1.3969866037368774,-2.779364824295044
397,289811,289812,-0.4482491910457611,0.1338229924440384,1.0462555885314941,-54.272735595703125,15.588540077209473,7.809081077575684,-0.5954701900482178,-0.8474575877189636,-0.2924853563308716,-1.1328599452972412,0.9881643652915955,-2.6628811359405518
398,289821,289822,-0.4406793415546417,-0.14238178730010986,1.087070107460022,-55.48047637939453,0.7098394632339478,11.170473098754883,-0.5954701900482178,-0.8354582190513611,-0.2744862735271454,-1.3115026950836182,0.2510150372982025,-2.598520040512085
399,289831,289832,-0.43457093834877014,0.01575371064245701,1.0660991668701172,-50.60401916503906,-4.980598449707031,9.191506385803223,-0.5849707126617432,-0.8249587416648865,-0.28498575091362,-1.2827608585357666,-0.05871144309639931,-2.4701712131500244
400,289841,289842,-0.6859895586967468,-0.0014379899948835373,1.0188117027282715,-34.91110610961914,-19.860883712768555,11.131298065185547,-0.5969701409339905,-0.8399580121040344,-0.28498575091362,-1.1175795793533325,-0.5537965297698975,-2.3571627140045166
401,289851,289852,-0.4922315180301666,-0.023613935336470604,1.0485402345657349,-15.561625480651855,-27.813711166381836,10.152273178100586,-0.5984700918197632,-0.8234587907791138,-0.2654867172241211,-0.7382117509841919,-0.9263696670532227,-2.2196292877197266
402,289861,289862,-0.2255403697490692,-0.09545359015464783,1.0314042568206787,1.137474775314331,-34.300048828125,10.982882499694824,-0.6029698252677917,-0.8189590573310852,-0.26998651027679443,-0.6037219166755676,-0.857032299041748,-2.124204635620117
403,289871,289872,-0.38962626457214355,-0.1639568954706192,0.9723486304283142,21.581087112426758,-26.438905715942383,8.028141021728516,-0.6134693026542664,-0.8174591064453125,-0.2864856719970703,-0.19725564122200012,-0.7052072286605835,-1.9954379796981812
404,289881,289882,-0.4150579571723938,-0.05776839703321457,1.0180771350860596,37.105995178222656,-13.219841003417969,9.155961990356445,-0.5999699831008911,-0.8219588994979858,-0.2639867961406708,-0.078365258872509,-0.45779553055763245,-1.919006586074829
405,289891,289892,-0.43627074360847473,-0.41356417536735535,1.0521249771118164,43.678367614746094,-2.203895092010498,8.934435844421387,-0.5999699831008911,-0.8219588994979858,-0.2639867961406708,-0.008856288157403469,-0.0031641018576920033,-1.8286552429199219
406,289901,289902,-0.22708965837955475,-0.2275409996509552,0.9626860022544861,46.66301345825195,4.897827625274658,6.869074821472168,-0.5999699831008911,-0.8219588994979858,-0.2639867961406708,0.029496069997549057,0.4893726706504822,-1.7439969778060913
407,289911,289912,-0.30000951886177063,0.07554108649492264,1.0165586471557617,38.26979446411133,6.509516716003418,8.436335563659668,-0.6059696674346924,-0.8279585838317871,-0.27898603677749634,-0.10846075415611267,0.7923787832260132,-1.683824896812439
408,289921,289922,-0.571530818939209,0.04380612075328827,0.9939647316932678,19.37019920349121,9.684617042541504,7.4455342292785645,-0.5954701900482178,-0.8324583768844604,-0.28048595786094666,-0.22019420564174652,1.0746959447860718,-1.6098687648773193
409,289931,289932,-0.6621111631393433,-0.15226811170578003,0.9450196623802185,0.3484077751636505,12.272122383117676,4.7043256759643555,-0.6149692535400391,-0.8309584259986877,-0.28198590874671936,-0.37205764651298523,1.2622076272964478,-1.5444978475570679
410,289941,289942,-0.2743896543979645,-0.21387962996959686,0.9214240312576294,-18.644521713256836,12.341784477233887,4.075934886932373,-0.6014699339866638,-0.8114594221115112,-0.26848655939102173,-0.5427564382553101,1.0821341276168823,-1.498707890510559
411,289951,289952,-0.35532185435295105,-0.662926435470581,0.9449968338012695,-35.91493225097656,8.195503234863281,2.4192466735839844,-0.6089695692062378,-0.8279585838317871,-0.2669866383075714,-0.6263566613197327,0.8024968504905701,-1.4531244039535522
412,289961,289962,-0.38039836287498474,-0.4114590287208557,0.8578989505767822,-49.25065612792969,5.811877727508545,0.16198119521141052,-0.5954701900482178,-0.8084595799446106,-0.28948551416397095,-0.6427674889564514,0.2673012912273407,-1.4273359775543213
413,289971,289972,-0.33700549602508545,-0.14548923075199127,0.8375565409660339,-53.76104736328125,5.615466117858887,-2.4575464725494385,-0.5924703478813171,-0.8084595799446106,-0.2654867172241211,-0.6909792423248291,-0.33408188819885254,-1.4274725914001465
414,289981,289982,-0.250273734331131,-0.1039748340845108,0.9567201137542725,-46.94657897949219,-3.466665506362915,-0.9512097239494324,-0.5879706144332886,-0.8189590573310852,-0.29098543524742126,-0.711295485496521,-0.687243640422821,-1.439886450767517
415,289991,289992,-0.3670617640018463,-0.29244640469551086,1.0124330520629883,-29.76875877380371,-15.319453239440918,-1.3722813129425049,-0.5924703478813171,-0.8084595799446106,-0.28948551416397095,-0.5877043008804321,-1.131678581237793,-1.4439711570739746
416,290001,290002,-0.7254303097724915,-0.06257348507642746,1.0155030488967896,-10.18913745880127,-27.608976364135742,-1.1786797046661377,-0.5804709792137146,-0.8204589486122131,-0.2864856719970703,-0.4044249355792999,-1.2176612615585327,-1.4467586278915405
417,290011,290012,-0.18190911412239075,-0.013049772940576077,0.9693244695663452,6.1895976066589355,-29.429443359375,-2.559460401535034,-0.5924703478813171,-0.8264586329460144,-0.2654867172241211,0.015501858666539192,-1.3517978191375732,-1.4506908655166626
418,290021,290022,-0.14553125202655792,-0.00840871874243021,1.001471996307373,18.522336959838867,-23.70379066467285,-2.716456651687622,-0.5819708704948425,-0.8309584259986877,-0.28198590874671936,0.36031290888786316,-1.078214406967163,-1.4679993391036987
419,290031,290032,-0.5590615272521973,-0.09895244985818863,0.9523683786392212,23.714107513427734,-11.884573936462402,-4.3573994636535645,-0.5834708213806152,-0.8264586329460144,-0.28048595786094666,0.3195384442806244,-0.8529027104377747,-1.4897443056106567
420,290041,290042,-0.2553573548793793,-0.03540884703397751,1.019850492477417,24.661970138549805,0.13005219399929047,-7.60506534576416,-0.5864706635475159,-0.8264586329460144,-0.28048595786094666,0.45296937227249146,-0.6193788051605225,-1.5407911539077759
421,290051,290052,-0.36036935448646545,-0.054716940969228745,0.991930365562439,22.788084030151367,9.318459510803223,-12.363276481628418,-0.5969701409339905,-0.8249587416648865,-0.29098543524742126,0.3931829035282135,-0.3649338185787201,-1.6236066818237305
422,290061,290062,-1.334864854812622,-0.11001051962375641,0.9444066882133484,19.904870986938477,15.358207702636719,-16.365957260131836,-0.5894705057144165,-0.8294585347175598,-0.28048595786094666,0.24580171704292297,-0.16099141538143158,-1.7500441074371338
423,290071,290072,-1.0800365209579468,-0.22179937362670898,0.9564788937568665,17.751028060913086,15.54489517211914,-17.837181091308594,-0.5819708704948425,-0.8069596290588379,-0.27298635244369507,0.031737200915813446,0.0108186025172472,-1.9083278179168701
424,290081,290082,-0.7398431301116943,-0.6789282560348511,0.8717923760414124,12.78451156616211,12.316740989685059,-17.451793670654297,-0.5939702987670898,-0.8339582681655884,-0.27298635244369507,-0.15989358723163605,0.13191145658493042,-2.078094005584717
425,290091,290092,-0.8380393981933594,-0.5866608619689941,0.8787254095077515,1.612347960472107,2.249577283859253,-17.7961368560791,-0.5849707126617432,-0.8249587416648865,-0.26998651027679443,-0.271975040435791,0.2949208915233612,-2.256844997406006
426,290101,290102,-0.5267989039421082,-0.41841861605644226,0.9947158098220825,-5.687859058380127,-8.254633903503418,-18.314096450805664,-0.5909704566001892,-0.8279585838317871,-0.2759861946105957,-0.15408256649971008,0.22838902473449707,-2.440075397491455
427,290111,290112,-0.48486149311065674,-0.10534154623746872,0.9772347211837769,-10.842052459716797,-15.5880708694458,-19.802597045898438,-0.5834708213806152,-0.8324583768844604,-0.2654867172241211,0.01831742934882641,0.059302348643541336,-2.622915744781494
428,290121,290122,-0.8649905323982239,-0.3101968467235565,1.0281000137329102,-13.036367416381836,-19.524337768554688,-20.108592987060547,-0.5879706144332886,-0.8339582681655884,-0.28498575091362,0.1577024906873703,-0.04228074476122856,-2.821532964706421
429,290131,290132,-0.38202914595603943,-0.6409764289855957,0.9875217080116272,-10.402359008789062,-18.426288604736328,-21.54510498046875,-0.5819708704948425,-0.8309584259986877,-0.29098543524742126,0.42324212193489075,-0.17983488738536835,-3.0283029079437256
430,290141,290142,-0.6769096255302429,-0.5868747234344482,0.9849141240119934,-4.244826793670654,-18.356836318969727,-21.104408264160156,-0.5984700918197632,-0.8264586329460144,-0.2834858298301697,0.47547146677970886,-0.33188390731811523,-3.2292816638946533
431,290151,290152,-0.45740219950675964,-0.35630321502685547,0.9681650996208191,4.8813300132751465,-14.76897144317627,-20.548404693603516,-0.5744712948799133,-0.8234587907791138,-0.2864856719970703,0.7382286190986633,-0.31084978580474854,-3.4470365047454834
432,290161,290162,-0.414292573928833,-0.5880273580551147,0.9105640053749084,14.302544593811035,-12.89389705657959,-18.23856544494629,-0.5954701900482178,-0.8204589486122131,-0.26848655939102173,0.9519702792167664,-0.20695316791534424,-3.658228635787964
433,290171,290172,-0.1987771838903427,-0.6247406005859375,1.0024101734161377,18.499418258666992,-0.661906898021698,-15.59016227722168,-0.5879706144332886,-0.8189590573310852,-0.2759861946105957,0.8822953701019287,0.04728829115629196,-3.83846116065979
434,290181,290182,-0.09840560704469681,-0.13239924609661102,1.0360056161880493,21.539567947387695,4.937546253204346,-13.696818351745605,-0.5969701409339905,-0.8219588994979858,-0.27898603677749634,0.9015349745750427,0.3613653779029846,-4.007917881011963
435,290191,290192,-0.4093278646469116,-0.09903178364038467,0.9840732216835022,15.495409965515137,9.540413856506348,-11.136467933654785,-0.5954701900482178,-0.8264586329460144,-0.277486115694046,0.824584424495697,0.6936277151107788,-4.155801296234131
436,290201,290202,-0.581703782081604,-0.3270334303379059,0.9676581025123596,4.8667731285095215,12.910043716430664,-10.223615646362305,-0.5894705057144165,-0.8174591064453125,-0.27148643136024475,0.6757038831710815,0.5588107705116272,-4.219080448150635
437,290211,290212,-0.5350273847579956,-0.12899155914783478,0.9905641078948975,-10.828468322753906,15.368680000305176,-8.935025215148926,-0.6014699339866638,-0.8114594221115112,-0.28048595786094666,0.5820968747138977,0.5836026072502136,-4.3201069831848145
438,290221,290222,-1.2122056484222412,-0.04217345640063286,0.9611583948135376,-20.3206844329834,12.60416030883789,-9.786470413208008,-0.5879706144332886,-0.8189590573310852,-0.27298635244369507,0.451082319021225,0.3834747076034546,-4.4004597663879395
439,290231,290232,-0.9186612367630005,-0.5115444660186768,0.9913023710250854,-22.228227615356445,8.770964622497559,-10.523659706115723,-0.5969701409339905,-0.8429578542709351,-0.28498575091362,0.46828314661979675,0.26212990283966064,-4.517444133758545
440,290241,290242,-0.759591281414032,-0.9708261489868164,0.9747594594955444,-14.777304649353027,6.091334342956543,-11.748766899108887,-0.5894705057144165,-0.8234587907791138,-0.2834858298301697,0.12617532908916473,-0.023547736927866936,-4.608957290649414
441,290251,290252,-0.6149196028709412,-0.8748708963394165,0.9532173275947571,-3.5757181644439697,-0.6409744024276733,-12.60340690612793,-0.6059696674346924,-0.8219588994979858,-0.2639867961406708,0.1636362373828888,-0.1886555403470993,-4.7245306968688965
442,290261,290262,-0.7649659514427185,-0.45718884468078613,1.050538420677185,12.767773628234863,-5.697541236877441,-10.061930656433105,-0.5999699831008911,-0.8279585838317871,-0.27898603677749634,0.30537182092666626,-0.12911318242549896,-4.859395980834961
443,290271,290272,-0.7234008312225342,-0.1456005871295929,1.0101016759872437,29.537185668945312,-4.915505409240723,-6.78819465637207,-0.5939702987670898,-0.8249587416648865,-0.28798559308052063,0.2666102647781372,0.118074931204319,-4.970705986022949
444,290281,290282,-0.7588527798652649,-0.1296258419752121,0.9942445755004883,39.131072998046875,-3.948272228240967,-3.9587900638580322,-0.6149692535400391,-0.8249587416648865,-0.27298635244369507,0.3531903922557831,0.6072055101394653,-5.065746307373047
445,290291,290292,-0.48734986782073975,-0.38383883237838745,0.9903857707977295,38.65033721923828,-2.0994930267333984,-1.309523344039917,-0.616469144821167,-0.8384580612182617,-0.27148643136024475,0.013363940641283989,1.0747876167297363,-5.1104912757873535
446,290301,290302,-0.4677843749523163,-0.4456979036331177,0.9550321698188782,27.7778377532959,-4.289738178253174,0.8432620167732239,-0.6134693026542664,-0.8354582190513611,-0.2744862735271454,0.11077467352151871,1.372641682624817,-5.112370491027832
447,290311,290312,-0.8477228879928589,-0.2919468879699707,0.9301869869232178,16.569259643554688,-11.711730003356934,3.850038528442383,-0.6179690957069397,-0.8339582681655884,-0.28798559308052063,0.22126242518424988,1.6429076194763184,-5.099904537200928
448,290321,290322,-0.3665666878223419,-0.18808813393115997,0.9322248101234436,0.549298882484436,-11.944801330566406,7.180406093597412,-0.5999699831008911,-0.8339582681655884,-0.28198590874671936,0.33101189136505127,1.8298767805099487,-5.065872669219971
449,290331,290332,-0.11411424726247787,-0.4218425154685974,0.959994912147522,-15.72083568572998,-13.747081756591797,10.438057899475098,-0.6134693026542664,-0.8204589486122131,-0.27148643136024475,0.4902817904949188,1.5679893493652344,-4.956870079040527
450,290341,290342,-0.38096708059310913,-0.13059726357460022,0.9700282216072083,-27.169689178466797,-9.212939262390137,12.068266868591309,-0.5909704566001892,-0.8219588994979858,-0.27898603677749634,0.5917108654975891,1.265784502029419,-4.835459232330322
451,290351,290352,-0.3400930166244507,-0.17983007431030273,0.9759729504585266,-38.562259674072266,-5.485434055328369,12.047633171081543,-0.5864706635475159,-0.8324583768844604,-0.28048595786094666,0.7965912818908691,1.0430620908737183,-4.718014717102051
452,290361,290362,-0.7476564049720764,-0.19811426103115082,0.9651643633842468,-42.609962463378906,-2.7132315635681152,11.161417007446289,-0.5924703478813171,-0.844457745552063,-0.28048595786094666,0.7071117162704468,0.5992850065231323,-4.609655857086182
453,290371,290372,-0.5828806757926941,-0.024548880755901337,1.0359172821044922,-41.783302307128906,-0.6646516919136047,11.05270004272461,-0.577471137046814,-0.8264586329460144,-0.2864856719970703,0.7731221318244934,0.2503233253955841,-4.504927635192871
454,290381,290382,-0.3986206650733948,-0.15444953739643097,1.001222014427185,-35.03994369506836,0.9326927661895752,10.394104957580566,-0.5834708213806152,-0.8264586329460144,-0.2834858298301697,0.6588136553764343,-0.23837487399578094,-4.3974833488464355
455,290391,290392,-0.4624493718147278,-0.14637190103530884,0.9576202034950256,-22.709232330322266,0.5511066913604736,9.4605131149292,-0.5849707126617432,-0.8339582681655884,-0.27898603677749634,0.6908509731292725,-0.4651043713092804,-4.309239864349365
456,290401,290402,-0.37905824184417725,-0.1084885448217392,1.0051701068878174,-5.841571807861328,2.4897918701171875,9.686492919921875,-0.577471137046814,-0.8174591064453125,-0.277486115694046,0.6441646814346313,-0.689189076423645,-4.2128119468688965
457,290411,290412,-0.2856524586677551,-0.2832731008529663,0.9851621389389038,11.14261245727539,2.442030429840088,9.63566780090332,-0.6014699339866638,-0.8414579033851624,-0.28048595786094666,0.5780572891235352,-0.7031629681587219,-4.12352180480957
458,290421,290422,-0.023453788831830025,-0.1381819099187851,0.9880279302597046,19.314926147460938,0.47036078572273254,8.99780559539795,-0.577471137046814,-0.8294585347175598,-0.28048595786094666,0.6026820540428162,-0.4631902575492859,-4.0450439453125
459,290431,290432,-0.29535970091819763,-0.37005019187927246,1.0889683961868286,21.945411682128906,-1.7743860483169556,9.201849937438965,-0.5909704566001892,-0.8459576964378357,-0.28498575091362,0.5828310251235962,-0.17057350277900696,-3.9708669185638428
460,290441,290442,-1.1073054075241089,-0.4497438967227936,1.0290541648864746,13.603519439697266,-3.45963716506958,8.71315860748291,-0.5969701409339905,-0.8309584259986877,-0.26998651027679443,0.6643093228340149,0.0602719746530056,-3.8802549839019775
461,290451,290452,-0.7543861269950867,-0.1653032749891281,0.9606345891952515,-0.9675286412239075,-4.935410499572754,6.666411876678467,-0.5804709792137146,-0.8354582190513611,-0.277486115694046,0.6896243095397949,0.07178975641727448,-3.7795968055725098
462,290461,290462,-0.45525214076042175,-0.2435937523841858,0.9715781807899475,-15.582913398742676,-5.168400764465332,4.784311771392822,-0.5789710283279419,-0.836958110332489,-0.2759861946105957,0.8034836053848267,-0.0012942474568262696,-3.707921266555786
463,290471,290472,-0.5878889560699463,-0.2455965280532837,0.9683958888053894,-31.634157180786133,-1.9141167402267456,2.9827263355255127,-0.562471866607666,-0.8234587907791138,-0.2834858298301697,0.6906696557998657,-0.3242492079734802,-3.639049530029297
464,290481,290482,-0.18149787187576294,-0.10818469524383545,0.9804595112800598,-39.13890075683594,3.7329320907592773,0.0046186065301299095,-0.577471137046814,-0.8264586329460144,-0.28948551416397095,0.7385877966880798,-0.8051842451095581,-3.5853192806243896
465,290491,290492,-0.2886922061443329,-0.11118868738412857,0.9635856747627258,-37.46201705932617,7.617272853851318,-1.9991381168365479,-0.56997150182724,-0.8189590573310852,-0.27898603677749634,0.6925745606422424,-1.1023658514022827,-3.6054654121398926
466,290501,290502,-0.21670985221862793,-0.31456688046455383,1.0124995708465576,-27.12229347229004,7.719613552093506,-4.885160446166992,-0.56997150182724,-0.8219588994979858,-0.28498575091362,0.5969755053520203,-1.5737041234970093,-3.6113786697387695
467,290511,290512,-0.24721968173980713,-0.44206783175468445,1.0497506856918335,-7.958660125732422,2.8655481338500977,-9.172147750854492,-0.5864706635475159,-0.8234587907791138,-0.2834858298301697,0.5255807042121887,-1.5654003620147705,-3.716771364212036
468,290521,290522,-0.21828334033489227,-0.2570178210735321,1.0179080963134766,15.209855079650879,-0.6908345222473145,-12.233160018920898,-0.5849707126617432,-0.8309584259986877,-0.26998651027679443,0.5224304795265198,-1.6618255376815796,-3.805623769760132
469,290531,290532,-0.34493669867515564,-0.36683389544487,1.0198616981506348,32.0098762512207,-3.986508846282959,-15.869356155395508,-0.5789710283279419,-0.8309584259986877,-0.2759861946105957,0.5723822712898254,-1.3913298845291138,-3.9497525691986084
470,290541,290542,-0.5961969494819641,-0.51413893699646,1.025673270225525,38.81513977050781,-7.7553863525390625,-18.864355087280273,-0.6044697761535645,-0.8324583768844604,-0.277486115694046,0.6185756325721741,-1.0875346660614014,-4.106804847717285
471,290551,290552,-0.17756164073944092,-0.2825242280960083,0.9629873633384705,36.42434310913086,-8.542603492736816,-20.88668441772461,-0.5879706144332886,-0.8399580121040344,-0.28798559308052063,0.7979041337966919,-0.608810305595398,-4.325598239898682
