,timestamp_start,timestamp_end,acc.x,acc.y,acc.z,gyro.x,gyro.y,gyro.z,mag.x,mag.y,mag.z,stabilizer.pitch,stabilizer.roll,stabilizer.yaw
0,3749272,3749274,-0.6320066452026367,-0.7287744879722595,0.9636868834495544,-1.9823788404464722,-2.6137025356292725,4.747724533081055,-0.5819708704948425,-0.8219588994979858,-0.2759861946105957,-1.0021617412567139,-1.0547839403152466,-2.1817946434020996
1,3749282,3749284,-0.08580882102251053,-0.33218449354171753,0.9750514030456543,11.56749439239502,-3.5310096740722656,4.606162071228027,-0.5759711861610413,-0.8279585838317871,-0.2969851493835449,-0.8888972997665405,-0.9722642302513123,-2.1250855922698975
2,3749292,3749294,0.06302639842033386,-0.1710362732410431,0.9679937958717346,21.06781768798828,-6.778261184692383,3.518437147140503,-0.5834708213806152,-0.8384580612182617,-0.3044847846031189,-0.7583667039871216,-0.7113988995552063,-2.0679891109466553
3,3749302,3749304,-0.012246194295585155,-0.19018875062465668,0.968081533908844,28.451858520507812,-10.724721908569336,3.8188529014587402,-0.577471137046814,-0.8474575877189636,-0.3044847846031189,-0.583793580532074,-0.38937610387802124,-2.02772855758667
4,3749312,3749314,-0.17201411724090576,-0.3470541834831238,0.955680251121521,28.1154727935791,-12.74010181427002,3.218066930770874,-0.577471137046814,-0.8474575877189636,-0.3044847846031189,-0.39675840735435486,0.04682858660817146,-1.985374927520752
5,3749322,3749324,-1.008530616760254,-0.31239622831344604,0.9772299528121948,22.479284286499023,-17.12818717956543,3.3801076412200928,-0.577471137046814,-0.8474575877189636,-0.3044847846031189,-0.15630434453487396,0.1676899790763855,-1.9850060939788818
6,3749332,3749334,-0.23427888751029968,-0.21122543513774872,1.0095146894454956,12.74697494506836,-16.877775192260742,3.83079195022583,-0.577471137046814,-0.8474575877189636,-0.3044847846031189,0.10766545683145523,0.3835380971431732,-1.9563146829605103
7,3749342,3749344,-0.7441693544387817,-0.8794645667076111,0.9813016057014465,0.7255696654319763,-14.638776779174805,3.6809141635894775,-0.5729713439941406,-0.8249587416648865,-0.3059847056865692,0.2800348997116089,0.4990772008895874,-1.9202390909194946
8,3749352,3749354,-0.4512109160423279,-0.3910776674747467,1.0354503393173218,-10.773626327514648,-9.806108474731445,3.923308849334717,-0.5579720735549927,-0.8339582681655884,-0.30898454785346985,0.4227067828178406,0.43272602558135986,-1.8788903951644897
9,3749362,3749364,-0.630169689655304,-0.06424427032470703,0.9938289523124695,-17.263593673706055,-2.4767298698425293,4.126469612121582,-0.554972231388092,-0.8399580121040344,-0.29998499155044556,0.2682785391807556,0.5540939569473267,-1.821256399154663
10,3749372,3749374,-0.5751898288726807,-0.07131032645702362,0.96828293800354,-17.998586654663086,5.125190734863281,4.071419715881348,-0.5504724383354187,-0.8354582190513611,-0.2924853563308716,0.4834626019001007,-1.1303294897079468,-1.7627884149551392
11,3749382,3749384,-0.43052104115486145,-0.5620633959770203,1.0094501972198486,-16.514251708984375,8.992431640625,4.094037055969238,-0.5609719157218933,-0.8309584259986877,-0.2969851493835449,0.38134390115737915,-1.2593436241149902,-1.7205270528793335
12,3749392,3749394,-0.3999571204185486,-0.4976402223110199,0.9988757371902466,-9.806583404541016,10.141559600830078,4.112036228179932,-0.5399730205535889,-0.8309584259986877,-0.2969851493835449,0.2400645613670349,-1.2773866653442383,-1.685241460800171
13,3749402,3749404,-0.12697690725326538,-0.28550252318382263,1.0030770301818848,6.361311435699463,10.477690696716309,3.739424467086792,-0.562471866607666,-0.8234587907791138,-0.28948551416397095,0.1545068472623825,-1.206237554550171,-1.6601283550262451
14,3749412,3749414,-0.15933358669281006,-0.09238149970769882,0.9984599351882935,23.808740615844727,8.70932388305664,3.612783432006836,-0.5684715509414673,-0.8204589486122131,-0.3014849126338959,0.008152181282639503,-0.8214701414108276,-1.642940878868103
15,3749422,3749424,-0.25954872369766235,0.0712907463312149,0.9825234413146973,37.337772369384766,6.14697790145874,2.8162927627563477,-0.5669716596603394,-0.8309584259986877,-0.28798559308052063,-0.039218734949827194,-0.41594213247299194,-1.6284923553466797
16,3749432,3749434,-0.00693008117377758,-0.06935540586709976,0.9760958552360535,44.72605514526367,1.8968614339828491,3.0913639068603516,-0.5669716596603394,-0.8429578542709351,-0.29098543524742126,-0.10287326574325562,0.14549995958805084,-1.6147042512893677
17,3749442,3749444,-0.17395973205566406,-0.01114892028272152,0.9919971823692322,42.63698959350586,-1.501076102256775,2.4956319332122803,-0.554972231388092,-0.836958110332489,-0.2969851493835449,-0.10675038397312164,0.6146156787872314,-1.590843677520752
18,3749452,3749454,-0.3444647192955017,0.030019886791706085,0.9643409252166748,34.18133544921875,-5.617960453033447,2.3247501850128174,-0.5654717087745667,-0.850457489490509,-0.30748462677001953,-0.04762187600135803,1.2797911167144775,-1.588561773300171
19,3749462,3749464,-0.18399126827716827,-0.16438840329647064,0.9739556908607483,18.21656608581543,-8.547225952148438,2.7435383796691895,-0.562471866607666,-0.8474575877189636,-0.3014849126338959,-0.07256825268268585,1.3991516828536987,-1.5472956895828247
20,3749472,3749474,-0.09376518428325653,-0.10472636669874191,0.9969155192375183,2.4198920726776123,-9.008028030395508,2.5610153675079346,-0.5729713439941406,-0.8639568090438843,-0.3059847056865692,0.0745222419500351,1.353366732597351,-1.5101431608200073
21,3749482,3749484,-0.11367374658584595,-0.39471742510795593,0.9879181385040283,-12.718099594116211,-8.010875701904297,2.970087766647339,-0.577471137046814,-0.8384580612182617,-0.30748462677001953,0.21585358679294586,1.3483079671859741,-1.4847947359085083
22,3749492,3749494,-0.051263999193906784,-0.413366436958313,0.9797200560569763,-20.83835792541504,-6.43538236618042,2.439453363418579,-0.5444727540016174,-0.844457745552063,-0.31048446893692017,0.26137644052505493,1.3504687547683716,-1.4706971645355225
23,3749502,3749504,-0.041211292147636414,-0.025003334507346153,0.9999462962150574,-24.28594398498535,-1.9983934164047241,2.3357417583465576,-0.5444727540016174,-0.8354582190513611,-0.30748462677001953,0.33341729640960693,1.0979715585708618,-1.445062518119812
24,3749512,3749514,-0.0014349962584674358,-0.030787751078605652,1.0042213201522827,-22.671255111694336,2.576133966445923,2.345200538635254,-0.5594720244407654,-0.8414579033851624,-0.2954852283000946,0.3365322947502136,0.8916056752204895,-1.428833246231079
25,3749522,3749524,0.033302903175354004,-0.05207657814025879,0.9701326489448547,-14.86215591430664,5.127016544342041,2.8289108276367188,-0.5579720735549927,-0.836958110332489,-0.2969851493835449,0.15283139050006866,0.6782517433166504,-1.4207684993743896
26,3749532,3749534,0.01738232560455799,-0.12331341952085495,1.0085431337356567,-6.3553466796875,9.430310249328613,2.0431783199310303,-0.5594720244407654,-0.8474575877189636,-0.3014849126338959,0.07392270117998123,0.7254416346549988,-1.4146184921264648
27,3749542,3749544,-0.21137909591197968,-0.3133682608604431,1.0174295902252197,3.4155101776123047,9.52264404296875,2.3176019191741943,-0.5564721822738647,-0.8414579033851624,-0.3044847846031189,-0.051209963858127594,0.6901732087135315,-1.3981729745864868
28,3749552,3749554,-0.5424041748046875,-0.5324263572692871,1.0090851783752441,9.253559112548828,7.274820804595947,1.9154211282730103,-0.577471137046814,-0.850457489490509,-0.3044847846031189,-0.02593095786869526,1.0489071607589722,-1.395896315574646
29,3749562,3749564,-0.4065338373184204,-0.10786204040050507,0.9979468584060669,11.61349105834961,3.0717265605926514,1.9880421161651611,-0.5564721822738647,-0.8414579033851624,-0.29848507046699524,-0.09473427385091782,1.1802328824996948,-1.3785691261291504
30,3749572,3749574,-0.1251155138015747,-0.3128998875617981,1.0090731382369995,9.72703742980957,0.29146942496299744,2.1294429302215576,-0.5654717087745667,-0.8474575877189636,-0.3044847846031189,-0.10832693427801132,1.2494481801986694,-1.3530806303024292
31,3749582,3749584,-0.15668223798274994,-0.1917274445295334,1.0076415538787842,2.1204633712768555,-1.927976369857788,2.8548476696014404,-0.554972231388092,-0.8429578542709351,-0.3059847056865692,-0.14811939001083374,1.3215118646621704,-1.3342798948287964
32,3749592,3749594,-0.407999187707901,-0.40581050515174866,1.004225254058838,-6.1680908203125,-4.947874546051025,2.880073308944702,-0.5669716596603394,-0.8489575386047363,-0.3029848337173462,-0.15105575323104858,1.266539216041565,-1.3042806386947632
33,3749602,3749604,-0.5760499238967896,-0.8470478653907776,1.0083482265472412,-15.323844909667969,-5.369783401489258,3.6596765518188477,-0.5684715509414673,-0.8264586329460144,-0.2924853563308716,-0.1072840690612793,1.0790479183197021,-1.2678236961364746
34,3749612,3749614,-0.3463901877403259,-0.8659999370574951,1.0059477090835571,-22.488792419433594,-5.8690385818481445,3.641037940979004,-0.5669716596603394,-0.8399580121040344,-0.2939853072166443,-0.053556039929389954,1.0389186143875122,-1.242419719696045
35,3749622,3749624,-0.1421477347612381,-0.3284197449684143,1.0186853408813477,-23.965139389038086,-2.8438403606414795,3.792419195175171,-0.562471866607666,-0.8264586329460144,-0.3014849126338959,0.04719270393252373,0.7095120549201965,-1.1933447122573853
36,3749632,3749634,-0.2714298963546753,-0.802771270275116,0.9883818030357361,-24.343984603881836,-0.4239511489868164,3.671074390411377,-0.5519723892211914,-0.8129593133926392,-0.2969851493835449,0.0996222048997879,0.5000659823417664,-1.1545881032943726
37,3749642,3749644,-0.013156997971236706,-0.16410855948925018,0.9861003756523132,-17.50209617614746,-1.945296287536621,3.6783394813537598,-0.5534723401069641,-0.8294585347175598,-0.29848507046699524,0.12316031008958817,0.19195561110973358,-1.1126035451889038
38,3749652,3749654,-0.058350060135126114,-0.12391771376132965,0.9973886013031006,-10.44017219543457,0.9311448931694031,3.8190596103668213,-0.5759711861610413,-0.8309584259986877,-0.29998499155044556,0.14584310352802277,0.06814378499984741,-1.0806344747543335
39,3749662,3749664,-0.49310868978500366,-0.4033074378967285,0.9787374138832092,-3.592332363128662,1.704972267150879,3.721564769744873,-0.5534723401069641,-0.8174591064453125,-0.2954852283000946,0.1403699368238449,0.05051356926560402,-1.048633098602295
40,3749672,3749674,-0.16231471300125122,-0.16872861981391907,1.0102922916412354,2.107369899749756,2.728376865386963,2.902841567993164,-0.5594720244407654,-0.8144592642784119,-0.29848507046699524,0.11486931145191193,-0.07236897945404053,-1.0079267024993896
41,3749682,3749684,-0.10296249389648438,-0.027265947312116623,0.9877692461013794,6.56687068939209,1.6169661283493042,2.992847204208374,-0.5579720735549927,-0.8189590573310852,-0.2969851493835449,0.09007205814123154,-0.036068473011255264,-0.9791445136070251
42,3749692,3749694,-0.040276773273944855,0.01329856552183628,0.9855563640594482,4.623250961303711,1.722565770149231,2.928554058074951,-0.562471866607666,-0.8264586329460144,-0.2954852283000946,0.06673160940408707,0.2913128137588501,-0.9712847471237183
43,3749702,3749704,-0.053698502480983734,-0.10222169756889343,0.9871215224266052,3.808176279067993,-0.02164704166352749,2.7593843936920166,-0.5579720735549927,-0.8339582681655884,-0.29098543524742126,0.06107189878821373,0.30749109387397766,-0.9410489797592163
44,3749712,3749714,0.10500940680503845,-0.36190301179885864,1.0010592937469482,-2.258265495300293,-1.4784678220748901,3.0239789485931396,-0.5654717087745667,-0.8384580612182617,-0.2954852283000946,0.07914095371961594,0.3456999659538269,-0.9141477942466736
45,3749722,3749724,-0.06710510700941086,-0.19342754781246185,0.9894185662269592,-7.825267314910889,-2.261092185974121,2.228252410888672,-0.5684715509414673,-0.8234587907791138,-0.3044847846031189,0.11312772333621979,0.2224505990743637,-0.8759003281593323
46,3749732,3749734,-0.23454688489437103,-0.06897512078285217,0.9958934187889099,-13.907307624816895,-2.4887595176696777,2.039976119995117,-0.56997150182724,-0.8279585838317871,-0.3029848337173462,0.09570156782865524,0.2844892144203186,-0.8664417266845703
47,3749742,3749744,-0.6798589825630188,-0.12233427166938782,0.9733949303627014,-18.618358612060547,-2.1806018352508545,2.5123448371887207,-0.5579720735549927,-0.8159592151641846,-0.29098543524742126,0.14585517346858978,-0.02582593820989132,-0.8328323364257812
48,3749752,3749754,-0.7329079508781433,-0.2240583747625351,1.0003050565719604,-19.49517250061035,-1.2530714273452759,2.06148362159729,-0.5609719157218933,-0.8159592151641846,-0.2969851493835449,-0.01861877366900444,-0.09815441071987152,-0.8232312798500061
49,3749762,3749764,-0.4860374927520752,-0.13994663953781128,1.0034548044204712,-18.029741287231445,-0.8890265822410583,2.3077192306518555,-0.5474725961685181,-0.8144592642784119,-0.28948551416397095,0.09613456577062607,-0.5184291005134583,-0.7829859256744385
50,3749772,3749774,-0.3029199242591858,-0.21861763298511505,0.9921175837516785,-14.863412857055664,1.9032824039459229,1.91402268409729,-0.577471137046814,-0.8174591064453125,-0.2864856719970703,0.10836707055568695,-0.7522289752960205,-0.7560777068138123
51,3749782,3749784,-0.3691340386867523,-0.1421649158000946,0.9888947606086731,-7.231472969055176,0.8146942257881165,1.9882572889328003,-0.554972231388092,-0.8249587416648865,-0.29098543524742126,0.034495290368795395,-0.7591337561607361,-0.745612382888794
52,3749792,3749794,-0.2747163772583008,-0.4015628695487976,0.9795351624488831,-0.2978367209434509,1.4801204204559326,1.5404326915740967,-0.5594720244407654,-0.8204589486122131,-0.2864856719970703,0.04011652618646622,-0.8637600541114807,-0.7232823371887207
53,3749802,3749804,-0.6505464911460876,-0.23808452486991882,0.99386066198349,5.776372909545898,1.0033905506134033,0.8238722085952759,-0.5684715509414673,-0.80545973777771,-0.2864856719970703,0.03956836462020874,-0.7903262972831726,-0.7138226628303528
54,3749812,3749814,-0.5839789509773254,-0.07753075659275055,0.9703987240791321,10.637441635131836,-0.9402884840965271,1.0180835723876953,-0.5714713931083679,-0.8204589486122131,-0.29848507046699524,0.19174858927726746,-0.7678368091583252,-0.7115478515625
55,3749822,3749824,-0.11078637093305588,-0.11867725849151611,0.9941574931144714,10.080029487609863,-1.8140144348144531,0.7083526253700256,-0.5729713439941406,-0.8159592151641846,-0.2939853072166443,0.21136729419231415,-0.7714040875434875,-0.6964243054389954
56,3749832,3749834,-0.75566565990448,-0.28766486048698425,0.9757935404777527,8.745112419128418,-2.878032684326172,1.1393049955368042,-0.5714713931083679,-0.8114594221115112,-0.2954852283000946,0.24526000022888184,-0.9066785573959351,-0.673102617263794
57,3749842,3749844,-0.407585471868515,-0.11084651947021484,0.99888014793396,4.115138530731201,-2.629288911819458,0.6979565620422363,-0.5609719157218933,-0.8099594712257385,-0.28198590874671936,0.2790696322917938,-0.7947571277618408,-0.666425347328186
58,3749852,3749854,-0.16856907308101654,-0.048724234104156494,0.9791439175605774,2.0940804481506348,-2.229886770248413,0.8234217762947083,-0.5519723892211914,-0.8159592151641846,-0.28498575091362,0.3101966381072998,-0.7340325117111206,-0.6624119281768799
59,3749862,3749864,-0.14876970648765564,-0.1142120510339737,0.9940649271011353,1.5173614025115967,-1.2299506664276123,1.1028751134872437,-0.5639718174934387,-0.8099594712257385,-0.27298635244369507,0.1275046467781067,-0.7001702785491943,-0.6318344473838806
60,3749872,3749874,-0.1456436663866043,0.02451225556433201,0.9764923453330994,0.7223867774009705,0.6215546131134033,1.8501309156417847,-0.554972231388092,-0.8099594712257385,-0.28498575091362,0.27562838792800903,-0.6773631572723389,-0.6390217542648315
61,3749882,3749884,-0.09283583611249924,-0.1348777711391449,0.9731889963150024,2.3344380855560303,1.9839898347854614,1.639389157295227,-0.5489725470542908,-0.8159592151641846,-0.2969851493835449,0.386813759803772,-0.6524747610092163,-0.6393875479698181
62,3749892,3749894,0.022636758163571358,-0.45491641759872437,0.9685741662979126,4.921105861663818,3.7581875324249268,1.6882163286209106,-0.5579720735549927,-0.8249587416648865,-0.29098543524742126,0.328303724527359,-0.600843608379364,-0.6201951503753662
63,3749902,3749904,-0.0067648692056536674,-0.24795174598693848,0.9749205112457275,6.196322917938232,4.6939239501953125,1.7030221223831177,-0.5684715509414673,-0.8084595799446106,-0.2864856719970703,0.18599803745746613,-0.5180389285087585,-0.593224048614502
64,3749912,3749914,-0.02178080938756466,-0.07150159776210785,0.9648833870887756,7.554620265960693,5.40652322769165,1.5499851703643799,-0.5609719157218933,-0.8219588994979858,-0.2969851493835449,0.1740015149116516,-0.41361311078071594,-0.5849325060844421
65,3749922,3749924,-0.2703993618488312,-0.056863341480493546,0.9847899079322815,7.184018611907959,5.562183856964111,1.2952237129211426,-0.562471866607666,-0.8114594221115112,-0.28948551416397095,0.08187147229909897,-0.2996535301208496,-0.5660654306411743
66,3749932,3749934,-0.09429896622896194,0.014424694702029228,0.9671749472618103,6.045866966247559,4.747199058532715,1.340035080909729,-0.5534723401069641,-0.8174591064453125,-0.2924853563308716,0.062466297298669815,-0.468942791223526,-0.5411238670349121
67,3749942,3749944,-0.047850657254457474,-0.009227623231709003,0.9719234108924866,4.089015960693359,3.7699172496795654,1.5037434101104736,-0.5654717087745667,-0.8174591064453125,-0.2924853563308716,-0.21364684402942657,-0.1665266454219818,-0.5173835158348083
68,3749952,3749954,-0.13920724391937256,-0.07512005418539047,0.9798716902732849,1.8485171794891357,2.770787477493286,1.4053246974945068,-0.5729713439941406,-0.8159592151641846,-0.29098543524742126,0.15532192587852478,-0.2564595639705658,-0.5444272756576538
69,3749962,3749964,-0.0950826108455658,-0.0630064457654953,0.9863926768302917,-0.9860970973968506,0.5641121864318848,1.4117565155029297,-0.577471137046814,-0.8264586329460144,-0.28048595786094666,-0.09481177479028702,-0.10211128741502762,-0.5156394243240356
70,3749972,3749974,-0.052455928176641464,-0.07927332073450089,0.9865200519561768,-1.5569963455200195,-1.5101791620254517,1.184900164604187,-0.5804709792137146,-0.8144592642784119,-0.29848507046699524,-0.08622042089700699,-0.1230681985616684,-0.5028104782104492
71,3749982,3749984,-0.5509931445121765,-0.32862207293510437,0.991352379322052,-2.5008275508880615,-2.46479868888855,1.0253093242645264,-0.5504724383354187,-0.8204589486122131,-0.2864856719970703,-0.32353129982948303,-0.22798103094100952,-0.4611034393310547
72,3749992,3749994,-0.28250348567962646,-0.14397168159484863,0.965810239315033,-1.7812007665634155,-2.2716262340545654,0.44680333137512207,-0.562471866607666,-0.8144592642784119,-0.29848507046699524,-0.21198177337646484,-0.19278155267238617,-0.4682384133338928
73,3750002,3750004,-0.19861771166324615,-0.15494222939014435,0.9645653963088989,-1.0174765586853027,-4.801570892333984,0.9204854965209961,-0.5639718174934387,-0.8159592151641846,-0.2969851493835449,-0.16266821324825287,-0.21867215633392334,-0.47071942687034607
74,3750012,3750014,-0.47990158200263977,-0.6255896091461182,0.9940223693847656,-0.1006743460893631,-4.979172229766846,1.9643064737319946,-0.5654717087745667,-0.8174591064453125,-0.277486115694046,-0.07773040980100632,-0.228150874376297,-0.46527886390686035
75,3750022,3750024,-0.1892133206129074,-0.31432977318763733,0.9935343861579895,1.235442876815796,-4.286810398101807,1.6523077487945557,-0.5564721822738647,-0.8174591064453125,-0.2834858298301697,-0.19430135190486908,-0.22132545709609985,-0.43408775329589844
76,3750032,3750034,-0.06200198456645012,-0.0337010957300663,0.9580338001251221,4.195521354675293,-3.0247035026550293,1.5220310688018799,-0.5639718174934387,-0.8189590573310852,-0.28798559308052063,-0.24173884093761444,-0.18415503203868866,-0.4081382155418396
77,3750042,3750044,-0.05602424964308739,-0.5273710489273071,0.9806476831436157,7.506107807159424,-1.3140230178833008,1.0268795490264893,-0.5609719157218933,-0.8309584259986877,-0.2939853072166443,-0.10244862735271454,-0.1671741008758545,-0.3994157612323761
78,3750052,3750054,-0.04242463782429695,-0.26552343368530273,0.9798492789268494,6.353278636932373,-1.3087248802185059,1.2568353414535522,-0.5564721822738647,-0.8234587907791138,-0.31048446893692017,-0.05359746515750885,0.014269356615841389,-0.3928356170654297
79,3750062,3750064,-0.10707425326108932,-0.044788751751184464,0.9679102301597595,5.095212936401367,-1.918067216873169,0.742710292339325,-0.5684715509414673,-0.8324583768844604,-0.2924853563308716,-0.00413041515275836,0.1032850369811058,-0.3820742964744568
80,3750072,3750074,-0.2042183130979538,-0.167476624250412,0.981533944606781,2.465355634689331,-1.2343114614486694,1.0017236471176147,-0.5519723892211914,-0.8189590573310852,-0.28798559308052063,0.10710269957780838,0.16129446029663086,-0.3788505792617798
81,3750082,3750084,-0.15752075612545013,-0.16363774240016937,0.9960176944732666,-0.14226795732975006,-1.4768767356872559,0.8350238800048828,-0.562471866607666,-0.8234587907791138,-0.29848507046699524,0.14115706086158752,0.1776520013809204,-0.3689301013946533
82,3750092,3750094,0.012616465799510479,-0.011393638327717781,0.951731264591217,-3.5574021339416504,-1.6145001649856567,0.7457642555236816,-0.562471866607666,-0.8234587907791138,-0.29848507046699524,0.17734093964099884,0.14453253149986267,-0.3588930666446686
83,3750102,3750104,-0.04418517276644707,-0.13477474451065063,0.9710041880607605,-5.821279048919678,0.42003288865089417,0.19058236479759216,-0.562471866607666,-0.8234587907791138,-0.29848507046699524,0.26382341980934143,0.06765924394130707,-0.353346049785614
84,3750112,3750114,-0.11214418709278107,-0.05581453815102577,0.967229962348938,-7.386212348937988,1.6053704023361206,0.2637518048286438,-0.5609719157218933,-0.8159592151641846,-0.29098543524742126,0.2550159692764282,-0.036408793181180954,-0.3486388921737671
85,3750122,3750124,-0.2174508422613144,-0.07792235910892487,0.9909411072731018,-6.383495807647705,2.756178379058838,0.5229030251502991,-0.562471866607666,-0.8204589486122131,-0.2924853563308716,0.2280297726392746,-0.21548683941364288,-0.340863972902298
86,3750132,3750134,-0.8190520405769348,-0.5570917725563049,0.986259400844574,-5.727294921875,4.069440841674805,0.6151615381240845,-0.5489725470542908,-0.8219588994979858,-0.2939853072166443,0.11008574068546295,-0.3080580234527588,-0.3316165506839752
87,3750142,3750144,-0.5080963969230652,-0.24075260758399963,0.9717677235603333,-1.2310870885849,4.334933757781982,0.32703348994255066,-0.5534723401069641,-0.8174591064453125,-0.2954852283000946,0.4679805338382721,-0.28819406032562256,-0.34130150079727173
88,3750152,3750154,-0.21057362854480743,-0.22028598189353943,1.0009437799453735,3.700488567352295,3.6088266372680664,1.0799083709716797,-0.56997150182724,-0.8039597868919373,-0.28198590874671936,-0.026169002056121826,-0.342719703912735,-0.31659629940986633
89,3750162,3750164,-0.4174330234527588,-0.24204620718955994,0.9817249774932861,8.446189880371094,5.333122730255127,0.8776201009750366,-0.5669716596603394,-0.8219588994979858,-0.29998499155044556,-0.08131365478038788,-0.38273441791534424,-0.30398327112197876
90,3750172,3750174,-0.44902780652046204,-0.20374123752117157,1.001220941543579,10.531400680541992,5.082473278045654,0.640963613986969,-0.5639718174934387,-0.8249587416648865,-0.28198590874671936,-0.14442721009254456,-0.22232167422771454,-0.29666027426719666
91,3750182,3750184,-0.3393365740776062,-0.11936067789793015,0.9859806895256042,11.974861145019531,3.264003038406372,0.2276139110326767,-0.5639718174934387,-0.8309584259986877,-0.28198590874671936,-0.2669319808483124,0.03470622003078461,-0.29016780853271484
92,3750192,3750194,-0.09231531620025635,-0.4275074601173401,0.9873895049095154,11.73745346069336,0.9809317588806152,-0.34328025579452515,-0.5714713931083679,-0.8234587907791138,-0.29848507046699524,-0.28394249081611633,0.3629268705844879,-0.29233163595199585
93,3750202,3750204,-0.030112123116850853,-0.13140065968036652,0.980513334274292,8.348470687866211,-2.8814191818237305,-0.6404303312301636,-0.5714713931083679,-0.8264586329460144,-0.3044847846031189,-0.18437108397483826,0.2370409220457077,-0.29304075241088867
94,3750212,3750214,-0.0671362355351448,-0.051756344735622406,0.9993413090705872,1.764758825302124,-5.938164710998535,-0.5324158072471619,-0.5654717087745667,-0.8294585347175598,-0.2954852283000946,-0.10947798192501068,0.2610609233379364,-0.2982145845890045
95,3750222,3750224,-0.19969913363456726,-0.4788486063480377,1.0154354572296143,-2.4894397258758545,-7.929188251495361,-0.7302506566047668,-0.5609719157218933,-0.8249587416648865,-0.28498575091362,0.006361606530845165,0.3418068289756775,-0.3054991066455841
96,3750232,3750234,-0.35594499111175537,-0.36030086874961853,1.0065683126449585,-6.572375774383545,-8.402459144592285,-0.3060212731361389,-0.5654717087745667,-0.8174591064453125,-0.2864856719970703,0.14247551560401917,0.48508578538894653,-0.3134293556213379
97,3750242,3750244,-0.04432491213083267,-0.016193468123674393,0.9777324199676514,-8.205084800720215,-6.130351543426514,-0.02175888791680336,-0.5579720735549927,-0.8159592151641846,-0.27898603677749634,0.2604798674583435,-0.05460508540272713,-0.30719849467277527
98,3750252,3750254,-0.335168719291687,-0.09784527122974396,0.9913919568061829,-8.773748397827148,-2.264016628265381,0.28255850076675415,-0.5609719157218933,-0.8219588994979858,-0.2939853072166443,0.33234843611717224,-0.09389570355415344,-0.30829668045043945
99,3750262,3750264,-0.22077339887619019,0.008587050251662731,0.9672572612762451,-6.80631160736084,0.8993416428565979,0.43411168456077576,-0.562471866607666,-0.8174591064453125,-0.28948551416397095,0.34426984190940857,-0.3402182459831238,-0.3000833988189697
100,3750272,3750274,0.013426873832941055,-0.10165131837129593,1.0279669761657715,-2.7368366718292236,4.795602321624756,-0.004960380028933287,-0.5519723892211914,-0.8129593133926392,-0.2969851493835449,0.28651461005210876,-0.12283901125192642,-0.3066944181919098
101,3750282,3750284,-0.31547802686691284,-0.4386005103588104,0.9994388818740845,3.698641777038574,6.297463417053223,0.7288369536399841,-0.5669716596603394,-0.8309584259986877,-0.29098543524742126,0.17611922323703766,-0.462904691696167,-0.29785090684890747
102,3750292,3750294,-0.2703291177749634,-0.5926991105079651,0.9904386401176453,11.044215202331543,6.744596004486084,0.49437835812568665,-0.5669716596603394,-0.8339582681655884,-0.2969851493835449,0.06472782045602798,-0.32726848125457764,-0.2940049171447754
103,3750302,3750304,-0.04338381439447403,-0.0435384064912796,0.9860711693763733,15.179436683654785,6.705941677093506,0.7341266870498657,-0.5609719157218933,-0.836958110332489,-0.29098543524742126,0.022572126239538193,-0.10377616435289383,-0.29505786299705505
104,3750312,3750314,-0.06918221712112427,0.013858177699148655,0.9897696375846863,18.981416702270508,5.00980806350708,0.25291168689727783,-0.5669716596603394,-0.8219588994979858,-0.2939853072166443,-0.0760883018374443,0.1801222413778305,-0.2924712896347046
105,3750322,3750324,-0.08697535842657089,-0.05445372313261032,0.9869719743728638,19.18165397644043,2.4281294345855713,0.3541437089443207,-0.5594720244407654,-0.8294585347175598,-0.28948551416397095,-0.1453281044960022,0.4904233515262604,-0.29305875301361084
106,3750332,3750334,-0.08607030659914017,-0.17425009608268738,1.0001899003982544,13.987101554870605,-0.016454366967082024,-0.10638043284416199,-0.5744712948799133,-0.8384580612182617,-0.3014849126338959,0.5149975419044495,0.9682935476303101,-0.3066372871398926
107,3750342,3750344,-0.28609564900398254,-0.3495422899723053,1.0208743810653687,7.153807640075684,-3.108421564102173,0.482502281665802,-0.5564721822738647,-0.8414579033851624,-0.3044847846031189,0.47581806778907776,1.0575815439224243,-0.3058130145072937
108,3750352,3750354,-0.6373070478439331,-0.19242556393146515,0.9860836863517761,-1.2424206733703613,-2.2779088020324707,0.7636842131614685,-0.5654717087745667,-0.844457745552063,-0.31948402523994446,0.45867520570755005,1.1011897325515747,-0.30283764004707336
109,3750362,3750364,-0.6414104104042053,0.027499593794345856,0.9838520288467407,-12.624908447265625,2.400287628173828,0.4197721779346466,-0.56997150182724,-0.8279585838317871,-0.28798559308052063,0.41201016306877136,0.8495191335678101,-0.2878408432006836
110,3750372,3750374,-0.5177744030952454,-0.07848303020000458,1.0274778604507446,-18.944604873657227,8.440109252929688,0.8265141248703003,-0.5639718174934387,-0.8309584259986877,-0.2939853072166443,0.014090717770159245,0.6083093285560608,-0.2955685555934906
111,3750382,3750384,-0.08993367850780487,-0.060410045087337494,0.9812570810317993,-23.469249725341797,14.312095642089844,0.9763829112052917,-0.56997150182724,-0.8279585838317871,-0.2969851493835449,-0.24163947999477386,0.2095465213060379,-0.2900250554084778
112,3750392,3750394,-0.37549611926078796,0.023291273042559624,0.9921812415122986,-20.703693389892578,17.53841209411621,0.4972151517868042,-0.5654717087745667,-0.8114594221115112,-0.29848507046699524,-0.4225539565086365,-0.1263720542192459,-0.28202465176582336
113,3750402,3750404,-0.19691696763038635,-0.023793628439307213,0.9885736107826233,-13.697420120239258,16.62146759033203,0.3782138228416443,-0.5714713931083679,-0.8264586329460144,-0.2864856719970703,-0.41739094257354736,0.3027588725090027,-0.2835494875907898
114,3750412,3750414,-0.10695939511060715,-0.11046504974365234,1.0062261819839478,-3.5487046241760254,12.781832695007324,0.09752301126718521,-0.56997150182724,-0.8339582681655884,-0.2939853072166443,-0.7445011138916016,-0.5028998255729675,-0.2825542688369751
115,3750422,3750424,-0.29165980219841003,-0.05792569741606712,0.9809512495994568,4.168139457702637,6.658511161804199,-0.5836495161056519,-0.5744712948799133,-0.8324583768844604,-0.3044847846031189,-0.8398898243904114,-0.4169849455356598,-0.28225040435791016
116,3750432,3750434,-0.10399118810892105,-0.23835347592830658,0.9765176177024841,11.167557716369629,-0.5424108505249023,-0.5960726737976074,-0.5594720244407654,-0.8234587907791138,-0.2954852283000946,-0.9017271995544434,-0.010457884520292282,-0.28202638030052185
117,3750442,3750444,-0.3260159492492676,-0.09369326382875443,0.9868157505989075,15.886107444763184,-7.5636820793151855,-0.6523868441581726,-0.5579720735549927,-0.836958110332489,-0.3059847056865692,-0.7124412655830383,-0.16150157153606415,-0.29297247529029846
118,3750452,3750454,-0.36701700091362,-0.1837671399116516,0.9753261804580688,17.59935760498047,-13.815126419067383,-0.8837159872055054,-0.5669716596603394,-0.851957380771637,-0.30898454785346985,-0.6333281397819519,0.253675252199173,-0.2899526059627533
119,3750462,3750464,-0.11416729539632797,-0.2567700445652008,0.9994135499000549,14.270124435424805,-15.759949684143066,-1.2284730672836304,-0.5714713931083679,-0.8414579033851624,-0.2954852283000946,-1.2518566846847534,0.3680865168571472,-0.3190835118293762
120,3750472,3750474,-0.22613847255706787,-0.2815273404121399,0.9751469492912292,9.978117942810059,-15.33487606048584,-0.7799402475357056,-0.5744712948799133,-0.8324583768844604,-0.3044847846031189,-0.24890384078025818,0.4992661476135254,-0.3125819265842438
121,3750482,3750484,-0.7098092436790466,-0.3320927321910858,0.9963703751564026,1.6170083284378052,-14.330253601074219,-1.273136019706726,-0.5579720735549927,-0.8399580121040344,-0.3119843900203705,-0.024494867771863937,0.6044335961341858,-0.32141342759132385
122,3750492,3750494,-0.5973587036132812,-0.20578014850616455,0.9917452335357666,-5.63130521774292,-10.732525825500488,-1.1185296773910522,-0.56997150182724,-0.8579570651054382,-0.3029848337173462,0.15739944577217102,0.5835145711898804,-0.3370038568973541
123,3750502,3750504,-0.30413737893104553,-0.23638194799423218,0.9927287101745605,-11.153131484985352,-4.2919206619262695,-0.026789546012878418,-0.5519723892211914,-0.836958110332489,-0.3059847056865692,1.0283970832824707,1.9053808450698853,-0.269876629114151
124,3750512,3750514,-0.5238553881645203,-0.8555845618247986,1.0166975259780884,-15.728775024414062,2.9460997581481934,-0.35090377926826477,-0.5519723892211914,-0.836958110332489,-0.29098543524742126,1.102492332458496,1.7146809101104736,-0.2734476923942566
125,3750522,3750524,-0.7404638528823853,-0.6407737135887146,1.0170080661773682,-19.530244827270508,12.677342414855957,-0.5646328330039978,-0.5534723401069641,-0.8624568581581116,-0.31048446893692017,0.90278160572052,1.4630675315856934,-0.2883181571960449
126,3750532,3750534,-0.6047942638397217,-0.1997884064912796,1.0220801830291748,-26.091421127319336,23.134830474853516,0.25465553998947144,-0.5564721822738647,-0.8414579033851624,-0.31948402523994446,0.6287835240364075,1.0643175840377808,-0.2999876141548157
127,3750542,3750544,-0.16825556755065918,-0.19689907133579254,1.0241992473602295,-33.165069580078125,32.84004592895508,-0.3538966774940491,-0.5594720244407654,-0.8324583768844604,-0.30748462677001953,0.2701432406902313,0.7135666608810425,-0.3072504699230194
128,3750552,3750554,-0.9575605988502502,-0.6389783620834351,1.0341335535049438,-35.491004943847656,37.18341064453125,-0.5453448295593262,-0.5579720735549927,-0.8279585838317871,-0.2939853072166443,-0.12929190695285797,0.35795560479164124,-0.31457626819610596
129,3750562,3750564,-0.7727010846138,-0.19878524541854858,1.0236799716949463,-34.75768280029297,37.230987548828125,-0.4170333743095398,-0.5534723401069641,-0.8264586329460144,-0.2954852283000946,-0.3613022267818451,-0.021549563854932785,-0.3012610971927643
130,3750572,3750574,-0.15065965056419373,-0.1984480321407318,1.0336425304412842,-30.58978271484375,33.09491729736328,-0.152605801820755,-0.5594720244407654,-0.8234587907791138,-0.3014849126338959,-0.8589682579040527,-0.5079043507575989,-0.31842681765556335
131,3750582,3750584,-0.14599189162254333,-0.34117045998573303,1.020059585571289,-22.95686912536621,23.86717414855957,-0.7535198926925659,-0.5789710283279419,-0.8189590573310852,-0.29098543524742126,-1.2433767318725586,-0.7531973719596863,-0.32895007729530334
132,3750592,3750594,-0.10566677898168564,-0.19624555110931396,1.0289602279663086,-14.461663246154785,14.993602752685547,-1.2633323669433594,-0.5669716596603394,-0.8189590573310852,-0.2969851493835449,-1.27511465549469,-1.013793706893921,-0.3264387845993042
133,3750602,3750604,-0.10822058469057083,-0.001415559439919889,1.0214755535125732,-7.190511226654053,3.588082790374756,-1.4743469953536987,-0.5759711861610413,-0.8279585838317871,-0.27898603677749634,-1.3651397228240967,-1.1436681747436523,-0.3366123139858246
134,3750612,3750614,-0.11183344572782516,-0.035633768886327744,1.030143141746521,-0.4016534090042114,-3.4774179458618164,-1.6995015144348145,-0.5684715509414673,-0.8174591064453125,-0.277486115694046,-1.4493378400802612,-1.2947063446044922,-0.3582739531993866
135,3750622,3750624,-0.26976922154426575,-0.4232819974422455,1.0336540937423706,5.43289041519165,-9.899338722229004,-0.7844967842102051,-0.577471137046814,-0.8294585347175598,-0.2924853563308716,-1.407210350036621,-1.3310357332229614,-0.37385281920433044
136,3750632,3750634,-0.35270780324935913,-0.2818882167339325,1.0196998119354248,5.847517967224121,-9.615987777709961,-0.8182376027107239,-0.577471137046814,-0.8474575877189636,-0.3014849126338959,-1.311587929725647,-1.3062796592712402,-0.38268715143203735
137,3750642,3750644,-0.18400591611862183,-0.003623366355895996,1.0147924423217773,6.380522727966309,-8.304117202758789,-0.6077907681465149,-0.5789710283279419,-0.8339582681655884,-0.28798559308052063,-1.2164298295974731,-1.263074278831482,-0.3896646201610565
138,3750652,3750654,-0.30814996361732483,-0.5267686247825623,0.9959269165992737,3.4681684970855713,-3.7721829414367676,-0.6403000950813293,-0.5759711861610413,-0.8219588994979858,-0.2939853072166443,-1.2336492538452148,-1.233916163444519,-0.3923150300979614
139,3750662,3750664,-0.12031461298465729,-0.251010000705719,1.0340405702590942,0.5876189470291138,1.2132782936096191,-0.5588394999504089,-0.5594720244407654,-0.8264586329460144,-0.2954852283000946,-1.1756166219711304,-1.241474986076355,-0.40739351511001587
140,3750672,3750674,-0.011911316774785519,0.006992687005549669,1.020700454711914,-2.0888564586639404,5.625482082366943,0.17157775163650513,-0.56997150182724,-0.8249587416648865,-0.29998499155044556,-1.126380205154419,-1.2897453308105469,-0.4267282485961914
141,3750682,3750684,-0.0009781797416508198,0.034095797687768936,1.0074057579040527,-5.610971927642822,9.651531219482422,0.05854865908622742,-0.56997150182724,-0.8279585838317871,-0.28498575091362,-1.154334545135498,-1.3812857866287231,-0.44211286306381226
142,3750692,3750694,-0.10482420027256012,-0.12556681036949158,1.0043450593948364,-6.188186168670654,10.437114715576172,0.1800767332315445,-0.5654717087745667,-0.8204589486122131,-0.28948551416397095,-1.3572044372558594,-1.4969338178634644,-0.44128429889678955
143,3750702,3750704,-0.6709824800491333,-0.06437422335147858,1.0231435298919678,-3.5576541423797607,9.991177558898926,0.6428407430648804,-0.5789710283279419,-0.8249587416648865,-0.29098543524742126,-1.5601720809936523,-1.5971965789794922,-0.43754178285598755
144,3750712,3750714,-0.6299611330032349,-0.24912980198860168,1.0094361305236816,-0.7465023398399353,7.417993068695068,0.06870609521865845,-0.5759711861610413,-0.8279585838317871,-0.28798559308052063,-1.6612101793289185,-1.6564152240753174,-0.4390159249305725
145,3750722,3750724,-0.5098255276679993,-0.40566131472587585,1.0236893892288208,1.308523416519165,3.1907684803009033,0.26932087540626526,-0.577471137046814,-0.8084595799446106,-0.2954852283000946,-1.6369860172271729,-1.6754964590072632,-0.4569984972476959
146,3750732,3750734,-0.5877779126167297,-0.24889349937438965,1.013131856918335,6.436336040496826,-1.93107271194458,0.17281101644039154,-0.5804709792137146,-0.8234587907791138,-0.3014849126338959,-1.6170620918273926,-1.6290347576141357,-0.4597347676753998
147,3750742,3750744,-0.2702391743659973,-0.054373711347579956,1.0194487571716309,11.111056327819824,-7.692350387573242,0.7703702449798584,-0.5879706144332886,-0.8249587416648865,-0.2939853072166443,-1.5774080753326416,-1.574831485748291,-0.4614436626434326
148,3750752,3750754,-0.487274706363678,-0.2578924298286438,1.0097047090530396,14.98498249053955,-10.097148895263672,0.7182033061981201,-0.5669716596603394,-0.8129593133926392,-0.2969851493835449,-1.4703418016433716,-1.3786438703536987,-0.4422205984592438
149,3750762,3750764,-0.2694127857685089,-0.5966879725456238,0.9977596998214722,16.280012130737305,-12.329642295837402,1.323096752166748,-0.5789710283279419,-0.8339582681655884,-0.29998499155044556,-1.385287880897522,-1.2091838121414185,-0.42087337374687195
150,3750772,3750774,-0.1187460869550705,-0.358940988779068,1.0119742155075073,15.199880599975586,-9.0765962600708,1.5539112091064453,-0.5744712948799133,-0.8324583768844604,-0.3164841830730438,-1.2330139875411987,-1.1722166538238525,-0.43782466650009155
151,3750782,3750784,-0.5013428330421448,-0.2575274407863617,0.9942172765731812,12.105993270874023,-6.6727423667907715,1.8980252742767334,-0.5714713931083679,-0.8204589486122131,-0.29848507046699524,-1.1867523193359375,-1.081397294998169,-0.4216513931751251
152,3750792,3750794,-0.7604005336761475,-0.30092793703079224,1.0159209966659546,9.535782814025879,-3.159721612930298,2.1307902336120605,-0.5669716596603394,-0.8159592151641846,-0.28798559308052063,-1.1845911741256714,-0.9590627551078796,-0.38663870096206665
153,3750802,3750804,-0.28535187244415283,-0.20175252854824066,1.0243042707443237,8.884084701538086,1.378485918045044,1.8852428197860718,-0.5729713439941406,-0.8159592151641846,-0.29998499155044556,-1.105102300643921,-0.8639343976974487,-0.37481409311294556
154,3750812,3750814,-0.13858312368392944,-0.25177574157714844,0.9979862570762634,5.974074840545654,2.4779841899871826,2.0524673461914062,-0.5744712948799133,-0.8204589486122131,-0.2834858298301697,-1.1428279876708984,-0.7971696853637695,-0.35188886523246765
155,3750822,3750824,-0.7588388919830322,-0.19717229902744293,0.9928018450737,5.490567207336426,3.8226840496063232,1.5923492908477783,-0.5759711861610413,-0.8189590573310852,-0.2969851493835449,-1.1967231035232544,-0.6896634101867676,-0.3106223940849304
156,3750832,3750834,-0.2525111436843872,-0.15293045341968536,1.0177066326141357,5.764272212982178,3.4773406982421875,1.0846331119537354,-0.5729713439941406,-0.8249587416648865,-0.2969851493835449,-1.1909433603286743,-0.6565455198287964,-0.3044966161251068
157,3750842,3750844,-0.12309420853853226,-0.02769765444099903,0.9869878888130188,6.748678207397461,0.2803410291671753,1.0651051998138428,-0.56997150182724,-0.8249587416648865,-0.2969851493835449,-1.168479561805725,-0.613086462020874,-0.30626729130744934
158,3750852,3750854,-0.11321034282445908,-0.046655405312776566,1.0095571279525757,6.785166263580322,-2.04050350189209,1.0881048440933228,-0.5759711861610413,-0.8219588994979858,-0.2969851493835449,-1.1786572933197021,-0.56075519323349,-0.29804375767707825
159,3750862,3750864,-0.04534446820616722,-0.01002142671495676,0.9908537268638611,6.786155700683594,-5.841629505157471,1.2314192056655884,-0.5759711861610413,-0.8099594712257385,-0.28798559308052063,-1.1332515478134155,-0.6447098255157471,-0.3198748528957367
160,3750872,3750874,-0.08736169338226318,-0.14439009130001068,1.0074342489242554,8.868179321289062,-7.614937782287598,1.5887062549591064,-0.5759711861610413,-0.8099594712257385,-0.28798559308052063,-1.046347737312317,-0.4936189651489258,-0.2979089319705963
161,3750882,3750884,-0.20331740379333496,-0.027206139639019966,0.9851794838905334,8.435373306274414,-9.388237953186035,1.114593267440796,-0.5759711861610413,-0.8099594712257385,-0.28798559308052063,-0.9960237145423889,-0.4717715382575989,-0.29273170232772827
162,3750892,3750894,-0.3952992260456085,-0.06907586008310318,0.9873610734939575,9.87710952758789,-10.657883644104004,1.4202604293823242,-0.5834708213806152,-0.8234587907791138,-0.2864856719970703,-0.8462347984313965,-0.4348441958427429,-0.29789507389068604
163,3750902,3750904,-0.1401074081659317,-0.030232906341552734,0.9855260252952576,10.663619995117188,-8.712885856628418,1.2001895904541016,-0.5759711861610413,-0.8189590573310852,-0.29998499155044556,-0.8437561392784119,-0.37529456615448,-0.279146671295166
164,3750912,3750914,0.0582202672958374,-0.1432155966758728,0.9947854280471802,12.112157821655273,-7.8788042068481445,1.3216503858566284,-0.5594720244407654,-0.8294585347175598,-0.28048595786094666,-0.72182697057724,-0.1532495617866516,-0.25602981448173523
165,3750922,3750924,-0.10760834813117981,-0.6471030116081238,1.0084333419799805,12.746757507324219,-5.981943130493164,1.8344098329544067,-0.5504724383354187,-0.8294585347175598,-0.3014849126338959,-0.691371500492096,0.005799597594887018,-0.23405109345912933
166,3750932,3750934,-0.38378220796585083,-0.27901390194892883,0.9814793467521667,10.816749572753906,-5.423097610473633,1.3917304277420044,-0.5669716596603394,-0.8399580121040344,-0.2969851493835449,-0.6665382385253906,0.0165993794798851,-0.23069357872009277
167,3750942,3750944,-0.16150853037834167,-0.019012173637747765,1.028480887413025,9.594161987304688,-3.850208282470703,1.9777023792266846,-0.5609719157218933,-0.8339582681655884,-0.29098543524742126,-0.5834149718284607,0.21972036361694336,-0.204105943441391
168,3750952,3750954,-0.29724550247192383,-0.10583823174238205,1.019209384918213,7.040748119354248,-1.5650405883789062,1.8109102249145508,-0.5729713439941406,-0.8489575386047363,-0.3059847056865692,-0.5333353281021118,0.17695623636245728,-0.2031179964542389
169,3750962,3750964,-0.45563942193984985,-0.5590210556983948,0.9928444027900696,6.056375503540039,-0.6461554169654846,2.1319143772125244,-0.5714713931083679,-0.8324583768844604,-0.2954852283000946,-0.5063600540161133,0.3264356255531311,-0.17636911571025848
170,3750972,3750974,-0.2511485517024994,-0.6699019074440002,0.9878074526786804,5.059176445007324,-0.8130017518997192,1.7861202955245972,-0.5729713439941406,-0.8489575386047363,-0.29998499155044556,-0.48832908272743225,0.2419179528951645,-0.16994807124137878
171,3750982,3750984,-0.09527180343866348,-0.329917311668396,1.003769040107727,5.931052207946777,0.4778810441493988,1.6090550422668457,-0.5534723401069641,-0.8414579033851624,-0.2954852283000946,-0.4824265241622925,0.3736264109611511,-0.14341191947460175
172,3750992,3750994,-0.43463072180747986,-0.06592631340026855,1.0077179670333862,5.36975622177124,-0.38890302181243896,1.498937964439392,-0.5594720244407654,-0.8324583768844604,-0.30748462677001953,-0.48074954748153687,0.434221476316452,-0.1252158284187317
173,3751002,3751004,-0.8117323517799377,0.03854282572865486,1.0220913887023926,6.179141521453857,-1.5084867477416992,0.98741215467453,-0.5504724383354187,-0.8414579033851624,-0.29848507046699524,-0.46441933512687683,0.4936618208885193,-0.10839807987213135
174,3751012,3751014,-0.08996718376874924,-0.025320876389741898,0.9935453534126282,5.4496355056762695,-1.764163851737976,0.8138102889060974,-0.577471137046814,-0.844457745552063,-0.2954852283000946,-0.4394683539867401,0.6250096559524536,-0.09339893609285355
175,3751022,3751024,-0.04170083627104759,-0.004532134160399437,1.0114881992340088,6.461093902587891,-3.312631845474243,1.770394206047058,-0.5654717087745667,-0.8294585347175598,-0.29848507046699524,-0.39930030703544617,0.6126185059547424,-0.0884016901254654
176,3751032,3751034,-0.34528636932373047,-0.15084774792194366,1.0070948600769043,6.104881286621094,-3.4098477363586426,1.589864730834961,-0.5714713931083679,-0.8354582190513611,-0.2954852283000946,-0.41855475306510925,0.7454046607017517,-0.07084358483552933
177,3751042,3751044,-0.2688753604888916,-0.13638511300086975,0.9949889779090881,5.103365421295166,-3.169597625732422,1.560719609260559,-0.5669716596603394,-0.8339582681655884,-0.3059847056865692,-0.4302542805671692,0.7955734133720398,-0.059885114431381226
178,3751052,3751054,-0.041594695299863815,-0.35655781626701355,1.0066394805908203,2.779480218887329,-4.017819404602051,1.772145390510559,-0.562471866607666,-0.8414579033851624,-0.3014849126338959,-0.36521822214126587,0.8207948803901672,-0.04380381852388382
179,3751062,3751064,-0.02592569962143898,-0.08885690569877625,1.0066875219345093,2.0068209171295166,-4.0069475173950195,1.1982297897338867,-0.56997150182724,-0.8309584259986877,-0.29998499155044556,-0.30047357082366943,0.8890026211738586,-0.024217521771788597
180,3751072,3751074,-0.10342097282409668,-0.048266321420669556,1.0139334201812744,1.0606073141098022,-4.271692752838135,1.832158088684082,-0.5669716596603394,-0.8399580121040344,-0.2969851493835449,-0.2272086888551712,0.9380702972412109,-0.008965082466602325
181,3751082,3751084,-0.9473934173583984,-0.2127213031053543,1.0132629871368408,0.3495076298713684,-4.541708946228027,1.7178415060043335,-0.5564721822738647,-0.8354582190513611,-0.3014849126338959,-0.14998047053813934,0.9682444930076599,0.009947161190211773
182,3751092,3751094,-1.829735517501831,-0.24369721114635468,1.0045249462127686,-1.0766860246658325,-4.157291889190674,1.3162850141525269,-0.5669716596603394,-0.836958110332489,-0.3029848337173462,-0.07574934512376785,0.9826825261116028,0.02807423286139965
183,3751102,3751104,-1.4227137565612793,-0.7114014625549316,0.9770950078964233,-2.0098061561584473,-3.4003849029541016,1.767886996269226,-0.5609719157218933,-0.8309584259986877,-0.2969851493835449,-0.006664759013801813,0.974979043006897,0.044198788702487946
184,3751112,3751114,-0.5389518141746521,-0.29187288880348206,1.0457191467285156,-2.0485851764678955,-1.5667275190353394,2.5168344974517822,-0.5519723892211914,-0.8339582681655884,-0.28798559308052063,-0.09683331102132797,0.9578977227210999,0.0425778366625309
185,3751122,3751124,0.017771977931261063,0.00892715621739626,0.9993741512298584,-1.93001389503479,-0.0032631265930831432,2.173743724822998,-0.5639718174934387,-0.8489575386047363,-0.30898454785346985,-0.06530534476041794,0.9393920302391052,0.06657551229000092
186,3751132,3751134,0.04205536097288132,-0.040414419025182724,1.0026746988296509,-1.309434413909912,1.0361436605453491,2.843165874481201,-0.562471866607666,-0.8384580612182617,-0.2864856719970703,-0.05710183084011078,0.9215734601020813,0.08838601410388947
187,3751142,3751144,-0.181679829955101,-0.05035936087369919,1.0018024444580078,-0.6337881684303284,2.4168083667755127,2.039663553237915,-0.5579720735549927,-0.8309584259986877,-0.2939853072166443,-0.07526777684688568,0.9131097793579102,0.1135115996003151
188,3751152,3751154,-0.4756799638271332,-0.17525704205036163,1.013897180557251,0.22240382432937622,2.614644765853882,1.695051908493042,-0.5579720735549927,-0.8339582681655884,-0.2939853072166443,-0.1055043488740921,0.9194003939628601,0.13372714817523956
189,3751162,3751164,-0.37212398648262024,-0.11360370367765427,1.0054858922958374,0.08607696741819382,1.2964142560958862,2.2398829460144043,-0.5789710283279419,-0.8399580121040344,-0.2969851493835449,-0.06331586092710495,0.9271720051765442,0.16295219957828522
190,3751172,3751174,-0.10060961544513702,-0.019205987453460693,1.0095220804214478,-0.5703100562095642,0.30934810638427734,1.9588898420333862,-0.5684715509414673,-0.8354582190513611,-0.2864856719970703,-0.1502678543329239,0.9258022308349609,0.17174950242042542
191,3751182,3751184,-0.2745843529701233,-0.032622989267110825,0.9987836480140686,0.15387611091136932,-0.8953364491462708,2.3227663040161133,-0.5759711861610413,-0.8159592151641846,-0.28798559308052063,-0.14147329330444336,0.9253433346748352,0.19328290224075317
192,3751192,3751194,-1.0940700769424438,-0.2296302616596222,1.005989670753479,-3.4954729080200195,-2.965529441833496,2.180870294570923,-0.577471137046814,-0.8294585347175598,-0.29848507046699524,-0.10989250987768173,0.9033545851707458,0.21962037682533264
193,3751202,3751204,-0.4732418954372406,-0.002548362361267209,0.9702406525611877,-3.8249247074127197,-4.410681247711182,2.064256429672241,-0.562471866607666,-0.8324583768844604,-0.2864856719970703,-0.05361463502049446,0.8483565449714661,0.2458619624376297
194,3751212,3751214,-0.13313058018684387,-0.006576486397534609,0.9977353811264038,-3.6527180671691895,-4.852357387542725,1.9857726097106934,-0.5684715509414673,-0.8204589486122131,-0.2954852283000946,0.02213083580136299,0.7887641787528992,0.27180230617523193
195,3751222,3751224,-0.01855124719440937,0.021883351728320122,0.9841899871826172,-4.309974193572998,-4.558715343475342,2.683959484100342,-0.5639718174934387,-0.8339582681655884,-0.2969851493835449,0.030718274414539337,0.7256506681442261,0.28460413217544556
196,3751232,3751234,-0.016822945326566696,-0.0305772814899683,0.9808063507080078,-4.050078868865967,-3.1938021183013916,2.795383930206299,-0.562471866607666,-0.8294585347175598,-0.27148643136024475,0.10215191543102264,0.6644958257675171,0.31462132930755615
197,3751242,3751244,-0.03930705785751343,-0.006378685124218464,0.9954532384872437,-2.988407850265503,-1.3846306800842285,2.392765522003174,-0.562471866607666,-0.8294585347175598,-0.29848507046699524,0.14974839985370636,0.6806521415710449,0.3393644094467163
198,3751252,3751254,-0.15760710835456848,-0.25528421998023987,0.9793612957000732,-1.6477762460708618,0.18599076569080353,2.4679322242736816,-0.5654717087745667,-0.8204589486122131,-0.2924853563308716,0.09996460378170013,0.6362898349761963,0.35188019275665283
199,3751262,3751264,-0.17090687155723572,-0.5092115998268127,0.9823758006095886,-1.8744657039642334,1.947441577911377,2.055898666381836,-0.5654717087745667,-0.8264586329460144,-0.28948551416397095,0.16896949708461761,0.6738845705986023,0.3818337321281433
200,3751272,3751274,-0.0009447314660064876,-0.12424320727586746,0.9717115163803101,0.2807154953479767,1.2668802738189697,2.044341802597046,-0.5639718174934387,-0.8309584259986877,-0.28798559308052063,0.15260550379753113,0.6529802680015564,0.40366217494010925
201,3751282,3751284,-0.4838688373565674,-0.40104615688323975,1.0194151401519775,-0.3161301016807556,2.307088613510132,2.564276695251465,-0.56997150182724,-0.8309584259986877,-0.2969851493835449,0.13117381930351257,0.641968309879303,0.4247238337993622
202,3751292,3751294,-0.8068603873252869,-0.41338545083999634,1.0426151752471924,0.06884197145700455,3.597993850708008,1.6641985177993774,-0.5684715509414673,-0.8234587907791138,-0.3044847846031189,0.0949050784111023,0.6318001747131348,0.44615432620048523
203,3751302,3751304,-0.5125281810760498,-0.45313215255737305,1.028268814086914,-1.2334880828857422,3.5952374935150146,2.0940611362457275,-0.5729713439941406,-0.8249587416648865,-0.29998499155044556,0.06103773042559624,0.69129478931427,0.45669037103652954
204,3751312,3751314,-0.285372257232666,-0.2770053744316101,1.0228424072265625,-1.3242558240890503,3.608161211013794,3.478679656982422,-0.5639718174934387,-0.8309584259986877,-0.29998499155044556,0.040311891585588455,0.6664727926254272,0.48071083426475525
205,3751322,3751324,-0.277497798204422,-0.3726835548877716,1.0215427875518799,-0.7248450517654419,3.817154884338379,2.8558409214019775,-0.5654717087745667,-0.8354582190513611,-0.3014849126338959,0.003626726334914565,0.639359712600708,0.5176387429237366
206,3751332,3751334,-0.10978532582521439,-0.3991406559944153,1.0400164127349854,-2.1842074394226074,2.91528582572937,2.645172357559204,-0.562471866607666,-0.8174591064453125,-0.28948551416397095,-0.04158230125904083,0.747363269329071,0.5361201167106628
207,3751342,3751344,-0.11982981115579605,-0.09270330518484116,1.0750683546066284,-5.134681224822998,0.5789735913276672,2.2524869441986084,-0.554972231388092,-0.8249587416648865,-0.29098543524742126,-0.05323680490255356,0.6766032576560974,0.5708628296852112
208,3751352,3751354,-0.1816912293434143,0.031867943704128265,1.0441452264785767,-5.803417682647705,-0.2323930412530899,2.0974607467651367,-0.5579720735549927,-0.8219588994979858,-0.3029848337173462,-0.0411229208111763,0.7111737132072449,0.5908850431442261
209,3751362,3751364,-0.15320667624473572,0.15434205532073975,1.0204514265060425,-6.046382904052734,-1.6841633319854736,1.6555376052856445,-0.577471137046814,-0.8294585347175598,-0.28048595786094666,-0.027562139555811882,0.5901932120323181,0.6182290315628052
210,3751372,3751374,-0.04279448091983795,0.1723853051662445,1.0396509170532227,-6.177977085113525,-3.5494816303253174,2.349681854248047,-0.5639718174934387,-0.8219588994979858,-0.2939853072166443,0.010940627194941044,0.5405303239822388,0.6376551985740662
211,3751382,3751384,-0.03386130928993225,-0.11269770562648773,1.0336894989013672,-8.928648948669434,-3.530791759490967,2.43872332572937,-0.56997150182724,-0.8279585838317871,-0.2759861946105957,0.06479884684085846,0.4660224914550781,0.6641476154327393
212,3751392,3751394,0.05578194186091423,-0.018155165016651154,0.9800309538841248,-7.900895118713379,-3.429072380065918,2.555943489074707,-0.5669716596603394,-0.8189590573310852,-0.29998499155044556,0.10633032768964767,0.3031090199947357,0.6938443183898926
213,3751402,3751404,0.011654182337224483,0.09552131593227386,0.9935779571533203,-5.845972537994385,-3.737394094467163,2.635763645172119,-0.5669716596603394,-0.8189590573310852,-0.28498575091362,0.15483789145946503,0.1685553789138794,0.7210464477539062
214,3751412,3751414,-0.18701063096523285,-0.05544709414243698,0.9800785183906555,-5.1573920249938965,-2.152312994003296,2.52685809135437,-0.5609719157218933,-0.8189590573310852,-0.29098543524742126,0.1329161822795868,0.13049449026584625,0.7357034683227539
215,3751422,3751424,-0.07217247039079666,-0.057834040373563766,0.9433682560920715,-2.439269542694092,-0.2540751099586487,2.2539315223693848,-0.5639718174934387,-0.8099594712257385,-0.2969851493835449,0.15135720372200012,0.04318331927061081,0.7585486173629761
216,3751432,3751434,-0.009464260190725327,-0.06815430521965027,0.9649134874343872,0.008254590444266796,0.8407750129699707,2.013204574584961,-0.5609719157218933,-0.8189590573310852,-0.28498575091362,0.1499323844909668,0.07432924211025238,0.7687439322471619
217,3751442,3751444,-0.09598533064126968,-0.28303131461143494,0.9664743542671204,2.377345323562622,2.4291083812713623,2.290814161300659,-0.5714713931083679,-0.8234587907791138,-0.28948551416397095,0.14938731491565704,0.07013817131519318,0.7871748805046082
218,3751452,3751454,-1.0353285074234009,-0.6937901973724365,0.9505332708358765,2.360480308532715,4.099047660827637,2.532651662826538,-0.5714713931083679,-0.8324583768844604,-0.2954852283000946,0.1285901665687561,0.08907251060009003,0.8073504567146301
219,3751462,3751464,-0.7676244378089905,-0.7390699982643127,0.9846696853637695,3.9304566383361816,3.568840980529785,2.2139177322387695,-0.5594720244407654,-0.8174591064453125,-0.28948551416397095,0.09094695001840591,0.12590284645557404,0.8255671262741089
220,3751472,3751474,-0.2656889259815216,-0.28014853596687317,1.0044220685958862,1.4366155862808228,2.4271788597106934,2.5934362411499023,-0.554972231388092,-0.836958110332489,-0.2969851493835449,0.07352672517299652,0.1578734815120697,0.8476666212081909
221,3751482,3751484,-0.21021872758865356,-0.22660045325756073,1.0290032625198364,-1.9173089265823364,2.3730266094207764,2.641265630722046,-0.5654717087745667,-0.8234587907791138,-0.3014849126338959,0.07293782383203506,0.14675895869731903,0.87970370054245
222,3751492,3751494,-0.5730051398277283,-0.8381207585334778,1.048429012298584,-2.9794015884399414,1.7157883644104004,2.6388533115386963,-0.5579720735549927,-0.8249587416648865,-0.2939853072166443,0.06858514994382858,0.1676858514547348,0.9037555456161499
223,3751502,3751504,-0.5383166074752808,-0.4863576591014862,1.0454810857772827,-2.4127509593963623,0.6283941268920898,3.0379674434661865,-0.5579720735549927,-0.8219588994979858,-0.29098543524742126,0.1461695283651352,0.10965217649936676,0.9360785484313965
224,3751512,3751514,-0.2481810599565506,-0.06908418238162994,1.0531872510910034,-4.008070945739746,0.9199137091636658,3.2852678298950195,-0.5609719157218933,-0.8219588994979858,-0.3029848337173462,0.16190800070762634,0.11785796284675598,0.9674643278121948
225,3751522,3751524,-0.10803260654211044,-0.002234863117337227,1.0183824300765991,-4.810523509979248,1.0239874124526978,2.667334794998169,-0.5609719157218933,-0.8189590573310852,-0.2969851493835449,0.1656971424818039,0.10193683207035065,1.001673698425293
226,3751532,3751534,-0.3234778344631195,0.17657782137393951,1.0547974109649658,-3.815857410430908,1.748069167137146,1.9999254941940308,-0.554972231388092,-0.8279585838317871,-0.28798559308052063,0.14764845371246338,0.010595068335533142,1.0330114364624023
227,3751542,3751544,-1.0494612455368042,-0.08829157799482346,1.071410894393921,-3.9838573932647705,1.9059594869613647,2.346005439758301,-0.5534723401069641,-0.8324583768844604,-0.2924853563308716,0.1244211345911026,0.1405058652162552,1.0381592512130737
228,3751552,3751554,-0.9726490378379822,-0.16491509974002838,1.057366132736206,-3.3575379848480225,2.2597479820251465,2.6997621059417725,-0.5534723401069641,-0.8204589486122131,-0.28948551416397095,0.0977037250995636,0.048495687544345856,1.0675655603408813
229,3751562,3751564,-0.13933616876602173,-0.04665084555745125,0.9909185171127319,-2.4639945030212402,2.127267837524414,2.1085503101348877,-0.5714713931083679,-0.8144592642784119,-0.28048595786094666,0.052038226276636124,0.036156658083200455,1.087827444076538
230,3751572,3751574,0.02316092699766159,-0.001991311786696315,1.0110098123550415,-1.7271102666854858,0.48163899779319763,1.4811415672302246,-0.5669716596603394,-0.8189590573310852,-0.29098543524742126,0.024611640721559525,-0.027786875143647194,1.11055326461792
231,3751582,3751584,-0.04191989451646805,-0.08670792728662491,0.9809973835945129,-1.7892200946807861,-0.5691564083099365,1.6283478736877441,-0.5519723892211914,-0.8189590573310852,-0.2939853072166443,0.026571258902549744,-0.015504088252782822,1.1236984729766846
232,3751592,3751594,-0.04574314132332802,-0.05752215161919594,0.9979580044746399,-3.2760980129241943,-1.7345263957977295,1.510518193244934,-0.5639718174934387,-0.8249587416648865,-0.29098543524742126,0.046731315553188324,-0.0871475413441658,1.142743468284607
233,3751602,3751604,0.049175914376974106,0.094152070581913,0.956729531288147,-3.0666003227233887,-2.617445468902588,1.2494723796844482,-0.5564721822738647,-0.8204589486122131,-0.2924853563308716,0.07688883692026138,-0.1622704416513443,1.1578329801559448
234,3751612,3751614,-0.011888422071933746,-0.07809814810752869,0.9372875690460205,-2.944329023361206,-3.1524910926818848,1.7441520690917969,-0.5444727540016174,-0.8264586329460144,-0.2924853563308716,0.12718836963176727,-0.16166803240776062,1.1660901308059692
235,3751622,3751624,-0.13129331171512604,-0.19617494940757751,0.9457100033760071,-3.7078752517700195,-0.9855251908302307,1.8598263263702393,-0.5564721822738647,-0.8264586329460144,-0.2924853563308716,0.17686161398887634,-0.16867320239543915,1.1820646524429321
236,3751632,3751634,-0.4316697418689728,-0.19777479767799377,0.9672901630401611,-1.241349697113037,-0.7601447701454163,1.7444969415664673,-0.5489725470542908,-0.8189590573310852,-0.2969851493835449,0.20628684759140015,-0.2336580902338028,1.2014909982681274
237,3751642,3751644,-0.1845446079969406,0.0016873697750270367,0.9741562008857727,-1.2922531366348267,-0.14978159964084625,2.199460029602051,-0.562471866607666,-0.8294585347175598,-0.30748462677001953,0.2299317717552185,-0.20201875269412994,1.2159109115600586
238,3751652,3751654,-0.08434322476387024,-0.1229022964835167,0.9987219572067261,-1.9209692478179932,1.459425449371338,1.6465409994125366,-0.5519723892211914,-0.8429578542709351,-0.2969851493835449,0.22406738996505737,-0.25098416209220886,1.2419722080230713
239,3751662,3751664,-0.20650188624858856,-0.10923456400632858,1.0403497219085693,-2.5003931522369385,3.3807969093322754,1.4655669927597046,-0.5519723892211914,-0.8429578542709351,-0.2969851493835449,0.18708999454975128,-0.3073712885379791,1.2632067203521729
240,3751672,3751674,-0.17745740711688995,-0.025421222671866417,1.061353325843811,-1.3125243186950684,3.5628669261932373,1.0698224306106567,-0.5519723892211914,-0.8429578542709351,-0.2969851493835449,0.1374562531709671,-0.3531065285205841,1.2810367345809937
241,3751682,3751684,-0.033616479486227036,-0.3448478579521179,1.0463734865188599,-1.4734352827072144,3.315415143966675,1.6149318218231201,-0.5534723401069641,-0.8384580612182617,-0.3044847846031189,0.15240216255187988,-0.31822115182876587,1.2910072803497314
242,3751692,3751694,-0.026252103969454765,-0.23112112283706665,1.0033936500549316,-1.5545822381973267,2.7436134815216064,1.40897798538208,-0.5504724383354187,-0.850457489490509,-0.2954852283000946,0.0913994312286377,-0.22166863083839417,1.298340082168579
243,3751702,3751704,-0.19211064279079437,-0.1813575178384781,1.0086079835891724,-0.23549647629261017,1.649702548980713,1.480620265007019,-0.5519723892211914,-0.836958110332489,-0.31798410415649414,0.03932250291109085,-0.26311159133911133,1.3115352392196655
244,3751712,3751714,-0.4828173518180847,-0.21789897978305817,0.991089403629303,0.4241950809955597,0.5827470421791077,1.9672961235046387,-0.554972231388092,-0.8459576964378357,-0.3029848337173462,0.007548512425273657,-0.2889516055583954,1.3262287378311157
245,3751722,3751724,-0.2613270878791809,-0.21841971576213837,0.988411009311676,-0.41561269760131836,0.13522596657276154,1.489835500717163,-0.5429728627204895,-0.8339582681655884,-0.3209839463233948,-0.009475083090364933,-0.31753265857696533,1.3445764780044556
246,3751732,3751734,-0.32353031635284424,-0.11904852092266083,1.0106803178787231,0.3211013376712799,-1.9410624504089355,1.2963957786560059,-0.5594720244407654,-0.8474575877189636,-0.2954852283000946,-0.07798603922128677,-0.3413788378238678,1.3607321977615356
247,3751742,3751744,-0.18034125864505768,-0.15520206093788147,1.0344706773757935,0.058736421167850494,-2.9358160495758057,1.4524015188217163,-0.5459727048873901,-0.8429578542709351,-0.3119843900203705,-0.023188309744000435,-0.3541235029697418,1.3786544799804688
248,3751752,3751754,-0.1967352032661438,-0.03783157840371132,1.0701408386230469,0.8270696997642517,-1.0622167587280273,1.0037466287612915,-0.554972231388092,-0.8549572229385376,-0.3059847056865692,0.02726445533335209,-0.3622221350669861,1.3987603187561035
249,3751762,3751764,-0.10219240188598633,-0.08278925716876984,1.0904265642166138,1.3536601066589355,-0.09414397180080414,1.268478274345398,-0.5504724383354187,-0.8474575877189636,-0.31048446893692017,0.11694452166557312,-0.35806766152381897,1.4063502550125122
250,3751772,3751774,-0.2551446855068207,-0.18480530381202698,1.099766492843628,1.0617791414260864,1.2078038454055786,0.9563309550285339,-0.5654717087745667,-0.8324583768844604,-0.3134843111038208,0.11557439714670181,-0.35072246193885803,1.4209057092666626
251,3751782,3751784,-0.1557309627532959,-0.09845132380723953,1.0311920642852783,-0.14270928502082825,3.1401729583740234,0.15617215633392334,-0.5489725470542908,-0.8309584259986877,-0.3029848337173462,0.07472769916057587,-0.35794752836227417,1.431564211845398
252,3751792,3751794,-0.09135538339614868,0.09113316237926483,1.0018881559371948,0.5719079971313477,3.0415804386138916,-0.27430060505867004,-0.5534723401069641,-0.8384580612182617,-0.3014849126338959,0.0825282484292984,-0.29826104640960693,1.420039415359497
253,3751802,3751804,-0.04793934151530266,-0.17440848052501678,0.9682080745697021,0.7604479789733887,3.0847864151000977,-0.1308431178331375,-0.5609719157218933,-0.8339582681655884,-0.2969851493835449,0.03088628686964512,-0.30703917145729065,1.4184491634368896
254,3751812,3751814,-0.09698747843503952,-0.08273669332265854,0.990383505821228,0.04298332333564758,3.1046876907348633,-0.23396296799182892,-0.5444727540016174,-0.8324583768844604,-0.2924853563308716,-0.01816723309457302,-0.31460416316986084,1.4193408489227295
255,3751822,3751824,-0.11153290420770645,-0.04902709648013115,1.0099170207977295,-0.3313849866390228,1.9949250221252441,-0.05746941640973091,-0.5534723401069641,-0.8384580612182617,-0.3014849126338959,-0.05220707505941391,-0.32236239314079285,1.420767068862915
256,3751832,3751834,-0.3576066493988037,-0.11393899470567703,1.041304111480713,-1.619689702987671,1.7464133501052856,-0.19949597120285034,-0.5519723892211914,-0.8249587416648865,-0.3059847056865692,-0.0825791135430336,-0.3471960723400116,1.4231629371643066
257,3751842,3751844,-0.22448605298995972,-0.10752727091312408,1.0736132860183716,-1.073725700378418,0.8470967411994934,-0.27149859070777893,-0.5594720244407654,-0.8384580612182617,-0.30748462677001953,-0.12296232581138611,-0.3787398040294647,1.422472357749939
258,3751852,3751854,-0.005814674310386181,-0.05734337866306305,1.0299735069274902,-0.4883236289024353,-1.5813452005386353,-0.20748083293437958,-0.554972231388092,-0.8339582681655884,-0.3119843900203705,-0.12276602536439896,-0.40091997385025024,1.4182528257369995
259,3751862,3751864,-0.01589192822575569,0.018677860498428345,1.036677360534668,0.33335450291633606,-2.193650484085083,-0.2054278552532196,-0.5414729118347168,-0.8294585347175598,-0.3014849126338959,-0.0945839211344719,-0.41173046827316284,1.414417028427124
260,3751872,3751874,-0.017055179923772812,-0.06499804556369781,1.0390617847442627,0.8240361213684082,-3.3007047176361084,-0.20392704010009766,-0.5564721822738647,-0.8324583768844604,-0.3044847846031189,-0.05774018168449402,-0.4124935269355774,1.4053171873092651
261,3751882,3751884,-0.22147679328918457,-0.22799700498580933,1.021471619606018,2.2063345909118652,-4.410598278045654,0.10431737452745438,-0.5609719157218933,-0.8339582681655884,-0.29098543524742126,0.01690024696290493,-0.3942461311817169,1.397987723350525
262,3751892,3751894,-0.3641067445278168,-0.14738357067108154,1.043587327003479,3.3324289321899414,-3.006765127182007,0.3252679705619812,-0.5714713931083679,-0.8354582190513611,-0.29848507046699524,0.09279931336641312,-0.3573991358280182,1.3962111473083496
263,3751902,3751904,-0.21223776042461395,-0.11210190504789352,1.0455724000930786,4.343200206756592,-1.5952121019363403,0.7371225357055664,-0.5504724383354187,-0.8414579033851624,-0.2954852283000946,0.14612704515457153,-0.2972553074359894,1.3973143100738525
264,3751912,3751914,-0.36900094151496887,-0.03413555026054382,1.03600013256073,4.966578960418701,-0.5221182703971863,1.0349584817886353,-0.5594720244407654,-0.8414579033851624,-0.29848507046699524,0.11846888065338135,-0.22221338748931885,1.4150302410125732
265,3751922,3751924,-0.2727978527545929,0.08375374227762222,1.0461716651916504,4.144282817840576,3.2178547382354736,0.5380801558494568,-0.5609719157218933,-0.8339582681655884,-0.29998499155044556,0.1741805076599121,-0.15445490181446075,1.421522855758667
266,3751932,3751934,-0.042706504464149475,-0.009288497269153595,1.0206751823425293,3.5721802711486816,5.098052024841309,0.19053806364536285,-0.5579720735549927,-0.8399580121040344,-0.3029848337173462,0.09281148761510849,-0.09829081594944,1.424932599067688
267,3751942,3751944,-0.13199672102928162,-0.11261770129203796,1.0074948072433472,1.4943722486495972,5.743143081665039,0.1301657259464264,-0.5564721822738647,-0.844457745552063,-0.3044847846031189,0.0008716358570381999,-0.0644322857260704,1.428250789642334
268,3751952,3751954,-0.25865814089775085,-0.5201982855796814,0.996164083480835,0.50471031665802,5.910520076751709,0.7792186141014099,-0.5654717087745667,-0.8264586329460144,-0.3014849126338959,-0.1080111414194107,-0.06203046068549156,1.4296555519104004
269,3751962,3751964,-0.17458575963974,-0.2116726040840149,0.9979618191719055,-1.7968776226043701,4.338932514190674,0.7125420570373535,-0.5519723892211914,-0.8339582681655884,-0.2969851493835449,-0.12189722061157227,-0.07877560704946518,1.433353304862976
270,3751972,3751974,-0.5329290628433228,-0.38167816400527954,1.0263863801956177,-2.2971975803375244,1.9274481534957886,0.8961343765258789,-0.5684715509414673,-0.8264586329460144,-0.3014849126338959,-0.08798541873693466,-0.11346429586410522,1.441229224205017
271,3751982,3751984,-0.653904139995575,-0.18202367424964905,1.0364683866500854,-1.348365306854248,0.6248100399971008,0.5512778759002686,-0.5579720735549927,-0.8309584259986877,-0.2969851493835449,-0.10981810837984085,-0.1467609852552414,1.4519141912460327
272,3751992,3751994,-0.15418566763401031,0.009555160999298096,1.0642812252044678,-0.47055917978286743,-1.2231383323669434,1.067057728767395,-0.5579720735549927,-0.8279585838317871,-0.2939853072166443,-0.10275007039308548,-0.16110332310199738,1.459397792816162
273,3752002,3752004,-0.6915386319160461,-0.0890948548913002,1.0664845705032349,-0.5925564169883728,-2.49625563621521,1.2740734815597534,-0.5609719157218933,-0.8309584259986877,-0.29998499155044556,-0.06581427901983261,-0.17094635963439941,1.4746965169906616
274,3752012,3752014,-1.1807749271392822,-0.1815522313117981,1.073318362236023,0.9336780309677124,-1.3981597423553467,0.6576443314552307,-0.554972231388092,-0.8189590573310852,-0.29098543524742126,-0.11145853251218796,-0.176174595952034,1.4921151399612427
275,3752022,3752024,-0.5028307437896729,-0.03770952299237251,1.0414209365844727,2.725541353225708,0.049894120544195175,0.38199111819267273,-0.5594720244407654,-0.8114594221115112,-0.2864856719970703,-0.10978419333696365,-0.15501026809215546,1.4931392669677734
276,3752032,3752034,-0.046627454459667206,-0.04816926643252373,1.013541579246521,3.5932302474975586,0.5917435884475708,0.54793781042099,-0.56997150182724,-0.8279585838317871,-0.2939853072166443,-0.11112430691719055,-0.11215658485889435,1.493489146232605
277,3752042,3752044,0.031198814511299133,-0.22590422630310059,0.9455980658531189,4.165844917297363,1.3130817413330078,1.181760549545288,-0.5594720244407654,-0.8234587907791138,-0.28948551416397095,-0.12415160983800888,-0.06017282232642174,1.4940245151519775
278,3752052,3752054,0.003152810037136078,-0.0209819208830595,0.9211942553520203,4.08773946762085,0.34390345215797424,0.9690883755683899,-0.5654717087745667,-0.8204589486122131,-0.2954852283000946,-0.133026584982872,0.0016248843166977167,1.498340368270874
279,3752062,3752064,-0.09365939348936081,-0.025401100516319275,0.9618883728981018,3.0963709354400635,-0.31798529624938965,1.4774243831634521,-0.5519723892211914,-0.8339582681655884,-0.2969851493835449,-0.11376804113388062,0.05969278886914253,1.5077754259109497
280,3752072,3752074,-0.06813584268093109,-0.05561627447605133,0.96376633644104,1.2236024141311646,-0.4989793300628662,1.2119457721710205,-0.5669716596603394,-0.836958110332489,-0.29098543524742126,-0.0945122241973877,0.08948656171560287,1.52581787109375
281,3752082,3752084,-0.14630332589149475,-0.13557593524456024,0.9855183959007263,-0.9828680753707886,-0.45921117067337036,0.861574113368988,-0.5669716596603394,-0.8249587416648865,-0.3059847056865692,-0.011422136798501015,0.08696069568395615,1.5363487005233765
282,3752092,3752094,-0.15012431144714355,-0.14052896201610565,1.0191850662231445,-2.0178117752075195,-1.1334409713745117,1.3080132007598877,-0.5669716596603394,-0.8249587416648865,-0.29998499155044556,-0.006952403578907251,0.05675654113292694,1.5470832586288452
283,3752102,3752104,-0.014497548341751099,0.11173741519451141,1.0263553857803345,-3.5336856842041016,-1.7706917524337769,1.2889095544815063,-0.5579720735549927,-0.8309584259986877,-0.2969851493835449,-0.05992359295487404,0.008006961084902287,1.5676660537719727
284,3752112,3752114,-0.041088301688432693,0.02936362475156784,1.0364313125610352,-4.002126216888428,-1.0607019662857056,1.3407522439956665,-0.5564721822738647,-0.8354582190513611,-0.2954852283000946,-0.057923898100852966,-0.06067346781492233,1.5842090845108032
285,3752122,3752124,-0.03777751326560974,-0.09991352260112762,1.0223268270492554,-3.2594692707061768,-0.8816355466842651,1.480418086051941,-0.5684715509414673,-0.8204589486122131,-0.28948551416397095,-0.049535222351551056,-0.12388880550861359,1.5975574254989624
286,3752132,3752134,-0.28662747144699097,-0.16192875802516937,1.0436615943908691,-0.8950604796409607,-0.4448367655277252,1.862115740776062,-0.5594720244407654,-0.8174591064453125,-0.2954852283000946,-0.047836996614933014,-0.1575673371553421,1.6135978698730469
287,3752142,3752144,-0.15227513015270233,-0.13604669272899628,1.0099716186523438,0.27292126417160034,0.1824691742658615,1.6314241886138916,-0.5564721822738647,-0.8264586329460144,-0.2954852283000946,-0.04439409449696541,-0.16673444211483002,1.6318717002868652
288,3752152,3752154,-0.08262524008750916,-0.24831730127334595,0.980442225933075,1.8502247333526611,-0.6128242611885071,1.3372125625610352,-0.5489725470542908,-0.8129593133926392,-0.29098543524742126,-0.047965895384550095,-0.15192925930023193,1.6445122957229614
289,3752162,3752164,-0.05439223721623421,-0.27155160903930664,0.9819260835647583,3.37343430519104,-1.0651363134384155,1.9819259643554688,-0.554972231388092,-0.8249587416648865,-0.2939853072166443,-0.025762880221009254,-0.10912242531776428,1.6579035520553589
290,3752172,3752174,-0.13727369904518127,-0.21090739965438843,0.9984307885169983,6.169977188110352,-1.0950061082839966,1.9904439449310303,-0.5684715509414673,-0.8174591064453125,-0.2954852283000946,0.013816287741065025,-0.03598232939839363,1.6829822063446045
291,3752182,3752184,-0.20722751319408417,-0.21369944512844086,1.0268305540084839,7.0129313468933105,1.4427005052566528,1.7160074710845947,-0.554972231388092,-0.8189590573310852,-0.28498575091362,0.02129427157342434,0.06129588931798935,1.7064515352249146
292,3752192,3752194,-0.06018289551138878,0.010397171601653099,1.0652861595153809,5.805095195770264,3.1277222633361816,1.108005404472351,-0.5609719157218933,-0.8219588994979858,-0.2759861946105957,-0.006329620722681284,0.16109037399291992,1.7230801582336426
293,3752202,3752204,-0.526333749294281,0.10809895396232605,1.0684187412261963,2.11074161529541,3.405339002609253,1.1001970767974854,-0.562471866607666,-0.8144592642784119,-0.28948551416397095,-0.044103845953941345,0.153355211019516,1.7368967533111572
294,3752212,3752214,-0.8280690312385559,-0.2347661703824997,1.0224076509475708,0.06044290214776993,3.080573797225952,0.839201033115387,-0.5714713931083679,-0.8114594221115112,-0.2954852283000946,-0.08674958348274231,0.1686663180589676,1.7494033575057983
295,3752222,3752224,-0.5334123373031616,-0.10059335082769394,0.9833235144615173,-3.056457996368408,3.9271764755249023,0.644390344619751,-0.5519723892211914,-0.8099594712257385,-0.28798559308052063,-0.07228557765483856,0.07197370380163193,1.7577317953109741
296,3752232,3752234,-0.154832124710083,0.044345296919345856,0.9967337846755981,-3.7875492572784424,2.670637845993042,0.17233160138130188,-0.5489725470542908,-0.8249587416648865,-0.29098543524742126,-0.13851159811019897,0.0237180944532156,1.7586495876312256
297,3752242,3752244,-0.1060427874326706,-0.002389226108789444,0.9756407141685486,-4.343782901763916,0.48644599318504333,0.6829749345779419,-0.5609719157218933,-0.8159592151641846,-0.28798559308052063,-0.17277519404888153,-0.03683982789516449,1.7583732604980469
298,3752252,3752254,-0.07287601381540298,-0.1548791229724884,0.9189624190330505,-3.2662928104400635,-0.6794759631156921,0.2710321247577667,-0.5594720244407654,-0.8144592642784119,-0.28948551416397095,-0.18130265176296234,0.03795568645000458,1.7618818283081055
299,3752262,3752264,-0.05199144780635834,-0.06274329870939255,0.8985883593559265,-1.3344991207122803,-1.9364335536956787,0.6378055214881897,-0.5729713439941406,-0.8069596290588379,-0.29998499155044556,-0.23889076709747314,-0.008715113624930382,1.7597967386245728
300,3752272,3752274,-0.039828263223171234,-0.05030922219157219,0.9398304224014282,1.7197823524475098,-3.00582218170166,0.8979446291923523,-0.5714713931083679,-0.8144592642784119,-0.28948551416397095,-0.19103027880191803,-0.011779488064348698,1.7640466690063477
301,3752282,3752284,-0.03182191029191017,-0.11220177263021469,0.919147253036499,2.0736076831817627,-3.2160770893096924,0.4022218883037567,-0.5684715509414673,-0.8114594221115112,-0.2924853563308716,-0.12657612562179565,0.01151668094098568,1.7750781774520874
302,3752292,3752294,-0.05638963356614113,-0.06354428827762604,0.9571640491485596,2.6101207733154297,-2.9062657356262207,0.37127894163131714,-0.5579720735549927,-0.8099594712257385,-0.29098543524742126,-0.06768165528774261,0.04361480474472046,1.785352110862732
303,3752302,3752304,0.010683693923056126,-0.19364064931869507,0.9640194773674011,2.446979522705078,-2.7799532413482666,0.4529527723789215,-0.5684715509414673,-0.8174591064453125,-0.29848507046699524,-0.09046738594770432,0.012594192288815975,1.789762020111084
304,3752312,3752314,-0.06511514633893967,-0.2794305682182312,0.9871267676353455,1.4475080966949463,-2.2657907009124756,0.7944588661193848,-0.5684715509414673,-0.8324583768844604,-0.28948551416397095,-0.03973585367202759,0.049172863364219666,1.798659086227417
305,3752322,3752324,-0.08713579177856445,-0.0037063302006572485,1.0204298496246338,-0.08203693479299545,-2.4976959228515625,0.8425641059875488,-0.5534723401069641,-0.8204589486122131,-0.29848507046699524,0.011398199014365673,0.06426765769720078,1.813568115234375
306,3752332,3752334,-0.04850192368030548,0.06476626545190811,1.0322227478027344,-1.1272785663604736,-2.383970260620117,0.5799785256385803,-0.5594720244407654,-0.8144592642784119,-0.2924853563308716,0.04783254861831665,0.05462367832660675,1.8259122371673584
307,3752342,3752344,0.09074359387159348,0.14297640323638916,1.013481616973877,-2.2359423637390137,-1.3820819854736328,0.21561458706855774,-0.5609719157218933,-0.8219588994979858,-0.29998499155044556,0.052472010254859924,0.024309340864419937,1.8321938514709473
308,3752352,3752354,0.09340277314186096,-0.09699779748916626,1.0007883310317993,-3.3562350273132324,-1.417953372001648,0.5411401987075806,-0.5534723401069641,-0.8204589486122131,-0.2864856719970703,-0.023511547595262527,-0.018695155158638954,1.8329795598983765
309,3752362,3752364,-0.8519465923309326,-0.3911389112472534,1.024214506149292,-3.1028289794921875,-1.9568688869476318,0.6311430931091309,-0.5594720244407654,-0.8114594221115112,-0.2864856719970703,-0.010781971737742424,-0.06915335357189178,1.8387799263000488
310,3752372,3752374,-0.5083599090576172,-0.2408655285835266,0.969920814037323,-1.1391297578811646,-2.0733683109283447,0.35199883580207825,-0.5609719157218933,-0.8219588994979858,-0.3029848337173462,0.020418129861354828,-0.10072386264801025,1.8457812070846558
311,3752382,3752384,-0.13308407366275787,-0.15092432498931885,0.963748574256897,0.6085405945777893,-2.500892400741577,0.9187935590744019,-0.5639718174934387,-0.8339582681655884,-0.28798559308052063,-0.028399942442774773,-0.10937285423278809,1.846921682357788
312,3752392,3752394,-0.11745234578847885,-0.03450050950050354,0.9821304082870483,2.975947618484497,-3.159465789794922,0.9147933125495911,-0.5564721822738647,-0.8354582190513611,-0.29848507046699524,-0.06073768064379692,-0.08514384925365448,1.8506567478179932
313,3752402,3752404,-0.3787819445133209,-0.10396372526884079,0.953031599521637,5.042598247528076,-3.7413575649261475,0.5386752486228943,-0.554972231388092,-0.8159592151641846,-0.2969851493835449,0.013541750609874725,-0.023410052061080933,1.8610714673995972
314,3752412,3752414,-0.20958594977855682,-0.10666339099407196,0.9904676079750061,5.916470527648926,-1.9634758234024048,0.3562045395374298,-0.5564721822738647,-0.8264586329460144,-0.3014849126338959,0.08042673766613007,0.06265223771333694,1.870227575302124
315,3752422,3752424,-0.1084979847073555,-0.10756590217351913,1.0254697799682617,5.6886444091796875,-0.271343469619751,0.28740930557250977,-0.5519723892211914,-0.8309584259986877,-0.28798559308052063,0.04587055742740631,0.1561460644006729,1.8746285438537598
316,3752432,3752434,-0.02790987305343151,0.02227065898478031,1.0133880376815796,4.220120429992676,1.4839469194412231,0.7244096994400024,-0.562471866607666,-0.8234587907791138,-0.29848507046699524,0.059463050216436386,0.09865838289260864,1.8810656070709229
317,3752442,3752444,-0.22147038578987122,-0.23764203488826752,1.0065624713897705,2.085444211959839,1.4495229721069336,0.5305468440055847,-0.562471866607666,-0.8234587907791138,-0.29848507046699524,0.05014660954475403,0.22526223957538605,1.886049747467041
318,3752452,3752454,-0.2201949506998062,-0.16278859972953796,1.0487838983535767,-0.5615627765655518,0.3209270238876343,0.3047977387905121,-0.562471866607666,-0.8234587907791138,-0.29848507046699524,0.048875920474529266,0.09754756093025208,1.8940049409866333
319,3752462,3752464,-0.0633382499217987,0.06865690648555756,1.0333995819091797,-2.8771936893463135,0.02913561649620533,-0.7510719299316406,-0.5609719157218933,-0.8159592151641846,-0.3059847056865692,0.04436606168746948,0.078525610268116,1.895580530166626
320,3752472,3752474,-0.051173049956560135,0.026749303564429283,0.9915376305580139,-3.32753324508667,-0.6515395045280457,-0.9516973495483398,-0.5609719157218933,-0.8159592151641846,-0.28798559308052063,0.04027082398533821,0.03667771443724632,1.8830821514129639
321,3752482,3752484,-0.02623846009373665,-0.06379050016403198,0.9933139085769653,-2.1918845176696777,-1.5049830675125122,-0.43245556950569153,-0.56997150182724,-0.8219588994979858,-0.2969851493835449,0.0619993582367897,0.20845972001552582,1.8700709342956543
322,3752492,3752494,-0.018554851412773132,-0.05081729590892792,0.9635045528411865,-0.3502681851387024,-1.831205129623413,-0.26368486881256104,-0.5609719157218933,-0.8069596290588379,-0.28498575091362,0.02636481635272503,0.17425954341888428,1.8621495962142944
323,3752502,3752504,0.014480275101959705,-0.027914367616176605,0.9495881795883179,0.1652914583683014,-1.7700786590576172,0.045577798038721085,-0.5639718174934387,-0.8129593133926392,-0.28498575091362,0.06941499561071396,0.16338485479354858,1.8579069375991821
324,3752512,3752514,-0.08618279546499252,-0.01297394186258316,0.9557017087936401,0.519548773765564,-2.3218533992767334,-0.08687011897563934,-0.5579720735549927,-0.8339582681655884,-0.2939853072166443,0.11523766815662384,0.09431663155555725,1.855338454246521
325,3752522,3752524,-0.021060993894934654,0.02680027484893799,0.9336928725242615,0.21997478604316711,-2.9565181732177734,-0.359552800655365,-0.5654717087745667,-0.8144592642784119,-0.2924853563308716,0.11170299351215363,0.10315436869859695,1.8522614240646362
326,3752532,3752534,-0.10491418093442917,-0.09786049276590347,0.9530150890350342,-0.3272470235824585,-1.5461395978927612,-0.7366045117378235,-0.5654717087745667,-0.8354582190513611,-0.3044847846031189,0.18052195012569427,0.10212623327970505,1.8525233268737793
327,3752542,3752544,-0.21800290048122406,-0.1330447643995285,0.9579581618309021,-0.6956311464309692,0.062396302819252014,-0.6618906259536743,-0.5504724383354187,-0.8324583768844604,-0.2954852283000946,0.21853522956371307,0.09454667568206787,1.8477857112884521
328,3752552,3752554,-0.4014939069747925,-0.17457148432731628,0.9990920424461365,-1.3072943687438965,-0.22660449147224426,-0.1922895908355713,-0.5489725470542908,-0.8249587416648865,-0.28798559308052063,0.24036456644535065,0.08283831179141998,1.8423916101455688
329,3752562,3752564,-0.030719053000211716,-0.04533091187477112,1.0019340515136719,-1.0959076881408691,-0.4065609872341156,-0.3921090066432953,-0.5474725961685181,-0.8294585347175598,-0.29848507046699524,0.2495369166135788,0.1320350021123886,1.837883472442627
330,3752572,3752574,-0.071778304874897,0.08260991424322128,1.0137099027633667,-2.443119764328003,-0.27121254801750183,0.8289540410041809,-0.5414729118347168,-0.8264586329460144,-0.3044847846031189,0.24921253323554993,0.09444505721330643,1.8393100500106812
331,3752582,3752584,0.022902358323335648,0.16495560109615326,0.9685883522033691,-1.2830734252929688,-0.1743614375591278,0.16896767914295197,-0.5564721822738647,-0.8384580612182617,-0.3014849126338959,0.22813940048217773,0.055426549166440964,1.8447831869125366
332,3752592,3752594,0.04190728813409805,-0.009025794453918934,0.9765480160713196,-1.9059350490570068,-0.1824837177991867,0.0908142626285553,-0.5429728627204895,-0.8339582681655884,-0.29998499155044556,0.2134581357240677,0.027472294867038727,1.8426265716552734
333,3752602,3752604,-0.3241012394428253,-0.012874873355031013,0.9793202877044678,-0.9792861342430115,1.3198418617248535,-0.3855641782283783,-0.5639718174934387,-0.8309584259986877,-0.3029848337173462,0.2042067050933838,-0.06542717665433884,1.84480881690979
334,3752612,3752614,-1.1137362718582153,-0.732247531414032,0.9686234593391418,-0.6755237579345703,2.3872292041778564,0.0494835339486599,-0.5474725961685181,-0.8324583768844604,-0.2954852283000946,0.17025978863239288,-0.010139056481420994,1.837846040725708
335,3752622,3752624,-0.6869716048240662,-0.7518178224563599,0.9720919132232666,0.6242095232009888,2.8160526752471924,0.6655157804489136,-0.5414729118347168,-0.8324583768844604,-0.29848507046699524,0.12313808500766754,-0.01590651459991932,1.8375158309936523
336,3752632,3752634,-0.8943361043930054,-0.20298774540424347,0.973120927810669,1.9075820446014404,1.9688135385513306,0.5669980645179749,-0.5399730205535889,-0.8399580121040344,-0.3029848337173462,0.09765332192182541,0.004043367691338062,1.8473855257034302
337,3752642,3752644,-0.39804327487945557,0.015601711347699165,0.9765838384628296,1.9734185934066772,2.3917667865753174,0.4234611392021179,-0.5504724383354187,-0.844457745552063,-0.29848507046699524,0.0660865381360054,0.033085450530052185,1.8525282144546509
338,3752652,3752654,-0.06325157731771469,0.06549346446990967,1.06267249584198,1.4363420009613037,2.7222061157226562,0.21063020825386047,-0.554972231388092,-0.8399580121040344,-0.3029848337173462,0.02568645216524601,0.057886529713869095,1.8536792993545532
339,3752662,3752664,0.007805586326867342,0.15735861659049988,1.0750441551208496,0.8632342219352722,1.6188992261886597,0.263125479221344,-0.5759711861610413,-0.8339582681655884,-0.28498575091362,0.0007633864297531545,0.07541351020336151,1.8552604913711548
340,3752672,3752674,-0.17471225559711456,-0.005537622608244419,1.086526870727539,-0.5734255313873291,0.39595070481300354,0.5521355271339417,-0.5504724383354187,-0.8264586329460144,-0.3044847846031189,-0.0056249359622597694,0.0768776684999466,1.8592764139175415
341,3752682,3752684,-0.04643247276544571,-0.018893642351031303,1.0116729736328125,-0.5340667366981506,-1.2984375953674316,0.1635001301765442,-0.5519723892211914,-0.8339582681655884,-0.28498575091362,-0.0056755724363029,0.06405940651893616,1.8619903326034546
342,3752692,3752694,-0.0016873154090717435,0.05268062278628349,1.0037161111831665,-1.3087977170944214,-1.948501467704773,-0.25801220536231995,-0.5684715509414673,-0.8384580612182617,-0.3014849126338959,0.011710342951118946,0.04621940851211548,1.8605984449386597
343,3752702,3752704,-0.005846711806952953,-0.09422005712985992,0.9641247391700745,-1.1535580158233643,-3.66668701171875,0.2000417858362198,-0.5564721822738647,-0.8294585347175598,-0.2924853563308716,0.0605967752635479,0.025269631296396255,1.8585189580917358
344,3752712,3752714,-0.055548045784235,-0.07857801765203476,0.9727058410644531,-1.9182641506195068,-3.629734992980957,0.1967531442642212,-0.562471866607666,-0.8294585347175598,-0.3014849126338959,0.05539443716406822,-0.0709676593542099,1.8623040914535522
345,3752722,3752724,-0.04949295148253441,-0.03481194004416466,0.9795804023742676,-1.278669834136963,-2.4841012954711914,0.46273255348205566,-0.5444727540016174,-0.8264586329460144,-0.28948551416397095,0.11589675396680832,-0.09112430363893509,1.8633848428726196
346,3752732,3752734,-0.31386426091194153,0.016214312985539436,1.001175045967102,-0.6636504530906677,-1.6786410808563232,0.9905136823654175,-0.5564721822738647,-0.8354582190513611,-0.31048446893692017,0.16378504037857056,-0.09781811386346817,1.8720990419387817
347,3752742,3752744,-0.3627588152885437,-0.037660904228687286,1.0223352909088135,-0.2858160138130188,-0.49364718794822693,0.6624687314033508,-0.5489725470542908,-0.8309584259986877,-0.31798410415649414,0.18911659717559814,-0.10203413665294647,1.8892500400543213
348,3752752,3752754,-0.12658873200416565,-0.06003529578447342,1.0566929578781128,1.5080809593200684,1.7509198188781738,0.548613965511322,-0.5489725470542908,-0.836958110332489,-0.2969851493835449,0.16758443415164948,-0.09053033590316772,1.8973509073257446
349,3752762,3752764,0.06473518908023834,0.08195077627897263,1.0497981309890747,1.5138317346572876,2.7100181579589844,0.2940652370452881,-0.5609719157218933,-0.851957380771637,-0.3029848337173462,0.11566027998924255,-0.06275077909231186,1.8984870910644531
350,3752772,3752774,-0.03933822736144066,-0.011608553119003773,1.0508841276168823,1.5576976537704468,2.120506525039673,0.17318902909755707,-0.554972231388092,-0.8309584259986877,-0.29998499155044556,0.06884609162807465,-0.03641287237405777,1.8988652229309082
351,3752782,3752784,0.004580262582749128,-0.06291218101978302,1.0060802698135376,1.652000069618225,1.2216222286224365,0.9439171552658081,-0.5519723892211914,-0.8309584259986877,-0.2969851493835449,0.03897680714726448,-0.011917243711650372,1.8988569974899292
352,3752792,3752794,0.011152318678796291,-0.09287428110837936,0.9627626538276672,1.6315230131149292,-1.2355374097824097,0.30745553970336914,-0.5639718174934387,-0.8399580121040344,-0.2939853072166443,0.04068132862448692,0.016207996755838394,1.9026069641113281
353,3752802,3752804,-0.1339615434408188,-0.015938403084874153,1.0057415962219238,0.4485415816307068,-3.3325698375701904,0.8596705794334412,-0.5504724383354187,-0.8294585347175598,-0.29848507046699524,0.10525327920913696,0.03953566774725914,1.902965784072876
354,3752812,3752814,-0.022058045491576195,-0.058364078402519226,0.9832633137702942,-1.6812063455581665,-3.5721120834350586,0.3786832094192505,-0.5519723892211914,-0.8249587416648865,-0.3059847056865692,0.1668718308210373,0.031045783311128616,1.9104403257369995
355,3752822,3752824,-0.31334030628204346,-0.13618125021457672,1.0274138450622559,-2.4532933235168457,-3.227412223815918,0.4166089594364166,-0.5489725470542908,-0.8459576964378357,-0.3119843900203705,0.22313296794891357,0.0021544385235756636,1.9150961637496948
356,3752832,3752834,-0.3205481171607971,-0.15732884407043457,1.035217523574829,-2.5190744400024414,-2.409663677215576,0.8021082878112793,-0.5609719157218933,-0.836958110332489,-0.29998499155044556,0.13220664858818054,0.11036492139101028,1.9172420501708984
357,3752842,3752844,-0.14474937319755554,-0.05372580140829086,1.0099555253982544,-2.9489190578460693,-1.289208173751831,1.132946252822876,-0.554972231388092,-0.8399580121040344,-0.28798559308052063,0.23451311886310577,-0.009174946695566177,1.9326510429382324
358,3752852,3752854,-0.023820290341973305,-0.1057649478316307,1.0229052305221558,-3.1470983028411865,-0.12094021588563919,0.9226277470588684,-0.5579720735549927,-0.8189590573310852,-0.30898454785346985,0.2178487926721573,0.004779688082635403,1.9434486627578735
359,3752862,3752864,0.07758865505456924,-0.032703664153814316,1.0316548347473145,-2.1527762413024902,0.11524996906518936,0.7525161504745483,-0.5474725961685181,-0.8234587907791138,-0.2924853563308716,0.18628354370594025,-0.048212651163339615,1.9484868049621582
360,3752872,3752874,-0.033474452793598175,-0.1585676372051239,0.9877713918685913,-1.098745584487915,0.07931474596261978,0.8051472306251526,-0.5564721822738647,-0.8294585347175598,-0.3014849126338959,0.11071472615003586,-0.08291041105985641,1.9561578035354614
361,3752882,3752884,-0.21926940977573395,-0.18391232192516327,1.006726861000061,-0.7681989669799805,1.8121410608291626,0.5840767025947571,-0.5564721822738647,-0.8324583768844604,-0.3014849126338959,0.1785726398229599,-0.10629470646381378,1.966625690460205
362,3752892,3752894,-0.16735349595546722,-0.08722679316997528,1.009912371635437,-0.21745389699935913,3.0629873275756836,0.8287347555160522,-0.5459727048873901,-0.8309584259986877,-0.2969851493835449,0.1450553983449936,-0.11614248156547546,1.9754773378372192
363,3752902,3752904,-0.17495261132717133,-0.18917801976203918,1.0517369508743286,0.37870723009109497,1.5756129026412964,0.3732595145702362,-0.5579720735549927,-0.8249587416648865,-0.28798559308052063,0.059139348566532135,-0.11128253489732742,1.987966537475586
364,3752912,3752914,-0.2666627764701843,-0.08476078510284424,1.0494738817214966,0.9586867094039917,1.7888357639312744,0.9808750152587891,-0.5519723892211914,-0.8219588994979858,-0.28798559308052063,0.13005578517913818,-0.09999769926071167,1.9985672235488892
365,3752922,3752924,-0.10949515551328659,0.06995570659637451,1.0207463502883911,0.5292195081710815,3.2132761478424072,0.3809646666049957,-0.5639718174934387,-0.8309584259986877,-0.2969851493835449,0.0910838395357132,-0.08929848670959473,2.0083930492401123
366,3752932,3752934,-0.04110901802778244,-0.11467881500720978,1.001405954360962,0.1582084447145462,2.7045111656188965,0.1326763778924942,-0.554972231388092,-0.8279585838317871,-0.29098543524742126,0.04742267355322838,-0.08432946354150772,2.0119125843048096
367,3752942,3752944,0.004509683698415756,-0.1626855880022049,1.04334557056427,1.1977812051773071,1.343765377998352,0.4159131646156311,-0.5444727540016174,-0.8264586329460144,-0.2924853563308716,0.016717173159122467,-0.07530931383371353,2.012633800506592
368,3752952,3752954,-0.055172719061374664,-0.12033826857805252,0.9890245199203491,-1.1099555492401123,1.3767504692077637,0.3472750782966614,-0.562471866607666,-0.8294585347175598,-0.29848507046699524,-0.014069166965782642,-0.07741124927997589,2.0130128860473633
369,3752962,3752964,-0.02018868550658226,-0.04628963768482208,0.9537116289138794,-0.4799789488315582,-0.16195113956928253,0.10969516634941101,-0.5609719157218933,-0.8279585838317871,-0.2939853072166443,-0.03508666157722473,-0.09087046980857849,2.00972843170166
370,3752972,3752974,-0.07839451730251312,-0.1516697257757187,0.947710394859314,-0.8411360383033752,-1.2367968559265137,0.1783038079738617,-0.554972231388092,-0.8339582681655884,-0.28498575091362,-0.018330514430999756,-0.10208038985729218,2.01078462600708
371,3752982,3752984,-0.20978830754756927,-0.45059043169021606,0.9888790845870972,-1.0888729095458984,-1.5470085144042969,-0.10396295040845871,-0.5654717087745667,-0.8264586329460144,-0.28948551416397095,0.017583295702934265,-0.1197371557354927,2.016632556915283
372,3752992,3752994,-0.23191416263580322,-0.681815505027771,0.9937102198600769,-1.4054443836212158,-1.3884892463684082,0.2864546477794647,-0.5489725470542908,-0.8099594712257385,-0.29098543524742126,0.05222240462899208,-0.1385340690612793,2.0174081325531006
373,3753002,3753004,-0.1242748573422432,-0.19328835606575012,1.020739197731018,-1.7067354917526245,-1.4762674570083618,0.014152987860143185,-0.5579720735549927,-0.8219588994979858,-0.3059847056865692,0.09293663501739502,-0.15525773167610168,2.0233728885650635
374,3753012,3753014,-0.06716620922088623,-0.04882620647549629,1.0375244617462158,-1.1013998985290527,-0.5287200808525085,0.5128525495529175,-0.5489725470542908,-0.8219588994979858,-0.29098543524742126,0.12153979390859604,-0.16777196526527405,2.0307650566101074
375,3753022,3753024,-0.083321712911129,0.06357984244823456,1.0678138732910156,-0.681428849697113,1.4876258373260498,0.03918832167983055,-0.5609719157218933,-0.8249587416648865,-0.28198590874671936,0.11236608028411865,-0.11237246543169022,2.0358693599700928
376,3753032,3753034,0.03397354111075401,0.14326070249080658,1.0293751955032349,0.7551647424697876,2.1064207553863525,-0.49079629778862,-0.562471866607666,-0.8204589486122131,-0.3014849126338959,0.0725899413228035,-0.1169518455862999,2.0321338176727295
377,3753042,3753044,-0.06794070452451706,0.042437322437763214,1.0148115158081055,0.904114842414856,2.181633234024048,-0.051855530589818954,-0.5654717087745667,-0.8294585347175598,-0.2924853563308716,0.039438262581825256,-0.10725616663694382,2.0256385803222656
378,3753052,3753054,-0.41811293363571167,-0.10614319890737534,0.9459484815597534,0.21043817698955536,1.9092594385147095,-0.14224033057689667,-0.5534723401069641,-0.8354582190513611,-0.3014849126338959,0.004045441281050444,-0.1032702699303627,2.02156925201416
379,3753062,3753064,-0.13659241795539856,0.004706345498561859,0.9453338980674744,-0.8009650707244873,0.5613939762115479,-0.34167781472206116,-0.5519723892211914,-0.8339582681655884,-0.3059847056865692,-0.025644225999712944,-0.03967331722378731,2.011934757232666
380,3753072,3753074,-0.006847393698990345,-0.07833153009414673,0.9502973556518555,-0.8130799531936646,-0.5078104138374329,0.07246258854866028,-0.562471866607666,-0.8264586329460144,-0.3014849126338959,-0.02223176509141922,-0.12517289817333221,2.006805181503296
381,3753082,3753084,-0.030027955770492554,-0.13826535642147064,0.9496634602546692,-1.4234477281570435,-1.483781099319458,-0.08602263033390045,-0.5639718174934387,-0.8189590573310852,-0.29998499155044556,0.008463636040687561,-0.14333286881446838,2.011749744415283
382,3753092,3753094,-0.0681459829211235,-0.07130168378353119,0.962050199508667,-2.498145818710327,-1.8092577457427979,-0.7395176291465759,-0.5579720735549927,-0.8309584259986877,-0.29098543524742126,0.039474137127399445,-0.10528505593538284,2.0130138397216797
383,3753102,3753104,-0.03828142210841179,0.05040235444903374,0.9961379766464233,-2.031341552734375,-2.4231369495391846,-0.5556524991989136,-0.5579720735549927,-0.8159592151641846,-0.29098543524742126,0.07644449919462204,-0.14232580363750458,2.0090205669403076
384,3753112,3753114,-0.19865696132183075,-0.02808060683310032,1.0222493410110474,-2.6677231788635254,-2.34845232963562,-0.9036806225776672,-0.5579720735549927,-0.8279585838317871,-0.28498575091362,0.11270789057016373,-0.1830122172832489,2.002781391143799
385,3753122,3753124,-0.06114751845598221,-0.04239619895815849,1.0064184665679932,-2.450291872024536,-0.027259722352027893,-1.3458492755889893,-0.5429728627204895,-0.8219588994979858,-0.28198590874671936,0.130417138338089,-0.22591601312160492,1.9956213235855103
386,3753132,3753134,-0.0019271528581157327,0.01916104182600975,0.9915502667427063,-1.1285195350646973,0.34787967801094055,-1.7034987211227417,-0.5519723892211914,-0.8249587416648865,-0.29998499155044556,0.13594229519367218,-0.2512595057487488,1.9834716320037842
387,3753142,3753144,-0.055947475135326385,-0.07565844058990479,1.0222896337509155,-0.748018741607666,1.382412075996399,-1.3822193145751953,-0.5489725470542908,-0.8309584259986877,-0.29098543524742126,0.12398403882980347,-0.26840004324913025,1.9674144983291626
388,3753152,3753154,-0.080452099442482,-0.4373651146888733,1.005933165550232,-0.041119348257780075,1.889432430267334,-1.1464265584945679,-0.5564721822738647,-0.8174591064453125,-0.3014849126338959,0.09014712274074554,-0.276996910572052,1.952021837234497
389,3753162,3753164,-0.03579021990299225,-0.2701858878135681,0.9662095904350281,1.2266247272491455,1.3371907472610474,-1.128967046737671,-0.5489725470542908,-0.8339582681655884,-0.3029848337173462,0.05660178139805794,-0.1298840194940567,1.9329026937484741
390,3753172,3753174,-0.00937818642705679,-0.05636334419250488,0.9441773891448975,2.909468650817871,0.21609501540660858,-1.0172449350357056,-0.5519723892211914,-0.8309584259986877,-0.29998499155044556,0.05610119551420212,-0.17355532944202423,1.9172344207763672
391,3753182,3753184,-0.2280217707157135,-0.1726435273885727,0.9982990622520447,1.7890739440917969,0.045246947556734085,-0.7227841019630432,-0.5474725961685181,-0.8354582190513611,-0.2954852283000946,0.08596570789813995,-0.20637203752994537,1.9086658954620361
392,3753192,3753194,-0.4400537312030792,-0.1080702617764473,0.9763332605361938,1.4453438520431519,0.3484698534011841,-1.2440495491027832,-0.5504724383354187,-0.8264586329460144,-0.3014849126338959,0.10249840468168259,-0.17670296132564545,1.9013452529907227
393,3753202,3753204,-0.31344231963157654,0.05101655423641205,1.0038220882415771,0.6641453504562378,0.267825186252594,-1.04865562915802,-0.5474725961685181,-0.8264586329460144,-0.2954852283000946,0.11247830837965012,-0.157272607088089,1.8899612426757812
394,3753212,3753214,-0.15288355946540833,0.08902799338102341,1.0381327867507935,-0.4838273823261261,-0.6314862966537476,-0.44095927476882935,-0.554972231388092,-0.836958110332489,-0.3119843900203705,0.1192847490310669,-0.14598418772220612,1.8861205577850342
395,3753222,3753224,-0.007220802828669548,0.20933671295642853,1.0160340070724487,-2.8680145740509033,-0.6110842227935791,-0.6673804521560669,-0.554972231388092,-0.836958110332489,-0.3119843900203705,0.11313960701227188,-0.17112234234809875,1.8864110708236694
396,3753232,3753234,0.10695966333150864,-0.04778314381837845,1.031806468963623,-2.960476875305176,-0.717962920665741,-0.7836856245994568,-0.554972231388092,-0.836958110332489,-0.3119843900203705,0.1611742079257965,-0.21552175283432007,1.874660611152649
397,3753242,3753244,-0.0004345031047705561,-0.20388053357601166,1.0392539501190186,-2.708517074584961,-1.5886183977127075,-0.27620163559913635,-0.5534723401069641,-0.850457489490509,-0.30748462677001953,0.1550484001636505,-0.26053303480148315,1.8669096231460571
398,3753252,3753254,-1.0426812171936035,-1.0744868516921997,0.9920770525932312,-1.3254594802856445,-3.252131223678589,-0.3451363146305084,-0.5384730696678162,-0.8474575877189636,-0.3044847846031189,0.17082791030406952,-0.2959723174571991,1.8618332147598267
399,3753262,3753264,-1.3464300632476807,-1.0098330974578857,1.0155320167541504,-0.36835187673568726,-2.2875609397888184,-0.06055658310651779,-0.5504724383354187,-0.8354582190513611,-0.31048446893692017,0.2022424042224884,-0.23870284855365753,1.8580608367919922
400,3753272,3753274,-0.9976071715354919,-0.5416918396949768,1.037839651107788,1.1511238813400269,-2.1237576007843018,0.3468213379383087,-0.5429728627204895,-0.8399580121040344,-0.2969851493835449,0.2543526291847229,-0.2305632382631302,1.860519528388977
401,3753282,3753284,-0.7391955852508545,-0.2128113955259323,1.0041420459747314,4.130273818969727,-0.006046149414032698,0.09510152786970139,-0.5489725470542908,-0.836958110332489,-0.29098543524742126,0.2862758934497833,-0.1909462809562683,1.8678514957427979
402,3753292,3753294,-0.27448180317878723,-0.0673559233546257,1.049749493598938,4.639166355133057,1.7752597332000732,-0.5089446902275085,-0.554972231388092,-0.8399580121040344,-0.29998499155044556,0.2705652117729187,-0.1279669851064682,1.8716621398925781
403,3753302,3753304,-0.9632354974746704,-0.19745346903800964,1.0745915174484253,3.9583725929260254,4.500771522521973,0.12070649862289429,-0.554972231388092,-0.8429578542709351,-0.3059847056865692,0.2156630903482437,-0.12846893072128296,1.871079444885254
404,3753312,3753314,-0.5651364922523499,-0.09985344856977463,1.0138061046600342,2.957648754119873,6.083663463592529,0.7139992713928223,-0.5444727540016174,-0.8354582190513611,-0.3014849126338959,0.11586116999387741,-0.07495111972093582,1.8721098899841309
405,3753322,3753324,-0.12909169495105743,-0.07366611063480377,0.9820796847343445,1.5340672731399536,5.233177185058594,0.24465420842170715,-0.5474725961685181,-0.8384580612182617,-0.3014849126338959,0.14435891807079315,-0.11053290218114853,1.871014952659607
406,3753332,3753334,-0.2825622260570526,-0.22126664221286774,0.9824669361114502,0.013457671739161015,5.379209041595459,-0.23351962864398956,-0.5579720735549927,-0.8219588994979858,-0.29998499155044556,0.11014615744352341,-0.09101220220327377,1.8712196350097656
407,3753342,3753344,-0.1428530514240265,-0.20918212831020355,1.0041331052780151,-2.2409753799438477,4.666600227355957,-0.5116204023361206,-0.5594720244407654,-0.8234587907791138,-0.2954852283000946,0.020359769463539124,-0.10528481006622314,1.8751777410507202
408,3753352,3753354,-0.11030326783657074,-0.31209853291511536,1.0194942951202393,-2.753192663192749,3.737089157104492,-0.8751436471939087,-0.5534723401069641,-0.8324583768844604,-0.3134843111038208,-0.05237738788127899,-0.13856078684329987,1.8741354942321777
409,3753362,3753364,-0.29787081480026245,-0.09430526942014694,1.0458050966262817,-2.0320990085601807,1.5523719787597656,-0.10171962529420853,-0.5444727540016174,-0.8294585347175598,-0.29848507046699524,-0.090213343501091,-0.165107861161232,1.8742027282714844
410,3753372,3753374,-0.1842237263917923,0.017941944301128387,1.0862599611282349,-2.047201633453369,1.0215431451797485,-0.184482604265213,-0.5504724383354187,-0.8354582190513611,-0.30748462677001953,-0.11124313622713089,-0.19072532653808594,1.8780409097671509
411,3753382,3753384,0.002022271975874901,0.0953417718410492,1.0319616794586182,-0.5081804394721985,0.5489530563354492,-0.3476393222808838,-0.5489725470542908,-0.8339582681655884,-0.2939853072166443,-0.14451439678668976,-0.20864783227443695,1.873035192489624
412,3753392,3753394,-0.0387776717543602,-0.008143563754856586,1.023390293121338,1.0705819129943848,-0.37893351912498474,-0.28721165657043457,-0.5594720244407654,-0.8294585347175598,-0.3044847846031189,-0.157095804810524,-0.20106405019760132,1.869221806526184
413,3753402,3753404,-0.2576374113559723,-0.35412153601646423,0.9695501327514648,2.1131842136383057,-0.7866348028182983,0.3743674159049988,-0.5594720244407654,-0.8354582190513611,-0.2924853563308716,-0.14949658513069153,-0.1748512238264084,1.8656421899795532
414,3753412,3753414,-0.4771263897418976,-0.17480570077896118,0.9549190402030945,2.8592586517333984,-1.725281000137329,-0.23861336708068848,-0.5579720735549927,-0.8309584259986877,-0.2969851493835449,0.002884715097025037,-0.1322801262140274,1.859473466873169
415,3753422,3753424,-0.1805608868598938,-0.07469203323125839,0.9587553143501282,2.431525468826294,-3.541844606399536,-0.40480634570121765,-0.5594720244407654,-0.8264586329460144,-0.30748462677001953,-0.030933158472180367,-0.0815468281507492,1.8571703433990479
416,3753432,3753434,-0.07712168246507645,-0.06343106925487518,0.9712933301925659,3.500446081161499,-2.8393821716308594,0.030524129047989845,-0.5534723401069641,-0.8324583768844604,-0.29848507046699524,0.02693757973611355,-0.02963857352733612,1.8602238893508911
417,3753442,3753444,-0.021398335695266724,0.12519100308418274,1.008076786994934,2.028974771499634,-0.5885514616966248,-0.46196725964546204,-0.554972231388092,-0.8249587416648865,-0.28798559308052063,0.04266124218702316,-0.05311812460422516,1.8632279634475708
418,3753452,3753454,-0.2900812327861786,0.07178635150194168,1.0236759185791016,0.8893527388572693,1.501907229423523,-0.5187183618545532,-0.5489725470542908,-0.8099594712257385,-0.2969851493835449,0.015155396424233913,-0.017609858885407448,1.8603628873825073
419,3753462,3753464,-0.8784606456756592,-0.4008060395717621,0.9960740208625793,-0.5987507104873657,1.6610654592514038,-0.6572580337524414,-0.5489725470542908,-0.8279585838317871,-0.29998499155044556,-0.019966334104537964,-0.0061837839893996716,1.8551783561706543
420,3753472,3753474,-0.922794759273529,-0.4174858629703522,1.017805814743042,-2.440633773803711,3.0209109783172607,-0.21835428476333618,-0.5534723401069641,-0.844457745552063,-0.2924853563308716,-0.01387002132833004,-0.031360067427158356,1.8492116928100586
421,3753482,3753484,-0.2630957067012787,-0.07923049479722977,1.0371689796447754,-3.669790744781494,1.4110188484191895,-0.19120649993419647,-0.5504724383354187,-0.8234587907791138,-0.29848507046699524,-0.09039995074272156,-0.07995057851076126,1.8416645526885986
422,3753492,3753494,0.032789990305900574,-0.07423509657382965,0.9767758250236511,-2.7203993797302246,1.6300657987594604,0.17216035723686218,-0.5504724383354187,-0.8324583768844604,-0.30748462677001953,-0.13241292536258698,-0.12477996945381165,1.8383179903030396
423,3753502,3753504,-0.07236310094594955,-0.5168232917785645,1.0148091316223145,-1.6055625677108765,1.0918357372283936,0.5744766592979431,-0.5489725470542908,-0.8339582681655884,-0.3059847056865692,-0.08214913308620453,-0.1574854552745819,1.8408617973327637
424,3753512,3753514,-0.3050011694431305,-1.0696083307266235,1.0220016241073608,2.2595226764678955,1.2104116678237915,0.5109207630157471,-0.5564721822738647,-0.8174591064453125,-0.3014849126338959,-0.09843160957098007,-0.1491907835006714,1.8454973697662354
425,3753522,3753524,-0.7300352454185486,-1.0900934934616089,1.0714831352233887,4.4026875495910645,-0.23210926353931427,0.03923054784536362,-0.5639718174934387,-0.8279585838317871,-0.29098543524742126,-0.0913047268986702,-0.08779429644346237,1.8529748916625977
426,3753532,3753534,-0.5853726863861084,-0.28245440125465393,1.061497449874878,4.217304229736328,2.2431910037994385,0.7376853823661804,-0.5579720735549927,-0.8339582681655884,-0.2969851493835449,-0.027571192011237144,-0.013574942946434021,1.8597314357757568
427,3753542,3753544,-0.24036698043346405,0.07575942575931549,1.0341174602508545,4.252846717834473,4.225525856018066,0.37100157141685486,-0.5594720244407654,-0.8294585347175598,-0.2834858298301697,-0.09367750585079193,0.05595296621322632,1.8671345710754395
428,3753552,3753554,0.015713144093751907,-0.24653686583042145,0.996164858341217,2.598691463470459,6.325851917266846,0.34969568252563477,-0.5609719157218933,-0.8249587416648865,-0.29098543524742126,-0.1243913546204567,0.11631572991609573,1.8668899536132812
429,3753562,3753564,-0.04899359121918678,-0.24038128554821014,0.9896005988121033,1.3177067041397095,5.928050994873047,-0.2865603566169739,-0.5489725470542908,-0.8249587416648865,-0.30898454785346985,-0.16429175436496735,0.014252632856369019,1.8660118579864502
430,3753572,3753574,0.011766340583562851,-0.08833464980125427,0.9558697938919067,-0.24214158952236176,5.595786094665527,-0.07964254170656204,-0.5639718174934387,-0.8219588994979858,-0.29098543524742126,-0.2827604413032532,0.029566636309027672,1.8578448295593262
431,3753582,3753584,0.006288101430982351,-0.22541451454162598,0.9324384927749634,-0.9856153130531311,5.026957035064697,0.03993241861462593,-0.5534723401069641,-0.8354582190513611,-0.2924853563308716,-0.3188728392124176,0.02858326956629753,1.8509621620178223
432,3753592,3753594,-0.03448248654603958,-0.2537420392036438,0.9317411780357361,-1.781214952468872,3.578139066696167,0.06315238773822784,-0.5594720244407654,-0.844457745552063,-0.29848507046699524,-0.39072322845458984,0.018952541053295135,1.8520152568817139
433,3753602,3753604,-0.09026872366666794,-0.12271885573863983,0.9792307019233704,-1.9445122480392456,2.75344181060791,-0.6105440258979797,-0.5639718174934387,-0.8339582681655884,-0.3029848337173462,-0.4405061602592468,-0.001944728079251945,1.8567825555801392
434,3753612,3753614,-0.02859569527208805,-0.013400038704276085,1.0196139812469482,-0.2602744400501251,1.7931804656982422,-0.4817582666873932,-0.5504724383354187,-0.8234587907791138,-0.2954852283000946,-0.4853254556655884,-0.011061220429837704,1.854750394821167
435,3753622,3753624,0.00781030859798193,0.08950245380401611,1.0102794170379639,-0.16088929772377014,0.13449673354625702,-0.5188379287719727,-0.5504724383354187,-0.8264586329460144,-0.3014849126338959,-0.4960325360298157,-0.005705455783754587,1.855519413948059
436,3753632,3753634,-0.05585332214832306,-0.04208274558186531,1.0287843942642212,1.3203511238098145,-0.9015788435935974,-0.4849000573158264,-0.5609719157218933,-0.8279585838317871,-0.29998499155044556,-0.42098018527030945,0.008243858814239502,1.8522840738296509
437,3753642,3753644,-0.07450442016124725,0.11608772724866867,1.05251145362854,2.5564675331115723,-1.825413465499878,-1.2299243211746216,-0.5504724383354187,-0.8354582190513611,-0.2924853563308716,-0.4208911657333374,0.040381573140621185,1.843959927558899
438,3753652,3753654,0.005469492636620998,0.04883930832147598,1.0406928062438965,2.884585380554199,-3.3849010467529297,-1.454750418663025,-0.554972231388092,-0.8249587416648865,-0.3059847056865692,-0.3931599259376526,0.019410397857427597,1.8246545791625977
439,3753662,3753664,-0.044147297739982605,-0.0799664631485939,0.9789437055587769,3.7970080375671387,-3.1399264335632324,-0.9179834723472595,-0.5564721822738647,-0.8354582190513611,-0.29848507046699524,-0.35103872418403625,0.07868078351020813,1.8112258911132812
440,3753672,3753674,0.01627516560256481,-0.05533994734287262,0.9380378723144531,2.788128137588501,-3.0981287956237793,-1.4308388233184814,-0.5504724383354187,-0.8414579033851624,-0.3014849126338959,-0.31286415457725525,0.13301756978034973,1.796658992767334
441,3753682,3753684,-0.059184715151786804,-0.003560480196028948,0.9623461961746216,1.5488426685333252,-2.921917200088501,-1.1846592426300049,-0.5444727540016174,-0.8384580612182617,-0.3044847846031189,-0.26675206422805786,0.17525498569011688,1.7793397903442383
442,3753692,3753694,-0.07916662842035294,-0.08530823141336441,0.9790476560592651,0.8295298218727112,-1.5189985036849976,-1.2185617685317993,-0.5459727048873901,-0.836958110332489,-0.3059847056865692,-0.28962722420692444,0.131583109498024,1.7641055583953857
443,3753702,3753704,-0.05122760310769081,-0.10867872089147568,0.9723040461540222,-1.0956212282180786,0.8964770436286926,-1.1526151895523071,-0.5579720735549927,-0.8279585838317871,-0.2939853072166443,-0.2046366184949875,0.13904763758182526,1.755530834197998
444,3753712,3753714,-0.457210510969162,-0.12236040830612183,1.033435344696045,-2.0699827671051025,1.8359133005142212,-1.0497822761535645,-0.5459727048873901,-0.8429578542709351,-0.2939853072166443,-0.2244066745042801,0.1280752420425415,1.7468441724777222
445,3753722,3753724,-0.1706143468618393,0.07784651964902878,1.057621717453003,-3.534421682357788,1.960935354232788,-0.9674572348594666,-0.554972231388092,-0.8219588994979858,-0.2969851493835449,-0.2592118978500366,0.0928829163312912,1.7417662143707275
446,3753732,3753734,0.10240406543016434,0.09985925257205963,1.0263663530349731,-4.008915901184082,2.39076828956604,-0.980085551738739,-0.5609719157218933,-0.8309584259986877,-0.29098543524742126,-0.32154154777526855,0.03509638458490372,1.733723521232605
447,3753742,3753744,-0.07788871228694916,-0.01949971728026867,1.0514030456542969,-2.4130871295928955,1.581251621246338,-0.7813379764556885,-0.5504724383354187,-0.8324583768844604,-0.3044847846031189,-0.3862230181694031,-0.008922982960939407,1.7211295366287231
448,3753752,3753754,-0.12971197068691254,-0.11213591694831848,1.0142791271209717,-0.43403568863868713,-0.2093694657087326,-0.4781540036201477,-0.5519723892211914,-0.836958110332489,-0.29998499155044556,-0.4113197326660156,-0.027544725686311722,1.7140039205551147
449,3753762,3753764,-0.09153001755475998,-0.2707286775112152,0.9931824207305908,1.7008368968963623,-1.4506562948226929,-0.5954857468605042,-0.5564721822738647,-0.8234587907791138,-0.3044847846031189,-0.41171056032180786,-0.018614204600453377,1.706658124923706
450,3753772,3753774,-0.1197672188282013,-0.3408629298210144,0.9935236573219299,3.4267265796661377,-4.475427150726318,-0.7194435596466064,-0.5459727048873901,-0.836958110332489,-0.2969851493835449,-0.3613038659095764,-0.04150405898690224,1.6918761730194092
451,3753782,3753784,-0.2869832515716553,-0.2211744636297226,1.0204061269760132,5.396583557128906,-5.9727253913879395,-0.3342921733856201,-0.554972231388092,-0.8309584259986877,-0.3029848337173462,-0.2502647042274475,0.042563412338495255,1.6919782161712646
452,3753792,3753794,-0.33858874440193176,-0.25653237104415894,1.0493717193603516,7.18547248840332,-3.871199369430542,-0.04387936741113663,-0.5444727540016174,-0.8354582190513611,-0.3014849126338959,-0.15515467524528503,0.15168045461177826,1.6950407028198242
453,3753802,3753804,-0.2237532138824463,-0.12382113188505173,1.020254373550415,6.353524208068848,-1.4516668319702148,-0.4796415865421295,-0.5609719157218933,-0.8309584259986877,-0.3119843900203705,-0.10072929412126541,0.12933561205863953,1.6861666440963745
454,3753812,3753814,-0.2981644868850708,-0.28781843185424805,1.0006814002990723,5.677778244018555,-0.4230504035949707,-0.6768134832382202,-0.5519723892211914,-0.8309584259986877,-0.3149842321872711,-0.08839032053947449,0.24083678424358368,1.682037353515625
455,3753822,3753824,-0.9785433411598206,-0.7723599076271057,1.026140570640564,3.681838035583496,1.7730227708816528,-0.22200311720371246,-0.5609719157218933,-0.8309584259986877,-0.3059847056865692,-0.17945028841495514,0.2539587616920471,1.669066309928894
456,3753832,3753834,-0.7325564622879028,-0.19529502093791962,1.0082870721817017,1.6070069074630737,3.9752297401428223,-0.547462522983551,-0.5459727048873901,-0.8339582681655884,-0.2969851493835449,-0.23919335007667542,0.2404053807258606,1.6570745706558228
457,3753842,3753844,-0.14139078557491302,-0.134454146027565,1.0081502199172974,0.6219701170921326,4.19800329208374,-0.20724798738956451,-0.5609719157218933,-0.836958110332489,-0.3029848337173462,-0.3107256293296814,0.27408367395401,1.650353193283081
458,3753852,3753854,-0.3049507141113281,-0.7126995921134949,0.9593719244003296,-0.4209715723991394,4.0967583656311035,-0.3749052882194519,-0.5564721822738647,-0.844457745552063,-0.2864856719970703,-0.38708189129829407,0.28165745735168457,1.6460453271865845
459,3753862,3753864,-0.06756464391946793,-0.3843545615673065,0.9490880966186523,-1.4224482774734497,1.2706019878387451,-0.2652295231819153,-0.554972231388092,-0.836958110332489,-0.29998499155044556,-0.36967194080352783,0.2771255373954773,1.642179250717163
460,3753872,3753874,-0.24015608429908752,-0.04315369203686714,0.9906371831893921,-1.4090291261672974,-2.1486144065856934,-0.5336538553237915,-0.5459727048873901,-0.8309584259986877,-0.2939853072166443,-0.35994234681129456,0.2670900523662567,1.6416579484939575
461,3753882,3753884,-0.12920129299163818,-0.06201707571744919,1.0426121950149536,-1.4657366275787354,-2.9755923748016357,-0.9985131621360779,-0.5684715509414673,-0.8294585347175598,-0.2954852283000946,-0.32112520933151245,0.25490865111351013,1.6359502077102661
462,3753892,3753894,-0.4140687584877014,-0.6379262804985046,1.0357922315597534,-0.005582146812230349,-5.259030342102051,-0.8425344824790955,-0.5609719157218933,-0.8309584259986877,-0.3029848337173462,-0.249259814620018,0.25565648078918457,1.6281099319458008
463,3753902,3753904,-0.8617587685585022,-0.6945047378540039,1.0279124975204468,0.25475063920021057,-4.77603006362915,-0.4399206340312958,-0.5579720735549927,-0.8249587416648865,-0.29998499155044556,-0.17198145389556885,0.2634594142436981,1.6212090253829956
464,3753912,3753914,-0.7573572397232056,-0.1504039466381073,1.053378939628601,0.5153228640556335,-3.3397786617279053,-0.3393884003162384,-0.5579720735549927,-0.8309584259986877,-0.2969851493835449,-0.17599467933177948,0.2754018008708954,1.6166398525238037
