,timestamp_start,timestamp_end,acc.x,acc.y,acc.z,gyro.x,gyro.y,gyro.z,mag.x,mag.y,mag.z,stabilizer.pitch,stabilizer.roll,stabilizer.yaw
0,3517725,3517726,-0.2614879906177521,-0.1381615400314331,1.008354663848877,-13.304339408874512,5.591300010681152,-1.3283069133758545,-0.6749662160873413,-0.8429578542709351,-0.29098543524742126,0.7049084901809692,-0.4668998718261719,-2.833672285079956
1,3517735,3517736,-0.26883140206336975,-0.33182695508003235,1.030081033706665,-31.815465927124023,-12.984219551086426,-1.139275312423706,-0.66896653175354,-0.8159592151641846,-0.27898603677749634,-0.40365198254585266,0.19020278751850128,-3.024414300918579
2,3517745,3517746,-0.3483878970146179,-0.20298705995082855,1.1023942232131958,-37.472103118896484,-29.023483276367188,0.009412085637450218,-0.6599670052528381,-0.8039597868919373,-0.2759861946105957,-0.2834557294845581,-0.2877599000930786,-2.989950656890869
3,3517755,3517756,-0.40727248787879944,-0.03507392480969429,1.1491634845733643,-47.015098571777344,-33.00773620605469,-0.3610324263572693,-0.6824658513069153,-0.8174591064453125,-0.25048747658729553,0.02538144402205944,-1.036152720451355,-2.927945613861084
4,3517765,3517766,-0.9739046096801758,-0.1974470615386963,0.9924851655960083,-47.168479919433594,-49.841033935546875,-0.09574617445468903,-0.6794660091400146,-0.7964601516723633,-0.2834858298301697,-0.11433706432580948,-1.3371589183807373,-2.9180567264556885
5,3517775,3517776,-1.0419020652770996,0.026923848316073418,0.9945433735847473,-45.97043228149414,-43.489131927490234,-1.1760963201522827,-0.6674666404724121,-0.8024598360061646,-0.27148643136024475,0.5088363289833069,-1.9285463094711304,-2.903090715408325
6,3517785,3517786,-0.7154126167297363,-0.11845483630895615,1.0330244302749634,-35.650447845458984,-52.76258850097656,-0.11472178995609283,-0.66896653175354,-0.8099594712257385,-0.2579870820045471,0.6392063498497009,-2.2805674076080322,-2.863670587539673
7,3517795,3517796,-0.6054931879043579,-0.4499576985836029,1.0233755111694336,-24.979419708251953,-45.849857330322266,-1.547624945640564,-0.6629668474197388,-0.7919603586196899,-0.2669866383075714,1.2452846765518188,-2.647003412246704,-2.8502683639526367
8,3517805,3517806,-0.5627385377883911,-0.4035249650478363,0.9457017183303833,-11.421147346496582,-46.91354751586914,-0.698140561580658,-0.6614668965339661,-0.7994599938392639,-0.2594870328903198,1.8209964036941528,-2.87479567527771,-2.846247434616089
9,3517815,3517816,-0.4354822635650635,-0.3207857608795166,0.9707110524177551,-0.18433305621147156,-37.76401901245117,-1.0971430540084839,-0.6629668474197388,-0.7919603586196899,-0.26098695397377014,1.8960751295089722,-2.7480087280273438,-2.791455030441284
10,3517825,3517826,-0.8006227016448975,-0.42342135310173035,0.9041194319725037,12.91559886932373,-33.67676544189453,0.39722442626953125,-0.6674666404724121,-0.7964601516723633,-0.25048747658729553,2.235255002975464,-2.735598087310791,-2.7630231380462646
11,3517835,3517836,-1.2608001232147217,-0.7860507965087891,0.8489454984664917,15.59178352355957,-26.665468215942383,1.6291924715042114,-0.6614668965339661,-0.790460467338562,-0.25348731875419617,2.108431339263916,-2.652998685836792,-2.6229195594787598
12,3517845,3517846,-0.8300011157989502,-0.44905325770378113,0.82159423828125,16.447006225585938,-16.392763137817383,0.4779300391674042,-0.6464676856994629,-0.7754611968994141,-0.24148792028427124,2.5199034214019775,-2.509615898132324,-2.6559486389160156
13,3517855,3517856,-0.6805629730224609,-0.25134211778640747,0.75908362865448,15.960104942321777,-22.040870666503906,1.6249841451644897,-0.6554672122001648,-0.7814609408378601,-0.2564871609210968,2.716726064682007,-2.3666224479675293,-2.6220757961273193
14,3517865,3517866,-0.3184124827384949,-0.20608176290988922,0.873991847038269,10.034379005432129,-20.19164276123047,1.8449519872665405,-0.6704664826393127,-0.7814609408378601,-0.2474876195192337,2.612366199493408,-2.0899558067321777,-2.5241732597351074
15,3517875,3517876,-1.158970832824707,-0.05645279958844185,0.9669683575630188,2.240453004837036,-28.024959564208984,2.324359178543091,-0.6524673700332642,-0.7844607830047607,-0.25348731875419617,3.001621723175049,-2.102670907974243,-2.519113540649414
16,3517885,3517886,-1.099365234375,0.26704826951026917,1.047166109085083,-6.638461589813232,-33.64201354980469,3.30226469039917,-0.6539672613143921,-0.7859606742858887,-0.2369881421327591,3.070901870727539,-2.036893367767334,-2.4324777126312256
17,3517895,3517896,-0.7604535222053528,0.18645532429218292,1.0887233018875122,-14.553196907043457,-42.43927001953125,4.287031650543213,-0.6434678435325623,-0.7934603095054626,-0.25048747658729553,3.6753129959106445,-2.1492629051208496,-2.4568324089050293
18,3517905,3517906,-0.8224455118179321,0.030446281656622887,0.9840065836906433,-17.11612892150879,-40.69056701660156,3.0905203819274902,-0.6434678435325623,-0.7784610390663147,-0.24448777735233307,3.839843273162842,-2.2195215225219727,-2.3734023571014404
19,3517915,3517916,-1.3077863454818726,-0.150569349527359,0.8404164910316467,-15.934709548950195,-38.66002655029297,1.8687902688980103,-0.6419678926467896,-0.7709614634513855,-0.2459876984357834,4.405550956726074,-2.4541919231414795,-2.3620834350585938
20,3517925,3517926,-0.5904436111450195,-0.5212646722793579,0.7950910925865173,-15.862634658813477,-39.113441467285156,1.6721893548965454,-0.6494675278663635,-0.7724613547325134,-0.2474876195192337,4.87196159362793,-2.748267889022827,-2.301300287246704
21,3517935,3517936,-0.12266083806753159,-0.7580228447914124,0.7773063778877258,-12.499701499938965,-30.665592193603516,1.9950400590896606,-0.6344682574272156,-0.7664616703987122,-0.2474876195192337,4.995466232299805,-2.7936363220214844,-2.247396230697632
22,3517945,3517946,-0.4516530930995941,-0.40908175706863403,0.7952643036842346,-6.658733367919922,-16.876998901367188,1.738051176071167,-0.6404679417610168,-0.7484625577926636,-0.25348731875419617,5.330386638641357,-2.9631221294403076,-2.2034912109375
23,3517955,3517956,-0.6783393025398254,-0.3941654562950134,0.8865633010864258,-3.612339496612549,-13.871468544006348,1.6702728271484375,-0.6449677348136902,-0.7859606742858887,-0.23098844289779663,5.242516040802002,-2.9107437133789062,-2.140695095062256
24,3517965,3517966,-0.5697751045227051,-0.3310573995113373,0.9564828276634216,2.930114507675171,-15.134166717529297,3.003784418106079,-0.6479675769805908,-0.7619618773460388,-0.2459876984357834,5.551121234893799,-3.012584686279297,-2.09490704536438
25,3517975,3517976,-0.7499235272407532,0.02815532311797142,1.0918959379196167,6.306538105010986,-14.141108512878418,4.251161098480225,-0.6314684152603149,-0.7604619860649109,-0.22648866474628448,5.644282817840576,-2.893508195877075,-2.0836095809936523
26,3517985,3517986,-1.4048618078231812,-0.02209346741437912,0.9529920220375061,10.243807792663574,-8.79197883605957,2.8171989917755127,-0.6314684152603149,-0.7754611968994141,-0.25048747658729553,5.610208034515381,-2.7751827239990234,-2.024113178253174
27,3517995,3517996,-1.2559648752212524,-0.19266623258590698,0.8593236207962036,13.339048385620117,-8.566043853759766,1.3374861478805542,-0.6419678926467896,-0.7649617195129395,-0.24298784136772156,5.718611240386963,-2.6723523139953613,-1.9995378255844116
28,3518005,3518006,-0.806128740310669,-0.44580942392349243,0.8445752859115601,18.843812942504883,-3.386399030685425,1.454176664352417,-0.6299684643745422,-0.7649617195129395,-0.23398829996585846,5.650585651397705,-2.5338082313537598,-1.9333103895187378
29,3518015,3518016,-1.1325875520706177,-0.28115248680114746,0.8479904532432556,16.009164810180664,0.7849385738372803,2.678727865219116,-0.6284685730934143,-0.7694615125656128,-0.2474876195192337,5.7086992263793945,-2.3967907428741455,-1.906882882118225
30,3518025,3518026,-1.050215721130371,-0.3631232976913452,0.8441188335418701,8.825921058654785,-6.822688102722168,3.5385007858276367,-0.6344682574272156,-0.7724613547325134,-0.25048747658729553,5.637386322021484,-2.3043906688690186,-1.8204538822174072
31,3518035,3518036,-0.7501071691513062,-0.2927080988883972,0.8799973726272583,5.977526664733887,-9.820660591125488,2.7359633445739746,-0.6449677348136902,-0.7649617195129395,-0.25198739767074585,5.616865158081055,-2.272778272628784,-1.7291474342346191
32,3518045,3518046,-0.45457160472869873,-0.4333854913711548,0.8735527992248535,4.841846942901611,-12.398602485656738,2.249847650527954,-0.6329683661460876,-0.782960832118988,-0.2369881421327591,5.750945568084717,-2.192875385284424,-1.7329179048538208
33,3518055,3518056,-0.16473953425884247,-0.3240066170692444,0.7988846302032471,5.788298606872559,-2.3748605251312256,1.4563168287277222,-0.6134693026542664,-0.7874606251716614,-0.24148792028427124,5.533365249633789,-2.225393056869507,-1.568066120147705
34,3518065,3518066,-0.47169753909111023,-0.03694186732172966,0.8478734493255615,-1.024437665939331,-4.234800815582275,1.5171350240707397,-0.616469144821167,-0.7724613547325134,-0.2474876195192337,5.739141464233398,-2.2188925743103027,-1.5828062295913696
35,3518075,3518076,-0.8183289170265198,0.19412389397621155,1.0216819047927856,-4.88066291809082,-18.22671890258789,3.1347217559814453,-0.6209689378738403,-0.782960832118988,-0.2639867961406708,5.572909832000732,-2.171365976333618,-1.5266211032867432
36,3518085,3518086,-0.44978582859039307,-0.6243425607681274,1.05284583568573,-0.9049638509750366,-20.74985122680664,3.06428861618042,-0.616469144821167,-0.7814609408378601,-0.2564871609210968,5.913107395172119,-2.242703437805176,-1.5076212882995605
37,3518095,3518096,-0.7054955363273621,-0.7042839527130127,0.8490591645240784,4.0641937255859375,-12.1779203414917,1.813098430633545,-0.6029698252677917,-0.7949602603912354,-0.2549872398376465,6.001741409301758,-2.2783095836639404,-1.4350972175598145
38,3518105,3518106,-0.9664652943611145,-0.7816815972328186,0.7609758377075195,7.1174798011779785,-5.00502872467041,0.33823588490486145,-0.6194689869880676,-0.7844607830047607,-0.25048747658729553,5.965399265289307,-2.2623584270477295,-1.3625590801239014
39,3518115,3518116,-0.4029637277126312,-0.34314966201782227,0.8415681719779968,8.915303230285645,-0.05008968710899353,0.36398592591285706,-0.6104694604873657,-0.790460467338562,-0.24448777735233307,6.0695648193359375,-2.1923582553863525,-1.3650710582733154
40,3518125,3518126,0.08017971366643906,0.15331768989562988,0.9106094241142273,9.243451118469238,1.7021621465682983,1.3345921039581299,-0.6179690957069397,-0.7949602603912354,-0.25198739767074585,6.129851341247559,-2.0822858810424805,-1.3793655633926392
41,3518135,3518136,-0.14717374742031097,0.04864408075809479,0.9957658052444458,7.341852188110352,-6.161770820617676,2.788006067276001,-0.6134693026542664,-0.7934603095054626,-0.26248687505722046,6.096686840057373,-2.01106595993042,-1.3231791257858276
42,3518145,3518146,-0.39857688546180725,-0.29996901750564575,1.0394951105117798,11.049449920654297,-8.635295867919922,2.7165231704711914,-0.6074696183204651,-0.7994599938392639,-0.2564871609210968,6.187974452972412,-1.848252773284912,-1.359452247619629
43,3518155,3518156,-1.1005274057388306,-0.5068354606628418,0.8976492881774902,15.494922637939453,0.7034409642219543,1.0464037656784058,-0.622468888759613,-0.7994599938392639,-0.26248687505722046,6.014864444732666,-1.7315726280212402,-1.292724370956421
44,3518165,3518166,-1.586541771888733,-0.9480257630348206,0.7886795997619629,15.585643768310547,11.531094551086426,-0.39369338750839233,-0.6149692535400391,-0.8039597868919373,-0.2639867961406708,6.031988620758057,-1.60793936252594,-1.2920048236846924
45,3518175,3518176,-0.5697025060653687,-0.9543103575706482,0.750586986541748,12.330835342407227,14.364411354064941,-0.16023236513137817,-0.616469144821167,-0.8114594221115112,-0.2564871609210968,5.790088653564453,-1.522354245185852,-1.2362825870513916
46,3518185,3518186,-0.4864792823791504,-0.464007705450058,0.9002934098243713,6.783698081970215,10.646037101745605,1.0067518949508667,-0.6014699339866638,-0.8114594221115112,-0.2594870328903198,5.758669853210449,-1.541904330253601,-1.1601932048797607
47,3518195,3518196,-0.7287812232971191,-0.4648900330066681,1.0216350555419922,1.803694486618042,3.8121936321258545,0.6856887936592102,-0.5999699831008911,-0.8249587416648865,-0.2579870820045471,5.741027355194092,-1.5191490650177002,-1.1407264471054077
48,3518205,3518206,-1.0170655250549316,-0.38380783796310425,1.0850694179534912,1.0701522827148438,2.032358407974243,-0.1921602338552475,-0.6074696183204651,-0.8264586329460144,-0.2654867172241211,5.670881271362305,-1.4580224752426147,-1.1607080698013306
49,3518215,3518216,-0.4452248513698578,-0.5695886015892029,1.0537312030792236,5.528157711029053,1.6989887952804565,-0.6020230054855347,-0.5954701900482178,-0.8294585347175598,-0.277486115694046,5.6653947830200195,-1.384880542755127,-1.1996614933013916
50,3518225,3518226,-0.6304037570953369,-0.565030038356781,0.9906007647514343,6.892694473266602,1.6244083642959595,0.43391454219818115,-0.6089695692062378,-0.8279585838317871,-0.2669866383075714,5.5763421058654785,-1.2927863597869873,-1.2232249975204468
51,3518235,3518236,-0.4778898060321808,-0.3401874303817749,0.8174397945404053,8.912334442138672,4.5266547203063965,-0.9489282369613647,-0.6059696674346924,-0.8309584259986877,-0.2669866383075714,5.471251010894775,-1.316327691078186,-1.1526798009872437
52,3518245,3518246,-0.2711101174354553,-0.17199333012104034,0.8431108593940735,10.784086227416992,9.38230037689209,-3.865338087081909,-0.6074696183204651,-0.8234587907791138,-0.2744862735271454,5.369773864746094,-1.1555979251861572,-1.2233461141586304
53,3518255,3518256,-0.21646437048912048,-0.07195865362882614,0.9503166675567627,10.55261516571045,13.111848831176758,-2.3780312538146973,-0.6059696674346924,-0.8249587416648865,-0.27898603677749634,5.289399147033691,-1.119734764099121,-1.2067232131958008
54,3518265,3518266,-0.9937759637832642,-0.37465542554855347,0.9863008856773376,12.13827896118164,15.568132400512695,-2.2022318840026855,-0.6089695692062378,-0.8309584259986877,-0.2639867961406708,5.026419639587402,-0.91339111328125,-1.2831294536590576
55,3518275,3518276,-1.1189534664154053,-0.46050432324409485,0.8935543894767761,13.264867782592773,24.564537048339844,-2.4475791454315186,-0.6074696183204651,-0.8354582190513611,-0.277486115694046,4.925957202911377,-0.8533068299293518,-1.2688554525375366
56,3518285,3518286,-1.0014749765396118,-0.6162965893745422,0.8182076811790466,12.81753158569336,21.351543426513672,-2.424981117248535,-0.6044697761535645,-0.8354582190513611,-0.28048595786094666,4.738705635070801,-0.7064078450202942,-1.3005456924438477
57,3518295,3518296,-0.6872153282165527,-0.4120863974094391,0.9152141213417053,8.857439994812012,19.074413299560547,-1.792303442955017,-0.5954701900482178,-0.850457489490509,-0.2864856719970703,4.6495208740234375,-0.5710687637329102,-1.3370039463043213
58,3518305,3518306,-0.3596145808696747,-0.16905829310417175,0.9430944323539734,7.047761917114258,19.537824630737305,-2.5881600379943848,-0.5939702987670898,-0.8399580121040344,-0.2759861946105957,4.491080284118652,-0.5522420406341553,-1.3118996620178223
59,3518315,3518316,-0.35279157757759094,-0.16281352937221527,1.0008172988891602,7.395420551300049,12.310062408447266,-2.3909802436828613,-0.6044697761535645,-0.8414579033851624,-0.277486115694046,4.348711013793945,-0.4006248116493225,-1.377743124961853
60,3518325,3518326,-0.4045383930206299,-0.18883223831653595,1.0515159368515015,5.24644136428833,16.29503059387207,-2.400859832763672,-0.5969701409339905,-0.8549572229385376,-0.28798559308052063,4.210149765014648,-0.3346094787120819,-1.3984378576278687
61,3518335,3518336,-0.7042748332023621,-0.3635110855102539,1.1066440343856812,5.680813312530518,17.648683547973633,-3.409386157989502,-0.6149692535400391,-0.8549572229385376,-0.29098543524742126,4.097639083862305,-0.28658825159072876,-1.4152108430862427
62,3518345,3518346,-0.13405796885490417,-0.6635400652885437,1.0995514392852783,4.411251544952393,14.807626724243164,-2.2694337368011475,-0.5984700918197632,-0.844457745552063,-0.2834858298301697,3.903364896774292,-0.3074520528316498,-1.4005213975906372
63,3518355,3518356,0.03281979635357857,-0.2361365705728531,1.0709716081619263,2.979170560836792,22.21072769165039,-4.546473026275635,-0.5999699831008911,-0.8459576964378357,-0.28798559308052063,3.7431936264038086,-0.20149342715740204,-1.4598820209503174
64,3518365,3518366,-0.17365586757659912,0.13556012511253357,1.0609571933746338,4.392512321472168,17.472326278686523,-3.3837389945983887,-0.6089695692062378,-0.8489575386047363,-0.2759861946105957,3.55464506149292,-0.10863348096609116,-1.5210882425308228
65,3518375,3518376,-0.3029673099517822,-0.15609338879585266,1.0863982439041138,3.522493362426758,23.00468635559082,-4.012021541595459,-0.6134693026542664,-0.850457489490509,-0.28948551416397095,3.417557954788208,-0.15576089918613434,-1.5103132724761963
66,3518385,3518386,-0.044628143310546875,-0.015793373808264732,1.050283670425415,4.863663196563721,20.316255569458008,-5.308915138244629,-0.6104694604873657,-0.850457489490509,-0.2834858298301697,3.113279342651367,-0.05538584291934967,-1.583213210105896
67,3518395,3518396,0.0016296845860779285,-0.07586146891117096,1.0534039735794067,3.867515802383423,21.65782928466797,-3.8880059719085693,-0.6044697761535645,-0.8414579033851624,-0.2864856719970703,2.9536242485046387,-0.09316235780715942,-1.5895731449127197
68,3518405,3518406,-0.17463718354701996,-0.3944353759288788,1.0488570928573608,5.245135307312012,20.33966636657715,-5.4620232582092285,-0.6209689378738403,-0.8459576964378357,-0.28798559308052063,2.787334680557251,0.019267702475190163,-1.6488664150238037
69,3518415,3518416,-0.39674004912376404,-0.4845193028450012,1.065887689590454,4.232364177703857,19.399066925048828,-4.5624470710754395,-0.6194689869880676,-0.8624568581581116,-0.2834858298301697,2.6363401412963867,0.12749606370925903,-1.7081506252288818
70,3518425,3518426,-0.17011943459510803,-0.13233937323093414,1.0060368776321411,5.399379253387451,18.091279983520508,-5.363861083984375,-0.6179690957069397,-0.8609569072723389,-0.28498575091362,2.3642473220825195,0.2240886688232422,-1.779129981994629
71,3518435,3518436,-0.543212354183197,-0.39489492774009705,0.9952012896537781,2.597405433654785,16.069866180419922,-4.042252063751221,-0.6179690957069397,-0.8459576964378357,-0.28198590874671936,2.253048896789551,0.16509592533111572,-1.7894515991210938
72,3518445,3518446,-0.34272581338882446,-0.3631262183189392,1.0094878673553467,2.6400089263916016,17.803497314453125,-6.1097564697265625,-0.622468888759613,-0.8624568581581116,-0.28048595786094666,2.1483864784240723,0.15639014542102814,-1.8207652568817139
73,3518455,3518456,-0.5481728315353394,-0.6110575199127197,0.9734247326850891,0.305868923664093,12.412551879882812,-4.616367340087891,-0.6194689869880676,-0.8564571738243103,-0.2864856719970703,1.9163368940353394,0.20714876055717468,-1.8919398784637451
74,3518465,3518466,-0.7555492520332336,-0.22949738800525665,0.9988033771514893,-0.06307731568813324,13.146014213562012,-4.867459774017334,-0.6194689869880676,-0.8564571738243103,-0.2864856719970703,1.9260509014129639,0.2302912324666977,-1.9227958917617798
75,3518475,3518476,-1.0694046020507812,-0.07552628219127655,1.0419119596481323,0.13377425074577332,14.436707496643066,-4.474076747894287,-0.6194689869880676,-0.8564571738243103,-0.2864856719970703,1.7579190731048584,0.24982890486717224,-1.9754894971847534
76,3518485,3518486,-1.1547462940216064,-0.22085149586200714,0.9799153804779053,4.163269996643066,19.559829711914062,-6.0123372077941895,-0.623968780040741,-0.8459576964378357,-0.2939853072166443,1.627933144569397,0.29543888568878174,-2.0206592082977295
77,3518495,3518496,-1.0206540822982788,-0.27206993103027344,1.0342390537261963,1.1425502300262451,15.348034858703613,-4.74190616607666,-0.6254687309265137,-0.8474575877189636,-0.2864856719970703,1.498895287513733,0.3394586741924286,-2.0662729740142822
78,3518505,3518506,-0.6759258508682251,-0.44550880789756775,0.9867077469825745,5.004484176635742,19.519615173339844,-5.002211570739746,-0.6254687309265137,-0.844457745552063,-0.29848507046699524,1.3418952226638794,0.38377562165260315,-2.11116623878479
79,3518515,3518516,-0.700439453125,-0.5951218008995056,0.9561342000961304,1.6301742792129517,15.549352645874023,-3.947303533554077,-0.6284685730934143,-0.8624568581581116,-0.2954852283000946,1.1804957389831543,0.44038715958595276,-2.152125358581543
80,3518525,3518526,-0.6381352543830872,-0.44139018654823303,0.9400190711021423,3.9561967849731445,19.732568740844727,-5.127846717834473,-0.6344682574272156,-0.8654567003250122,-0.2954852283000946,0.8608301281929016,0.4121539890766144,-2.229738473892212
81,3518535,3518536,-0.3206064701080322,-0.29534175992012024,0.9801807999610901,0.35883376002311707,15.137638092041016,-3.028491973876953,-0.6269686222076416,-0.8609569072723389,-0.28198590874671936,0.761672854423523,0.518068253993988,-2.247830390930176
82,3518545,3518546,-0.052520591765642166,-0.19405096769332886,0.9846258163452148,2.8754258155822754,16.727951049804688,-5.092583656311035,-0.6284685730934143,-0.8594570159912109,-0.2924853563308716,0.5181776285171509,0.5339528322219849,-2.305525541305542
83,3518555,3518556,-0.31585022807121277,-0.174965962767601,1.034229040145874,-2.987060308456421,13.27146053314209,-3.8249564170837402,-0.6254687309265137,-0.8594570159912109,-0.29848507046699524,0.4511706233024597,0.523605465888977,-2.331944465637207
84,3518565,3518566,-0.4598230719566345,-0.3943939805030823,1.0636059045791626,-1.1208575963974,9.649300575256348,-4.938976764678955,-0.6494675278663635,-0.8684565424919128,-0.2924853563308716,0.4010392427444458,0.4790431261062622,-2.3632798194885254
85,3518575,3518576,-0.3803047239780426,-0.4164087176322937,1.0782406330108643,-6.286848068237305,9.346014976501465,-4.15492582321167,-0.6209689378738403,-0.8639568090438843,-0.29998499155044556,0.2541877031326294,0.4652937650680542,-2.4124269485473633
86,3518585,3518586,-0.26058080792427063,-0.43925154209136963,1.0749850273132324,-2.951723575592041,3.7430806159973145,-3.408409833908081,-0.6359682083129883,-0.8609569072723389,-0.28798559308052063,0.06755822896957397,0.38024771213531494,-2.487969160079956
87,3518595,3518596,-0.4739496111869812,-0.2738931179046631,1.062110424041748,-6.614963054656982,9.18814754486084,-4.5592732429504395,-0.6269686222076416,-0.8579570651054382,-0.29998499155044556,0.038336388766765594,0.35785505175590515,-2.5093324184417725
88,3518605,3518606,-0.249851793050766,-0.6303986310958862,1.1235369443893433,-4.449291229248047,2.937077522277832,-2.1062698364257812,-0.6359682083129883,-0.8699564933776855,-0.29098543524742126,-0.058630213141441345,0.33881086111068726,-2.542527198791504
89,3518615,3518616,-0.02309682033956051,-0.31193098425865173,1.1361184120178223,-2.942796230316162,9.955452919006348,-4.075923919677734,-0.6254687309265137,-0.850457489490509,-0.3014849126338959,-0.08384916931390762,0.33120012283325195,-2.5533950328826904
90,3518625,3518626,-0.5148795247077942,-0.11182937026023865,1.0887736082077026,-3.7594494819641113,8.8621826171875,-3.1285321712493896,-0.6419678926467896,-0.8459576964378357,-0.2759861946105957,-0.2764952778816223,0.33428114652633667,-2.5993165969848633
91,3518635,3518636,-0.5123695135116577,-0.29551294445991516,1.0958508253097534,-1.3247257471084595,8.48422908782959,-3.4018852710723877,-0.6374680995941162,-0.8534573316574097,-0.28048595786094666,-0.30741506814956665,0.33509382605552673,-2.606109857559204
92,3518645,3518646,-0.22752514481544495,-0.21643535792827606,1.135885238647461,-4.476535797119141,10.920419692993164,-3.517378091812134,-0.6404679417610168,-0.844457745552063,-0.28948551416397095,-0.4702082872390747,0.27748826146125793,-2.667902708053589
93,3518655,3518656,-0.4501192569732666,-0.04763168469071388,1.0669993162155151,-3.896848440170288,5.763007640838623,-2.2423298358917236,-0.6524673700332642,-0.8414579033851624,-0.2864856719970703,-0.5367662906646729,0.19780699908733368,-2.712758779525757
94,3518665,3518666,-0.5953950881958008,0.09645166993141174,1.062009572982788,-5.185329914093018,8.74319839477539,-3.0831756591796875,-0.6389680504798889,-0.8429578542709351,-0.28198590874671936,-0.5775939226150513,0.18826352059841156,-2.71816086769104
95,3518675,3518676,-0.2037011831998825,0.027326026931405067,1.0396875143051147,-4.541296005249023,2.800539016723633,-1.1233580112457275,-0.6464676856994629,-0.8324583768844604,-0.2924853563308716,-0.5973183512687683,0.16939902305603027,-2.7173566818237305
96,3518685,3518686,-0.03283756598830223,0.06784982979297638,1.0443814992904663,-4.589980125427246,3.898277759552002,-2.837332248687744,-0.6494675278663635,-0.8384580612182617,-0.2924853563308716,-0.6479561924934387,0.15200932323932648,-2.728113889694214
97,3518695,3518696,-0.07237521559000015,-0.1913766711950302,1.098449468612671,-6.292791366577148,2.0935311317443848,-0.674842119216919,-0.6434678435325623,-0.844457745552063,-0.3014849126338959,-0.68747478723526,0.19308297336101532,-2.7030608654022217
98,3518705,3518706,-0.18003763258457184,-0.0381300263106823,1.048904538154602,-4.8969526290893555,1.4033257961273193,-2.1808218955993652,-0.6479675769805908,-0.8189590573310852,-0.2669866383075714,-0.6436930894851685,0.14594756066799164,-2.698369264602661
99,3518715,3518716,-0.5502026081085205,-0.12200455367565155,1.02763831615448,-7.367076873779297,1.9516034126281738,-1.126000165939331,-0.6524673700332642,-0.844457745552063,-0.277486115694046,-0.5978580117225647,0.0869532972574234,-2.6985044479370117
100,3518725,3518726,-0.39740413427352905,-0.14544902741909027,1.007306694984436,-5.823110103607178,1.507140874862671,-0.9993932843208313,-0.6389680504798889,-0.8189590573310852,-0.28198590874671936,-0.6232008934020996,0.022073185071349144,-2.7114531993865967
101,3518735,3518736,-0.32914841175079346,-0.3523542582988739,1.0468999147415161,-8.794950485229492,5.609542369842529,-0.10021322965621948,-0.6584670543670654,-0.8264586329460144,-0.26848655939102173,-0.5850366353988647,-0.057967718690633774,-2.708062171936035
102,3518745,3518746,-0.5910738110542297,-0.23662196099758148,1.0018055438995361,-5.899728298187256,4.314330577850342,0.33087974786758423,-0.6554672122001648,-0.8294585347175598,-0.2744862735271454,-0.6310296058654785,-0.14255809783935547,-2.715778112411499
103,3518755,3518756,-0.5431749224662781,-0.4299424886703491,1.0137807130813599,-9.182981491088867,9.003966331481934,1.2133851051330566,-0.6539672613143921,-0.8099594712257385,-0.27298635244369507,-0.6761065721511841,-0.1533215045928955,-2.6781978607177734
104,3518765,3518766,-0.11795919388532639,-0.4022352993488312,0.9844233989715576,-6.733312606811523,7.7774577140808105,1.4154843091964722,-0.6569671630859375,-0.8099594712257385,-0.2759861946105957,-0.7310781478881836,-0.16686737537384033,-2.6360106468200684
105,3518775,3518776,-0.03870413079857826,-0.10629685968160629,1.0478730201721191,-9.341873168945312,6.467843532562256,2.789470911026001,-0.6569671630859375,-0.8069596290588379,-0.2759861946105957,-0.6974718570709229,-0.3276660740375519,-2.6512582302093506
106,3518785,3518786,-0.48765096068382263,0.16275468468666077,0.9838259816169739,-6.610019207000732,4.458272457122803,1.7044233083724976,-0.6569671630859375,-0.8189590573310852,-0.26098695397377014,-0.7215107083320618,-0.3931737244129181,-2.6311192512512207
107,3518795,3518796,-0.7037277817726135,-0.16381493210792542,0.9974762797355652,-2.3781321048736572,-3.8103532791137695,3.343352794647217,-0.6419678926467896,-0.8069596290588379,-0.28198590874671936,-0.7229124307632446,-0.41777539253234863,-2.598560094833374
108,3518805,3518806,-0.7624198198318481,-0.17835135757923126,1.067495346069336,-3.7829623222351074,-5.356415271759033,2.653282880783081,-0.66896653175354,-0.8099594712257385,-0.2669866383075714,-0.7410984635353088,-0.48164457082748413,-2.598592758178711
109,3518815,3518816,-0.8960093855857849,-0.4738781154155731,1.149566650390625,-2.0422565937042236,-14.09111213684082,5.115378379821777,-0.6584670543670654,-0.8204589486122131,-0.2594870328903198,-0.6584270000457764,-0.5269073843955994,-2.577467918395996
110,3518825,3518826,-1.4237483739852905,-0.4722018837928772,1.0502383708953857,0.6065080165863037,-3.138972282409668,4.208110332489014,-0.6509674191474915,-0.8039597868919373,-0.2669866383075714,-0.5986801385879517,-0.5550734400749207,-2.543120861053467
111,3518835,3518836,-1.476508378982544,-0.8944458961486816,1.0547840595245361,3.184901237487793,-2.7664217948913574,4.47316837310791,-0.6584670543670654,-0.8174591064453125,-0.2594870328903198,-0.5676755309104919,-0.5412221550941467,-2.5026187896728516
112,3518845,3518846,-0.7864950299263,-0.6205847263336182,0.8689134120941162,5.275527000427246,-3.8528738021850586,4.583630561828613,-0.6509674191474915,-0.8009599447250366,-0.25198739767074585,-0.544228196144104,-0.507969081401825,-2.458782911300659
113,3518855,3518856,-0.22866547107696533,-0.29062795639038086,0.9389357566833496,4.164302349090576,-0.3145025074481964,4.312257289886475,-0.6524673700332642,-0.8024598360061646,-0.26848655939102173,-0.6599067449569702,-0.4575917422771454,-2.4240496158599854
114,3518865,3518866,-0.11317183077335358,-0.389370858669281,0.8621169328689575,5.550903797149658,0.9304577112197876,4.198225975036621,-0.6644667387008667,-0.7934603095054626,-0.2654867172241211,-0.654080331325531,-0.418993204832077,-2.3820033073425293
115,3518875,3518876,-0.3721656799316406,-0.8675277233123779,0.8451700210571289,3.2616758346557617,6.89561653137207,4.072630882263184,-0.6569671630859375,-0.8039597868919373,-0.27298635244369507,-0.6531753540039062,-0.17216522991657257,-2.228797197341919
116,3518885,3518886,-0.6444284915924072,-1.1640448570251465,0.97916179895401,-0.2979806661605835,-0.23423956334590912,3.3871676921844482,-0.6599670052528381,-0.8129593133926392,-0.26098695397377014,-0.6249302625656128,-0.31826430559158325,-2.2731997966766357
117,3518895,3518896,-0.5073012113571167,-0.6270807385444641,1.1152857542037964,-5.912680625915527,-11.413894653320312,6.147340774536133,-0.6479675769805908,-0.8159592151641846,-0.26998651027679443,-0.6656680703163147,-0.15476301312446594,-2.1400797367095947
118,3518905,3518906,-0.3986055552959442,-0.4005756378173828,1.0978704690933228,-5.684693336486816,-12.940374374389648,4.4207916259765625,-0.6434678435325623,-0.8144592642784119,-0.2654867172241211,-0.5085477828979492,-0.2492399364709854,-2.112565517425537
119,3518915,3518916,-0.6010213494300842,-0.4190482497215271,0.986064076423645,-3.512784719467163,-16.973628997802734,4.102754592895508,-0.6584670543670654,-0.8144592642784119,-0.2654867172241211,-0.40168076753616333,-0.1429775208234787,-1.995944857597351
120,3518925,3518926,-0.968161940574646,-0.4694516360759735,0.8402664661407471,-2.9923574924468994,-14.031539916992188,4.659688949584961,-0.6494675278663635,-0.8234587907791138,-0.26848655939102173,-0.20679153501987457,-0.26788121461868286,-1.9841220378875732
121,3518935,3518936,-0.7658694386482239,-0.9819052815437317,0.9150745868682861,-6.840688705444336,-7.7106170654296875,4.347151756286621,-0.6584670543670654,-0.8144592642784119,-0.26848655939102173,-0.04170745611190796,-0.3379223942756653,-1.9409981966018677
122,3518945,3518946,-0.5207796692848206,-0.47535762190818787,0.8759792447090149,-5.317943572998047,-1.229702115058899,3.7076268196105957,-0.6494675278663635,-0.8174591064453125,-0.2744862735271454,0.003242109902203083,-0.42154809832572937,-1.903990626335144
123,3518955,3518956,-0.24734225869178772,-0.7103704214096069,0.9246882796287537,-7.410417556762695,-2.495295524597168,4.500108242034912,-0.6449677348136902,-0.8279585838317871,-0.2639867961406708,0.013328294269740582,-0.503082811832428,-1.8663371801376343
124,3518965,3518966,-0.11430666595697403,-0.5643302202224731,0.98097163438797,-8.383877754211426,2.552555561065674,3.9004082679748535,-0.6434678435325623,-0.8144592642784119,-0.2744862735271454,-0.011699147522449493,-0.6462916135787964,-1.8585549592971802
125,3518975,3518976,-0.6102488040924072,-0.034764379262924194,1.0804435014724731,-4.8623528480529785,1.3122514486312866,4.120004177093506,-0.6464676856994629,-0.8144592642784119,-0.26248687505722046,-0.012761768884956837,-0.68985515832901,-1.8116142749786377
126,3518985,3518986,-0.4711017310619354,-0.07977043092250824,1.0952463150024414,-4.076994895935059,1.1797033548355103,5.848365783691406,-0.6359682083129883,-0.8189590573310852,-0.28498575091362,-0.03177274763584137,-0.6974977254867554,-1.7561997175216675
127,3518995,3518996,-0.273603230714798,-0.02015014924108982,1.054456353187561,-0.9373219609260559,5.56421422958374,4.480860233306885,-0.6464676856994629,-0.8384580612182617,-0.2744862735271454,-0.06579665094614029,-0.6680105924606323,-1.6929991245269775
128,3519005,3519006,-0.38988035917282104,-0.13936364650726318,0.9752593636512756,1.8108783960342407,-1.017278790473938,4.159922122955322,-0.6494675278663635,-0.8204589486122131,-0.26848655939102173,-0.09447920322418213,-0.6738454103469849,-1.6642756462097168
129,3519015,3519016,-0.5014785528182983,-0.20348955690860748,0.9505279660224915,2.980508804321289,-0.669126570224762,3.2791082859039307,-0.6419678926467896,-0.8189590573310852,-0.26998651027679443,-0.093971848487854,-0.6520190238952637,-1.6307461261749268
130,3519025,3519026,-0.8707302808761597,-0.4526536464691162,0.9515700936317444,3.280893325805664,-5.675271034240723,2.0806779861450195,-0.6374680995941162,-0.8264586329460144,-0.28048595786094666,-0.05845461040735245,-0.6248062252998352,-1.6045743227005005
131,3519035,3519036,-0.6870051026344299,-0.18792016804218292,0.916973888874054,3.6658380031585693,-11.692475318908691,2.783074378967285,-0.6419678926467896,-0.8279585838317871,-0.27298635244369507,0.01366416085511446,-0.6119571328163147,-1.5814446210861206
132,3519045,3519046,-0.7683637738227844,-0.22065332531929016,0.9246174097061157,1.8380935192108154,-11.401108741760254,3.3656818866729736,-0.6389680504798889,-0.8279585838317871,-0.2759861946105957,0.11304304003715515,-0.6159411668777466,-1.5530966520309448
133,3519055,3519056,-0.6902669072151184,-0.6048421263694763,0.8943044543266296,1.6575627326965332,-3.9943954944610596,1.6307073831558228,-0.6404679417610168,-0.8264586329460144,-0.2654867172241211,0.19466054439544678,-0.6442787051200867,-1.5317234992980957
134,3519065,3519066,-0.5463634729385376,-0.45943471789360046,0.8960735201835632,1.3944239616394043,-4.992702484130859,3.0749502182006836,-0.6359682083129883,-0.836958110332489,-0.26998651027679443,0.2570999562740326,-0.671144425868988,-1.509749174118042
135,3519075,3519076,-0.6892582774162292,-0.4952391982078552,0.8017489314079285,-0.7386994361877441,2.4701030254364014,3.6779074668884277,-0.6404679417610168,-0.8204589486122131,-0.2744862735271454,0.1617436707019806,-0.7744278907775879,-1.504518985748291
136,3519085,3519086,-0.5866671800613403,-0.641107976436615,0.8240718245506287,0.6260806322097778,7.476044178009033,3.303313970565796,-0.6299684643745422,-0.8399580121040344,-0.26998651027679443,0.1723312884569168,-0.7322624325752258,-1.4478939771652222
137,3519095,3519096,-0.3240286111831665,-0.28810545802116394,0.8809608817100525,1.1183462142944336,3.7096526622772217,4.166304111480713,-0.6374680995941162,-0.8414579033851624,-0.26248687505722046,0.1720736175775528,-0.7350232601165771,-1.4078960418701172
138,3519105,3519106,-0.16242703795433044,-0.5256638526916504,0.9270003437995911,1.5714325904846191,9.97066879272461,3.3409783840179443,-0.6389680504798889,-0.8429578542709351,-0.28198590874671936,0.15611591935157776,-0.7055990099906921,-1.3672016859054565
139,3519115,3519116,0.13929221034049988,-0.11995124816894531,0.9624261260032654,3.0392584800720215,5.260008335113525,2.7266111373901367,-0.623968780040741,-0.8549572229385376,-0.2759861946105957,0.13032059371471405,-0.6545721888542175,-1.3284043073654175
140,3519125,3519126,0.12344559282064438,-0.7109344005584717,1.0201345682144165,4.2335968017578125,2.1358134746551514,3.3519535064697266,-0.6269686222076416,-0.8489575386047363,-0.28198590874671936,0.12648169696331024,-0.6452877521514893,-1.3073219060897827
141,3519135,3519136,-0.10910432040691376,-1.0213111639022827,0.987197995185852,4.587048053741455,7.768037796020508,1.5421661138534546,-0.6254687309265137,-0.850457489490509,-0.2924853563308716,0.10680175572633743,-0.5509452819824219,-1.2686949968338013
142,3519145,3519146,-0.11763256043195724,-0.2940962314605713,1.0045936107635498,7.26785945892334,0.6034829616546631,1.7571992874145508,-0.6389680504798889,-0.851957380771637,-0.2759861946105957,0.08603300154209137,-0.5085361003875732,-1.253755807876587
143,3519155,3519156,-0.5651984810829163,-0.2565930187702179,1.0269330739974976,5.700278282165527,6.024456977844238,0.7970705032348633,-0.6254687309265137,-0.8534573316574097,-0.2924853563308716,0.07376981526613235,-0.4599702060222626,-1.2452540397644043
144,3519165,3519166,-0.3142036497592926,-0.1037755161523819,1.0009568929672241,5.273336887359619,4.258134365081787,0.3705295920372009,-0.6179690957069397,-0.8579570651054382,-0.29998499155044556,0.040025535970926285,-0.3650226891040802,-1.2246639728546143
145,3519175,3519176,-0.15344518423080444,-0.1834750771522522,1.0402108430862427,1.8109720945358276,3.321816921234131,0.9596717357635498,-0.6269686222076416,-0.8489575386047363,-0.29098543524742126,0.021724360063672066,-0.2988159954547882,-1.2080788612365723
146,3519185,3519186,-0.16566677391529083,-0.5298594236373901,0.9573966860771179,2.7183914184570312,4.608924388885498,-0.5174447298049927,-0.6374680995941162,-0.8534573316574097,-0.2924853563308716,0.005331980995833874,-0.3196876645088196,-1.2119801044464111
147,3519195,3519196,-0.4190145432949066,-0.5019099712371826,0.9257686138153076,0.185989648103714,-0.024612439796328545,1.0770314931869507,-0.6269686222076416,-0.8489575386047363,-0.2939853072166443,0.002281846711412072,-0.36824238300323486,-1.2194448709487915
148,3519205,3519206,-0.4233464002609253,-0.44903165102005005,0.930757999420166,0.417562335729599,4.844901084899902,-0.44096606969833374,-0.6269686222076416,-0.8429578542709351,-0.28498575091362,-0.07594302296638489,-0.36167579889297485,-1.213317632675171
149,3519215,3519216,-0.14709657430648804,-0.21369099617004395,0.9431096315383911,2.137765645980835,-4.089550495147705,1.6927618980407715,-0.6314684152603149,-0.8474575877189636,-0.2954852283000946,-0.06720095872879028,-0.3362388014793396,-1.202232837677002
150,3519225,3519226,-0.3305893540382385,-0.2500419318675995,0.9657886624336243,1.269044041633606,2.5119075775146484,-0.4500886797904968,-0.6344682574272156,-0.8474575877189636,-0.2834858298301697,-0.05195346847176552,-0.3112208843231201,-1.1930429935455322
151,3519235,3519236,-0.34788787364959717,-0.34832319617271423,0.9763429760932922,4.251637935638428,-5.2953572273254395,2.0972301959991455,-0.6254687309265137,-0.8534573316574097,-0.28948551416397095,-0.04022235423326492,-0.2681390047073364,-1.1836453676223755
152,3519245,3519246,-0.18645009398460388,-0.18939264118671417,1.0382604598999023,3.3444530963897705,0.6536189913749695,0.6315083503723145,-0.6254687309265137,-0.8714563846588135,-0.28948551416397095,-0.01985148899257183,-0.21266771852970123,-1.1688681840896606
153,3519255,3519256,0.015671996399760246,-0.02833125740289688,1.0551027059555054,4.613055229187012,-4.105077743530273,1.3165168762207031,-0.6329683661460876,-0.8579570651054382,-0.3029848337173462,-0.01005482953041792,-0.22320006787776947,-1.175271987915039
154,3519265,3519266,-0.11283691972494125,0.01850801333785057,1.0396370887756348,3.5825092792510986,0.6590039134025574,-0.29503244161605835,-0.6359682083129883,-0.8549572229385376,-0.29098543524742126,-0.002147266874089837,-0.226312056183815,-1.1833940744400024
155,3519275,3519276,-0.15447436273097992,0.0030193044804036617,1.104759693145752,5.554599285125732,-0.26967594027519226,0.3818693459033966,-0.616469144821167,-0.8564571738243103,-0.2924853563308716,-0.004618542734533548,-0.14563845098018646,-1.1788015365600586
156,3519285,3519286,-0.12076015025377274,-0.15114861726760864,1.1127411127090454,1.7807700634002686,3.3674325942993164,-1.243185043334961,-0.6329683661460876,-0.8579570651054382,-0.2939853072166443,-0.004063788801431656,-0.07660086452960968,-1.1781189441680908
157,3519295,3519296,-0.0372697114944458,0.048654954880476,1.0923495292663574,4.7354207038879395,-1.610880970954895,-1.6166895627975464,-0.6389680504798889,-0.8579570651054382,-0.29098543524742126,0.0008785450481809676,-0.008135381154716015,-1.1846754550933838
158,3519305,3519306,-0.21605657041072845,-0.031714681535959244,1.0631675720214844,1.5351555347442627,2.958974838256836,-2.6512646675109863,-0.6389680504798889,-0.8579570651054382,-0.29098543524742126,0.012610094621777534,-0.028898943215608597,-1.210060954093933
159,3519315,3519316,-0.029300035908818245,-0.03495100140571594,0.9973218441009521,3.494133472442627,-4.975965976715088,-1.1308139562606812,-0.6389680504798889,-0.8579570651054382,-0.29098543524742126,0.03450046107172966,-0.04806976765394211,-1.231505274772644
160,3519325,3519326,-0.10213936865329742,-0.14532122015953064,0.9780965447425842,0.26528164744377136,-0.6598347425460815,-1.8773856163024902,-0.6389680504798889,-0.836958110332489,-0.2969851493835449,0.06492398679256439,-0.006440963130444288,-1.2378194332122803
161,3519335,3519336,-0.1796923279762268,-0.0753631442785263,1.0339940786361694,1.5273926258087158,-1.2047295570373535,-0.31882187724113464,-0.6254687309265137,-0.8534573316574097,-0.2954852283000946,0.08095468580722809,0.023192040622234344,-1.2412787675857544
162,3519345,3519346,-0.1988099068403244,-0.06735692918300629,1.0567740201950073,1.1724108457565308,-0.11547479778528214,-0.7178654074668884,-0.6374680995941162,-0.850457489490509,-0.2864856719970703,0.09359351545572281,0.056330833584070206,-1.2429121732711792
163,3519355,3519356,-0.3842085897922516,-0.06155124306678772,1.0194612741470337,4.019563674926758,-5.175432205200195,1.3593815565109253,-0.623968780040741,-0.851957380771637,-0.2969851493835449,0.09466499090194702,0.09881387650966644,-1.240851879119873
164,3519365,3519366,-0.14722435176372528,0.002915953518822789,1.046956181526184,1.4782425165176392,4.831760406494141,0.12911416590213776,-0.6254687309265137,-0.8594570159912109,-0.2864856719970703,0.08818409591913223,0.1338626891374588,-1.235536813735962
165,3519375,3519376,-0.22402559220790863,-0.038815222680568695,1.0642549991607666,2.084141254425049,0.7307454347610474,0.2548505365848541,-0.6329683661460876,-0.8459576964378357,-0.28498575091362,0.059527188539505005,0.16411010921001434,-1.239683747291565
166,3519385,3519386,-0.30201536417007446,-0.09855644404888153,1.1120213270187378,-0.9498991966247559,5.788608551025391,-0.9166136384010315,-0.6359682083129883,-0.8459576964378357,-0.2939853072166443,0.0416017584502697,0.18874257802963257,-1.2449525594711304
167,3519395,3519396,-0.12498269975185394,0.07569848746061325,1.120469331741333,0.4320377707481384,3.504263401031494,-0.7064648270606995,-0.6359682083129883,-0.8549572229385376,-0.28498575091362,0.017480341717600822,0.18765102326869965,-1.257000207901001
168,3519405,3519406,-0.0821157917380333,-0.11713426560163498,1.0972392559051514,-3.2066702842712402,5.513942718505859,-1.1682050228118896,-0.623968780040741,-0.8489575386047363,-0.29098543524742126,0.007501410786062479,0.18388469517230988,-1.2651499509811401
169,3519415,3519416,-0.1284884810447693,-0.35735228657722473,1.0392687320709229,-2.0046331882476807,-6.323106288909912,-0.9328107237815857,-0.6374680995941162,-0.8534573316574097,-0.2954852283000946,0.03264615312218666,0.22921665012836456,-1.2666935920715332
170,3519425,3519426,-0.2478732168674469,-0.22461503744125366,1.0383975505828857,-2.336918830871582,-2.372357130050659,-1.1509302854537964,-0.6314684152603149,-0.8354582190513611,-0.27148643136024475,0.0930810496211052,0.1980544626712799,-1.2782224416732788
171,3519435,3519436,-0.09319376945495605,-0.015662916004657745,0.9931272268295288,-1.425389051437378,-2.9039535522460938,-1.4364464282989502,-0.6419678926467896,-0.8429578542709351,-0.29098543524742126,0.13007967174053192,0.15762701630592346,-1.2912145853042603
172,3519445,3519446,-0.30955255031585693,-0.13514375686645508,0.9560732841491699,-4.253087520599365,1.2457802295684814,-0.96021568775177,-0.622468888759613,-0.8294585347175598,-0.27148643136024475,0.15521591901779175,0.09873697906732559,-1.3019449710845947
173,3519455,3519456,-0.42123883962631226,-0.24669067561626434,0.9701429009437561,-1.9751780033111572,-0.47041234374046326,-1.2072961330413818,-0.6404679417610168,-0.8264586329460144,-0.2744862735271454,0.15078988671302795,0.11176974326372147,-1.302060604095459
174,3519465,3519466,-0.7109596729278564,-0.6719995737075806,0.9597184062004089,-2.8455045223236084,-2.0860562324523926,0.3597314953804016,-0.6479675769805908,-0.8279585838317871,-0.27898603677749634,0.14891456067562103,0.05996398255228996,-1.3052667379379272
175,3519475,3519476,-0.3963267207145691,-0.4388824999332428,0.9520002603530884,-0.7156261801719666,2.863562822341919,-1.9329396486282349,-0.6359682083129883,-0.8189590573310852,-0.2669866383075714,0.12494856864213943,0.020059391856193542,-1.3137102127075195
176,3519485,3519486,-0.5975795388221741,-0.6786307096481323,0.911805272102356,-0.2647291421890259,-3.046466588973999,0.9085396528244019,-0.6449677348136902,-0.8249587416648865,-0.26998651027679443,0.09868650138378143,-0.009901139885187149,-1.3193916082382202
177,3519495,3519496,-1.3407231569290161,-0.9408563375473022,1.019544243812561,0.36987224221229553,4.459339618682861,-0.882021427154541,-0.6449677348136902,-0.8219588994979858,-0.2669866383075714,0.06012820079922676,-0.02616194635629654,-1.3186393976211548
178,3519505,3519506,-1.1594644784927368,-0.9085623621940613,1.0197111368179321,0.042643118649721146,1.8245928287506104,1.4052813053131104,-0.6434678435325623,-0.8384580612182617,-0.2744862735271454,0.03330780938267708,0.041858743876218796,-1.3040052652359009
179,3519515,3519516,-0.9069258570671082,-0.6554891467094421,0.9341579079627991,1.3876911401748657,2.658083200454712,0.2619175612926483,-0.6434678435325623,-0.8384580612182617,-0.27148643136024475,-0.0007881966303102672,0.031773343682289124,-1.2960518598556519
180,3519525,3519526,-0.41736194491386414,-0.5951762795448303,0.9934500455856323,1.1652657985687256,0.12241454422473907,1.245808720588684,-0.6359682083129883,-0.8309584259986877,-0.27898603677749634,0.07041917741298676,0.0513036884367466,-1.2785409688949585
181,3519535,3519536,-0.4979812204837799,-0.2901880443096161,0.9726157188415527,0.9736514687538147,-0.29228675365448,1.5650066137313843,-0.6404679417610168,-0.8384580612182617,-0.2744862735271454,0.07842563837766647,0.06424503028392792,-1.2630767822265625
182,3519545,3519546,-0.8976793885231018,-0.8077234625816345,0.9541640877723694,3.6951406002044678,4.633075714111328,0.22796016931533813,-0.623968780040741,-0.8279585838317871,-0.27898603677749634,0.13311578333377838,0.07728320360183716,-1.2451108694076538
183,3519555,3519556,-0.9096252918243408,-0.6067100167274475,0.889154851436615,2.724299907684326,-1.0859382152557373,2.44834303855896,-0.6344682574272156,-0.8324583768844604,-0.2864856719970703,0.1261659562587738,0.09767089039087296,-1.2295995950698853
184,3519565,3519566,-1.5132579803466797,-0.49215933680534363,0.9020661115646362,0.5266126990318298,7.394847393035889,0.31394311785697937,-0.6299684643745422,-0.8489575386047363,-0.27298635244369507,0.03805462643504143,0.177216038107872,-1.212755560874939
185,3519575,3519576,-1.3984285593032837,-0.5317240357398987,0.9987614154815674,-0.8839600682258606,1.6974583864212036,2.017831563949585,-0.6254687309265137,-0.8324583768844604,-0.28948551416397095,0.14436699450016022,0.1693323403596878,-1.187543511390686
186,3519585,3519586,-0.7552133202552795,-0.6223450899124146,0.9369022250175476,-1.8823086023330688,6.307453155517578,1.808087706565857,-0.6254687309265137,-0.8294585347175598,-0.27148643136024475,0.09433698654174805,0.12490483373403549,-1.1703507900238037
187,3519595,3519596,-0.5448346138000488,-0.5310600399971008,0.9421426653862,-1.7651455402374268,4.329045295715332,2.2670023441314697,-0.6359682083129883,-0.8339582681655884,-0.2759861946105957,0.027369320392608643,0.23242820799350739,-1.142376184463501
188,3519605,3519606,-0.5018227696418762,-0.31069087982177734,0.9587546586990356,-2.376939296722412,5.63077974319458,2.0374577045440674,-0.6479675769805908,-0.8429578542709351,-0.27898603677749634,-0.054944779723882675,0.17920134961605072,-1.1261705160140991
189,3519615,3519616,-1.2056589126586914,-0.42002013325691223,0.9470050930976868,-1.9496172666549683,12.355549812316895,0.9126217365264893,-0.6374680995941162,-0.8414579033851624,-0.2744862735271454,-0.09288088977336884,0.13249793648719788,-1.1072994470596313
190,3519625,3519626,-0.8019917011260986,-0.6370376348495483,0.8913671970367432,-2.146947145462036,6.330140590667725,1.97239351272583,-0.6494675278663635,-0.8384580612182617,-0.2924853563308716,-0.12603604793548584,0.07725564390420914,-1.0886019468307495
191,3519635,3519636,-0.8815934658050537,-0.5779151916503906,0.9624950289726257,-5.3619537353515625,9.69102954864502,1.1312559843063354,-0.6314684152603149,-0.8324583768844604,-0.2744862735271454,-0.20405037701129913,0.00010971529991365969,-1.0765314102172852
192,3519645,3519646,-0.6505793333053589,-0.7619515657424927,0.9598432779312134,-4.802902698516846,1.2399919033050537,1.5746837854385376,-0.623968780040741,-0.8279585838317871,-0.2759861946105957,-0.2525327801704407,0.12393832206726074,-1.0470389127731323
193,3519655,3519656,-0.3458413779735565,-0.7372570633888245,0.9658140540122986,-4.920470237731934,3.4057209491729736,2.0925819873809814,-0.6359682083129883,-0.836958110332489,-0.27898603677749634,-0.20338234305381775,0.027922220528125763,-1.0270425081253052
194,3519665,3519666,-0.4298597276210785,-0.5238093137741089,0.9121774435043335,-3.3086788654327393,6.733262538909912,0.04223431274294853,-0.6359682083129883,-0.8249587416648865,-0.27898603677749634,-0.2323514223098755,-0.05881166830658913,-1.0168803930282593
195,3519675,3519676,-0.3648816645145416,-0.19158881902694702,0.8937246799468994,-3.957162380218506,-2.1130425930023193,2.3695290088653564,-0.6359682083129883,-0.8309584259986877,-0.27298635244369507,-0.16359199583530426,-0.13780489563941956,-1.0005208253860474
196,3519685,3519686,-0.19110062718391418,-0.4655383825302124,0.9622402787208557,-3.298673152923584,-0.5009844303131104,1.7485871315002441,-0.6314684152603149,-0.8354582190513611,-0.28048595786094666,-0.28683996200561523,-0.20437173545360565,-0.994672417640686
197,3519695,3519696,-0.586916446685791,-0.9382883310317993,0.9497026205062866,-2.8048202991485596,0.9597057700157166,1.2417786121368408,-0.6314684152603149,-0.8414579033851624,-0.2744862735271454,-0.22017395496368408,-0.2747972011566162,-0.977292001247406
198,3519705,3519706,-0.5119905471801758,-0.5387737154960632,0.9092430472373962,-2.9464454650878906,2.883011817932129,1.2201156616210938,-0.6269686222076416,-0.836958110332489,-0.27298635244369507,-0.2409125715494156,-0.3236497640609741,-0.9667813181877136
199,3519715,3519716,-0.734133780002594,-0.26805201172828674,0.8979225754737854,2.765620231628418,2.527723550796509,0.6492958068847656,-0.6329683661460876,-0.8309584259986877,-0.2759861946105957,-0.1414436399936676,-0.3323937952518463,-0.9488740563392639
200,3519725,3519726,-1.0538426637649536,-0.3152143955230713,0.9050394892692566,1.3739538192749023,0.23041202127933502,1.2859684228897095,-0.6359682083129883,-0.8249587416648865,-0.28498575091362,-0.17516964673995972,-0.3060413599014282,-0.9395190477371216
201,3519735,3519736,-0.6575126051902771,-0.48396292328834534,0.9074152112007141,4.966149806976318,3.8284521102905273,-0.3823222517967224,-0.6449677348136902,-0.8219588994979858,-0.27298635244369507,-0.2331409901380539,-0.2625097930431366,-0.935053288936615
202,3519745,3519746,-0.8538365960121155,-1.311053991317749,0.9230170845985413,5.792238235473633,-1.8927011489868164,2.1499781608581543,-0.6464676856994629,-0.8324583768844604,-0.2864856719970703,-0.2816932201385498,-0.19550873339176178,-0.9267219305038452
203,3519755,3519756,-0.7145691514015198,-0.6977814435958862,0.9924589991569519,3.5284218788146973,4.674620628356934,0.6878196001052856,-0.6314684152603149,-0.850457489490509,-0.2744862735271454,-0.3356200158596039,-0.1404053270816803,-0.9130807518959045
204,3519765,3519766,-0.2321757972240448,-0.6810705661773682,0.9874330759048462,3.5379772186279297,-1.9678391218185425,2.1049633026123047,-0.6344682574272156,-0.844457745552063,-0.277486115694046,-0.38478538393974304,-0.10149466246366501,-0.9018903374671936
205,3519775,3519776,-0.10824031382799149,-0.8861458897590637,0.9970820546150208,-0.5247291922569275,-0.7048982381820679,1.911663293838501,-0.6344682574272156,-0.8414579033851624,-0.26848655939102173,-0.25861498713493347,-0.10034020245075226,-0.8839408159255981
206,3519785,3519786,-0.5379335880279541,-0.8278287649154663,1.0174669027328491,0.7326683402061462,-2.5440073013305664,1.2859294414520264,-0.6404679417610168,-0.8354582190513611,-0.2744862735271454,-0.27943599224090576,0.021852415055036545,-0.8595213294029236
207,3519795,3519796,-0.48485511541366577,-0.42983365058898926,0.9905617237091064,-3.400040864944458,-6.157276153564453,2.350437879562378,-0.6254687309265137,-0.8354582190513611,-0.28048595786094666,-0.25356101989746094,-0.04168710112571716,-0.8504166603088379
208,3519805,3519806,-0.194414421916008,-0.11318580061197281,1.0635210275650024,-4.829078674316406,-2.7474687099456787,1.3687037229537964,-0.623968780040741,-0.8459576964378357,-0.28198590874671936,-0.22769306600093842,-0.127292200922966,-0.8413170576095581
209,3519815,3519816,-0.20695288479328156,-0.49003440141677856,1.0872782468795776,-5.317041873931885,-6.371943950653076,2.595932960510254,-0.6299684643745422,-0.8399580121040344,-0.2759861946105957,-0.20753918588161469,-0.21838335692882538,-0.8302174210548401
210,3519825,3519826,-1.169696569442749,-0.3883231282234192,1.0657745599746704,-5.635781764984131,-0.1587173044681549,0.9350637197494507,-0.6314684152603149,-0.8414579033851624,-0.2864856719970703,-0.1949567198753357,-0.3143376410007477,-0.8221691250801086
211,3519835,3519836,-0.7378672957420349,-0.6446430087089539,1.0986058712005615,-3.509371519088745,-4.174025058746338,2.111678123474121,-0.6344682574272156,-0.844457745552063,-0.2744862735271454,-0.2071845382452011,-0.39227086305618286,-0.8157878518104553
212,3519845,3519846,-0.4822885990142822,-0.41856056451797485,1.0360722541809082,-2.1123805046081543,2.656386375427246,0.7726689577102661,-0.6299684643745422,-0.8279585838317871,-0.28498575091362,-0.23156647384166718,-0.4481838047504425,-0.809648334980011
213,3519855,3519856,-0.18061968684196472,-0.10386872291564941,1.0947567224502563,1.2327800989151,3.1801490783691406,1.2177348136901855,-0.6404679417610168,-0.8354582190513611,-0.28048595786094666,-0.29206371307373047,-0.24313636124134064,-0.7804164886474609
214,3519865,3519866,-0.1828152984380722,-0.4084978401660919,1.0945202112197876,0.4006759822368622,4.580343723297119,1.3064751625061035,-0.6359682083129883,-0.8339582681655884,-0.26098695397377014,-0.21403658390045166,-0.4423730671405792,-0.7909365892410278
215,3519875,3519876,-0.2106371521949768,-0.15139031410217285,1.1340194940567017,3.0181424617767334,6.042989730834961,0.004556421190500259,-0.6494675278663635,-0.8174591064453125,-0.2744862735271454,-0.36082735657691956,-0.4711099863052368,-0.7904379367828369
216,3519885,3519886,-0.047538891434669495,0.06694094091653824,1.1064519882202148,2.191392421722412,2.637097120285034,1.2961409091949463,-0.6374680995941162,-0.8144592642784119,-0.27148643136024475,-0.4035552442073822,-0.41218626499176025,-0.782476007938385
217,3519895,3519896,-0.15626801550388336,0.08244556933641434,1.0812475681304932,3.820096492767334,3.272195816040039,-0.6557497382164001,-0.6389680504798889,-0.8099594712257385,-0.2639867961406708,-0.4169437885284424,-0.3443915545940399,-0.7755718231201172
218,3519905,3519906,-0.11196859180927277,0.06615327298641205,1.0745562314987183,5.40323543548584,-3.4159531593322754,0.9617705941200256,-0.6464676856994629,-0.8144592642784119,-0.2594870328903198,-0.3912688195705414,-0.25289830565452576,-0.7715355753898621
219,3519915,3519916,-0.024781635031104088,-0.06846823543310165,1.061372995376587,2.831601619720459,-1.4357199668884277,-0.3591574728488922,-0.6494675278663635,-0.7994599938392639,-0.25348731875419617,-0.3236704468727112,-0.17026615142822266,-0.7650933861732483
220,3519925,3519926,-0.12735283374786377,-0.06065570190548897,1.0238580703735352,4.047404766082764,-6.86845064163208,-0.05186821147799492,-0.6494675278663635,-0.80545973777771,-0.2594870328903198,-0.23552080988883972,-0.10274499654769897,-0.7635030150413513
221,3519935,3519936,-0.6013063192367554,-0.06590089946985245,1.0018079280853271,1.0561004877090454,-7.657402515411377,1.6011383533477783,-0.6644667387008667,-0.7964601516723633,-0.2654867172241211,-0.1190408393740654,0.01469324715435505,-0.752476155757904
222,3519945,3519946,-0.4963147044181824,-0.1312820166349411,1.043769359588623,0.1010088250041008,-3.443695068359375,0.3596796691417694,-0.6509674191474915,-0.8069596290588379,-0.26098695397377014,-0.016724497079849243,0.16735990345478058,-0.7340909242630005
223,3519955,3519956,-0.046050846576690674,0.15985773503780365,1.062587857246399,-1.6760928630828857,-5.891967296600342,1.263081431388855,-0.6464676856994629,-0.8024598360061646,-0.27148643136024475,0.06424597650766373,-0.05528128892183304,-0.7510468363761902
224,3519965,3519966,-0.052542127668857574,0.055110298097133636,0.977404773235321,-3.0208654403686523,-3.754305124282837,0.0514877624809742,-0.6329683661460876,-0.8069596290588379,-0.2579870820045471,0.12314766645431519,-0.027234556153416634,-0.7440801858901978
225,3519975,3519976,-0.05962853878736496,-0.04417874291539192,0.9268929958343506,-5.327320575714111,-1.3727622032165527,0.23947569727897644,-0.6509674191474915,-0.7919603586196899,-0.2579870820045471,0.1491760015487671,-0.1684255599975586,-0.753735363483429
226,3519985,3519986,-0.18419305980205536,0.003839524695649743,0.8889830708503723,-4.116611480712891,-3.583137273788452,0.11055763065814972,-0.6464676856994629,-0.7964601516723633,-0.25048747658729553,-0.0007016981835477054,-0.24719218909740448,-0.7571181654930115
227,3519995,3519996,-0.3421842157840729,0.020422181114554405,0.9038252234458923,-4.2545342445373535,2.8162879943847656,0.13674822449684143,-0.6554672122001648,-0.7994599938392639,-0.2474876195192337,-0.03382203355431557,-0.324264258146286,-0.7568191289901733
228,3520005,3520006,-1.1013929843902588,-0.6756871342658997,0.86705482006073,-1.1198513507843018,3.329218626022339,-1.2055089473724365,-0.6434678435325623,-0.7994599938392639,-0.26848655939102173,-0.03701816871762276,-0.3680933713912964,-0.7600186467170715
229,3520015,3520016,-1.3030229806900024,-0.4158296287059784,0.912898063659668,-0.8660248517990112,4.952788829803467,0.3454234302043915,-0.6464676856994629,-0.8024598360061646,-0.2564871609210968,-0.10900293290615082,-0.39555537700653076,-0.7612370252609253
230,3520025,3520026,-1.0391113758087158,-0.22534987330436707,0.9011422991752625,3.4946398735046387,7.438039302825928,0.9814420342445374,-0.6464676856994629,-0.8084595799446106,-0.2594870328903198,-0.18509426712989807,0.24320173263549805,-0.7153093814849854
231,3520035,3520036,-1.0394459962844849,-0.5277727842330933,0.9170399308204651,1.2769089937210083,8.599254608154297,1.0112295150756836,-0.6389680504798889,-0.8159592151641846,-0.26998651027679443,-0.16315682232379913,0.24689888954162598,-0.7102454900741577
232,3520045,3520046,-0.6403469443321228,-0.18708179891109467,0.9491380453109741,-0.7490295767784119,2.199876546859741,0.3731124699115753,-0.6434678435325623,-0.8144592642784119,-0.27148643136024475,-0.16451089084148407,0.24823032319545746,-0.7078196406364441
233,3520055,3520056,-0.8786121606826782,0.1334293782711029,0.9989474415779114,-3.3979387283325195,-11.96663761138916,1.4123001098632812,-0.6494675278663635,-0.8144592642784119,-0.26848655939102173,-0.020232684910297394,0.21629267930984497,-0.7030097842216492
234,3520065,3520066,-0.3043496906757355,0.05425170809030533,0.9129210710525513,-5.922832012176514,-14.489086151123047,1.0953214168548584,-0.6314684152603149,-0.8204589486122131,-0.26848655939102173,0.11344320327043533,0.04367217421531677,-0.7000733017921448
235,3520075,3520076,-0.39701786637306213,-0.2704499363899231,0.8642953038215637,-8.702264785766602,-7.8808064460754395,-1.4141844511032104,-0.6344682574272156,-0.8204589486122131,-0.28048595786094666,0.22933530807495117,-0.12166246026754379,-0.7010297179222107
236,3520085,3520086,-0.4175090789794922,-0.46357449889183044,0.80008864402771,-11.36457633972168,-4.519079685211182,-0.86257404088974,-0.6299684643745422,-0.8249587416648865,-0.26098695397377014,0.23751100897789001,-0.20287154614925385,-0.7043573260307312
237,3520095,3520096,-0.6144768595695496,-0.2661488354206085,0.8928560614585876,-12.99401569366455,-1.6580638885498047,0.037100959569215775,-0.6494675278663635,-0.8114594221115112,-0.2744862735271454,0.2784092128276825,-0.383877694606781,-0.7073593735694885
238,3520105,3520106,-0.5977489948272705,-0.3778855800628662,0.9723906517028809,-14.491105079650879,7.796802043914795,0.2174038589000702,-0.6404679417610168,-0.8234587907791138,-0.2594870328903198,0.24722036719322205,-0.49305814504623413,-0.704957127571106
239,3520115,3520116,-0.38013187050819397,0.014084266498684883,0.9724693298339844,-11.686440467834473,14.096085548400879,0.122362419962883,-0.6374680995941162,-0.8234587907791138,-0.26248687505722046,0.2121579349040985,-0.7045298218727112,-0.7059294581413269
240,3520125,3520126,-0.8489323258399963,-0.0773487463593483,1.0056754350662231,-8.439631462097168,7.30681848526001,1.6169480085372925,-0.6254687309265137,-0.8384580612182617,-0.2654867172241211,0.22522005438804626,-0.7202733755111694,-0.6988475918769836
241,3520135,3520136,-0.9253139495849609,0.0224728025496006,1.0539393424987793,-6.107620716094971,4.803382873535156,1.3983274698257446,-0.6359682083129883,-0.8159592151641846,-0.27298635244369507,0.105730801820755,-0.8072864413261414,-0.6909489631652832
242,3520145,3520146,-0.1614881008863449,-0.1618022620677948,1.1250507831573486,2.1543054580688477,2.8486855030059814,0.7049399614334106,-0.6359682083129883,-0.8159592151641846,-0.27298635244369507,0.040526390075683594,-0.8081195950508118,-0.6827006340026855
243,3520155,3520156,-0.2026103436946869,-0.06367270648479462,1.2089227437973022,6.335582733154297,-4.419103622436523,2.517847776412964,-0.6359682083129883,-0.8159592151641846,-0.27298635244369507,-0.06835408508777618,-0.8001919984817505,-0.6701421141624451
244,3520165,3520166,-0.3362490236759186,-0.19458165764808655,1.18208646774292,9.33247184753418,1.954349160194397,1.40900456905365,-0.623968780040741,-0.8489575386047363,-0.28798559308052063,-0.02935139834880829,-0.6689456105232239,-0.6554172039031982
245,3520175,3520176,-0.728507399559021,-0.723085343837738,1.037856936454773,13.394780158996582,-0.5952763557434082,0.9292240738868713,-0.6314684152603149,-0.8384580612182617,-0.2864856719970703,-0.061697330325841904,-0.5079154968261719,-0.6463684439659119
246,3520185,3520186,-0.5466581583023071,-0.31058159470558167,1.0944288969039917,8.335744857788086,2.7881662845611572,1.7122782468795776,-0.6284685730934143,-0.8264586329460144,-0.28948551416397095,-0.1418139934539795,-0.49030980467796326,-0.6307493448257446
247,3520195,3520196,-0.3651633560657501,-0.45718953013420105,1.1116784811019897,9.635266304016113,5.675061225891113,0.861713171005249,-0.6374680995941162,-0.8384580612182617,-0.2834858298301697,-0.10377653688192368,-0.5049208402633667,-0.6227284073829651
248,3520205,3520206,-0.6460251212120056,-1.057162880897522,0.9773494005203247,7.673530578613281,2.3961613178253174,1.4058761596679688,-0.6404679417610168,-0.8144592642784119,-0.28048595786094666,-0.19922968745231628,-0.4663688540458679,-0.606013298034668
249,3520215,3520216,-0.4346010088920593,-0.27689406275749207,0.8796821236610413,1.5863245725631714,3.1222381591796875,1.9104907512664795,-0.6359682083129883,-0.8219588994979858,-0.27898603677749634,-0.18511350452899933,-0.4806930422782898,-0.5890573859214783
250,3520225,3520226,-0.2807656228542328,-0.1742527186870575,0.8937796950340271,3.2044591903686523,9.464557647705078,1.5222246646881104,-0.6479675769805908,-0.8339582681655884,-0.27898603677749634,-0.2699061930179596,-0.4518415331840515,-0.5649115443229675
251,3520235,3520236,-0.40758606791496277,-0.35783204436302185,0.9633964896202087,0.06919723749160767,1.3597573041915894,2.604611396789551,-0.6494675278663635,-0.8234587907791138,-0.277486115694046,-0.24582980573177338,-0.5663378834724426,-0.5453857183456421
252,3520245,3520246,-0.3296476900577545,-0.4473254084587097,0.938690185546875,1.3306565284729004,1.29581618309021,2.6437227725982666,-0.623968780040741,-0.8309584259986877,-0.28498575091362,-0.20712772011756897,-0.5348638892173767,-0.5212304592132568
253,3520255,3520256,-0.882834255695343,-0.07846873253583908,0.9270477294921875,3.590235471725464,1.350912094116211,2.17563796043396,-0.6299684643745422,-0.836958110332489,-0.2759861946105957,-0.16786842048168182,-0.4664906859397888,-0.49699923396110535
254,3520265,3520266,-0.5361518263816833,-0.04022536799311638,1.017234444618225,6.670243263244629,1.9843757152557373,2.3327343463897705,-0.6344682574272156,-0.8354582190513611,-0.2744862735271454,-0.21635647118091583,-0.35475587844848633,-0.4724418520927429
255,3520275,3520276,-0.8752947449684143,-0.622037947177887,1.0410202741622925,8.092565536499023,4.282243728637695,2.293571710586548,-0.6449677348136902,-0.8279585838317871,-0.2759861946105957,-0.2917785942554474,-0.28732433915138245,-0.4483276605606079
256,3520285,3520286,-0.6898288726806641,-0.33787304162979126,1.0140429735183716,10.13306999206543,5.468712329864502,2.1118826866149902,-0.6299684643745422,-0.8399580121040344,-0.2969851493835449,-0.3209313750267029,-0.12053963541984558,-0.42331522703170776
257,3520295,3520296,-0.6593509912490845,-0.6300921440124512,1.0963295698165894,10.226053237915039,6.983865261077881,2.1320290565490723,-0.6254687309265137,-0.8534573316574097,-0.2864856719970703,-0.23775868117809296,-0.08047803491353989,-0.4121529459953308
258,3520305,3520306,-1.1354020833969116,-0.2860911190509796,1.084328055381775,6.987939834594727,11.986018180847168,0.3417583107948303,-0.6299684643745422,-0.8309584259986877,-0.28198590874671936,-0.37621355056762695,-0.05945500731468201,-0.39723899960517883
259,3520315,3520316,-0.5346432328224182,-0.31956255435943604,1.0019651651382446,7.05819845199585,5.527262210845947,1.6913666725158691,-0.6359682083129883,-0.8429578542709351,-0.28498575091362,-0.44464147090911865,0.0850801169872284,-0.3830314874649048
260,3520325,3520326,-0.2838805317878723,-0.24449500441551208,1.0291650295257568,3.4616613388061523,4.773232460021973,1.809129238128662,-0.6269686222076416,-0.8669566512107849,-0.2969851493835449,-0.5597741603851318,0.1128215491771698,-0.3655939996242523
261,3520335,3520336,-0.3468130826950073,-0.11849422007799149,1.0125104188919067,1.4037057161331177,3.4345602989196777,1.726496696472168,-0.623968780040741,-0.8489575386047363,-0.28198590874671936,-0.6409797668457031,0.17014141380786896,-0.34501582384109497
262,3520345,3520346,-1.4479948282241821,-0.3378177881240845,0.9933620095252991,0.3246958553791046,2.4701788425445557,1.3493248224258423,-0.622468888759613,-0.8474575877189636,-0.28948551416397095,-0.7093556523323059,0.1997254341840744,-0.3289288580417633
263,3520355,3520356,-0.8035163879394531,-0.7249123454093933,0.9950302243232727,-1.2031689882278442,0.47108814120292664,0.8155418634414673,-0.623968780040741,-0.8549572229385376,-0.28498575091362,-0.5977948904037476,0.061758752912282944,-0.3279934227466583
264,3520365,3520366,-1.0046186447143555,-0.6012938618659973,1.0038913488388062,-2.4519553184509277,-2.056873083114624,0.6491602659225464,-0.6419678926467896,-0.8489575386047363,-0.28198590874671936,-0.5967658758163452,0.05997408181428909,-0.32029807567596436
265,3520375,3520376,-0.4497445523738861,-0.3068668842315674,1.039186716079712,-2.528186321258545,-2.4775936603546143,0.515133798122406,-0.6194689869880676,-0.8534573316574097,-0.2834858298301697,-0.5754338502883911,0.11874691396951675,-0.30838513374328613
266,3520385,3520386,-0.641970157623291,-0.4062924385070801,0.9918569326400757,-0.8521039485931396,-2.822916269302368,0.42987677454948425,-0.622468888759613,-0.8474575877189636,-0.3044847846031189,-0.5445253849029541,0.04075882211327553,-0.30768823623657227
267,3520395,3520396,-0.38276758790016174,-0.29417967796325684,1.03178071975708,0.3863564431667328,-1.9298462867736816,0.48834818601608276,-0.6209689378738403,-0.8699564933776855,-0.28498575091362,-0.5158778429031372,0.059537000954151154,-0.3024788200855255
268,3520405,3520406,-0.2715860903263092,-0.2013375461101532,1.0373868942260742,2.9100518226623535,-0.5989949107170105,-0.2947506308555603,-0.6179690957069397,-0.8609569072723389,-0.3029848337173462,-0.502833902835846,0.11606448888778687,-0.29882434010505676
269,3520415,3520416,-0.4109894335269928,-0.20088092982769012,1.0446288585662842,4.764872074127197,1.0674285888671875,-0.4051409363746643,-0.6269686222076416,-0.8579570651054382,-0.2939853072166443,-0.5148711800575256,0.1292986273765564,-0.3052768111228943
270,3520425,3520426,-0.7409959435462952,-0.31612253189086914,1.0525774955749512,5.220672607421875,1.7983310222625732,-0.7429115772247314,-0.6134693026542664,-0.8534573316574097,-0.28948551416397095,-0.5425848364830017,0.23010437190532684,-0.3061535954475403
271,3520435,3520436,-1.0331073999404907,-0.392164409160614,1.0218229293823242,5.296624660491943,-1.7476434707641602,-0.3479073643684387,-0.616469144821167,-0.8624568581581116,-0.28948551416397095,-0.5752624273300171,0.25297001004219055,-0.3152283728122711
272,3520445,3520446,-0.7962124943733215,-0.6543195247650146,1.0479880571365356,2.942845582962036,1.951533555984497,-1.2944689989089966,-0.6209689378738403,-0.8699564933776855,-0.29998499155044556,-0.6683824062347412,0.11643700301647186,-0.3424426317214966
273,3520455,3520456,-0.7453986406326294,-0.2905266582965851,1.0583332777023315,1.518608808517456,0.5686726570129395,-1.3336316347122192,-0.6179690957069397,-0.8639568090438843,-0.3029848337173462,-0.6184259057044983,0.11078719794750214,-0.3546401262283325
274,3520465,3520466,-1.2444406747817993,-0.1713702529668808,1.0720820426940918,1.5611035823822021,-1.0458621978759766,-1.8487170934677124,-0.6269686222076416,-0.8609569072723389,-0.2969851493835449,-0.6246339082717896,0.16599147021770477,-0.36750051379203796
275,3520475,3520476,-0.7451502084732056,-0.23511424660682678,1.04007089138031,3.6465682983398438,-12.37711238861084,-0.8780856132507324,-0.6254687309265137,-0.8744562864303589,-0.28048595786094666,-0.6349192261695862,0.2301349639892578,-0.38229042291641235
276,3520485,3520486,-0.5089849233627319,-0.036686841398477554,1.0686979293823242,1.7299052476882935,-3.7936043739318848,-2.329291582107544,-0.6299684643745422,-0.8639568090438843,-0.2939853072166443,-0.5435742139816284,0.2897757291793823,-0.39551976323127747
277,3520495,3520496,-0.6078682541847229,-0.07045689970254898,1.1456385850906372,2.4178946018218994,-7.229128837585449,-1.0845098495483398,-0.6104694604873657,-0.8594570159912109,-0.28948551416397095,-0.45765626430511475,0.3427424430847168,-0.4114401936531067
278,3520505,3520506,-0.16281288862228394,0.14240413904190063,1.1159000396728516,-0.20312640070915222,1.6658802032470703,-3.148697853088379,-0.6314684152603149,-0.8684565424919128,-0.28948551416397095,-0.3662939667701721,0.525488555431366,-0.41719648241996765
279,3520515,3520516,-0.047099724411964417,-0.09785241633653641,1.0935877561569214,0.5785937309265137,-3.7805368900299072,-2.0085079669952393,-0.6104694604873657,-0.8534573316574097,-0.2924853563308716,-0.29392287135124207,0.25998157262802124,-0.4683387875556946
280,3520525,3520526,-0.06984198838472366,-0.15563319623470306,1.0913430452346802,-0.2440817803144455,-4.72218656539917,-2.481131076812744,-0.6254687309265137,-0.8624568581581116,-0.2864856719970703,-0.21350426971912384,0.28317368030548096,-0.48902204632759094
281,3520535,3520536,-0.16086779534816742,-0.1595117598772049,1.0264513492584229,-0.2611163556575775,-4.891099452972412,-1.8300213813781738,-0.616469144821167,-0.8594570159912109,-0.2834858298301697,-0.21385814249515533,0.23093567788600922,-0.5198755264282227
282,3520545,3520546,-0.10799968987703323,-0.15756414830684662,1.040098786354065,1.2678030729293823,-1.41734778881073,-2.9044315814971924,-0.622468888759613,-0.844457745552063,-0.2864856719970703,-0.23452416062355042,0.2613734006881714,-0.5463065505027771
283,3520555,3520556,-0.18089325726032257,-0.14295534789562225,1.0250818729400635,3.452259063720703,-6.480373382568359,-1.183762550354004,-0.6359682083129883,-0.8579570651054382,-0.28798559308052063,-0.2170611321926117,0.318066269159317,-0.5665271878242493
284,3520565,3520566,-0.4105944037437439,-0.32001954317092896,1.0702812671661377,3.065593719482422,1.6160143613815308,-2.6596903800964355,-0.6344682574272156,-0.850457489490509,-0.28048595786094666,-0.1523238867521286,0.3790633976459503,-0.5789451003074646
285,3520575,3520576,-0.20216122269630432,-0.13069921731948853,1.0881704092025757,5.295685291290283,-5.526376247406006,-1.272665023803711,-0.6269686222076416,-0.851957380771637,-0.29098543524742126,-0.11583466827869415,0.4577632546424866,-0.5962938666343689
286,3520585,3520586,-0.3155306875705719,-0.3371116816997528,1.095102071762085,3.4489831924438477,4.871906280517578,-2.699644088745117,-0.6299684643745422,-0.8579570651054382,-0.28498575091362,-0.17845024168491364,0.5332759618759155,-0.6195200085639954
287,3520595,3520596,-0.8002129793167114,-0.211320698261261,1.150355577468872,3.8198163509368896,1.3876827955245972,-1.704136848449707,-0.622468888759613,-0.8534573316574097,-0.29848507046699524,-0.18865299224853516,0.5963510274887085,-0.640089750289917
288,3520605,3520606,-0.4396011531352997,0.11577871441841125,1.1208693981170654,0.6635697484016418,6.288750171661377,-3.3343822956085205,-0.6359682083129883,-0.8549572229385376,-0.28198590874671936,-0.2682593762874603,0.709754467010498,-0.6645663976669312
289,3520615,3520616,-0.4493028223514557,-0.0265730582177639,1.1483646631240845,-0.18051385879516602,1.9745416641235352,-2.0076255798339844,-0.622468888759613,-0.850457489490509,-0.2834858298301697,-0.19474735856056213,0.7075397968292236,-0.6817910075187683
290,3520625,3520626,-0.19479623436927795,-0.05716902017593384,1.146618127822876,-6.8413801193237305,7.970978736877441,-3.761857032775879,-0.6284685730934143,-0.850457489490509,-0.277486115694046,-0.24834726750850677,0.6579035520553589,-0.7124532461166382
291,3520635,3520636,-0.008472450077533722,0.034927938133478165,1.0474995374679565,-5.892848491668701,0.5318979620933533,-1.6455023288726807,-0.6389680504798889,-0.8309584259986877,-0.28198590874671936,-0.2811008393764496,0.5561877489089966,-0.7413528561592102
292,3520645,3520646,-0.010793251916766167,0.00798251386731863,1.0236884355545044,-9.383771896362305,8.05722713470459,-2.6805660724639893,-0.6344682574272156,-0.8414579033851624,-0.277486115694046,-0.2235959768295288,0.5193299055099487,-0.7516953945159912
293,3520655,3520656,-1.1342493295669556,-0.10980935394763947,1.0197465419769287,-6.609828472137451,-2.3429479598999023,-1.2211307287216187,-0.6359682083129883,-0.8309584259986877,-0.27898603677749634,-0.22917510569095612,0.4629857838153839,-0.7690613865852356
294,3520665,3520666,-1.1948572397232056,-0.2598585784435272,1.047204613685608,-6.83688497543335,5.652624607086182,-1.6725432872772217,-0.6344682574272156,-0.8474575877189636,-0.28048595786094666,-0.2200631946325302,0.35632842779159546,-0.7822045087814331
295,3520675,3520676,-0.5650948882102966,-0.30553343892097473,0.9668506979942322,-4.342602252960205,2.0829710960388184,-1.9183130264282227,-0.6449677348136902,-0.8279585838317871,-0.2759861946105957,-0.23258303105831146,0.27230072021484375,-0.7996174693107605
296,3520685,3520686,-0.1742028445005417,-0.3987973928451538,0.9750250577926636,-4.584712028503418,5.610952854156494,-1.546570897102356,-0.6314684152603149,-0.8474575877189636,-0.2924853563308716,-0.25447413325309753,0.279252827167511,-0.8132429122924805
297,3520695,3520696,-0.3293067514896393,-0.7569946646690369,0.9316956400871277,0.1886145919561386,3.9999961853027344,-1.5994664430618286,-0.6374680995941162,-0.8414579033851624,-0.28048595786094666,-0.2276194542646408,0.3129139542579651,-0.817243218421936
298,3520705,3520706,-0.285463809967041,-0.665277361869812,0.9129860997200012,-0.5501506328582764,4.875207901000977,-0.6995482444763184,-0.6389680504798889,-0.8489575386047363,-0.27298635244369507,-0.2714424729347229,0.30720919370651245,-0.8287148475646973
299,3520715,3520716,-0.7468480467796326,-0.28977879881858826,0.9017375707626343,0.9457256197929382,7.766561985015869,-1.9540351629257202,-0.6464676856994629,-0.8234587907791138,-0.2834858298301697,-0.3443651795387268,0.30257704854011536,-0.8408452272415161
300,3520725,3520726,-0.2916041910648346,-0.19309426844120026,0.9079925417900085,-0.0588357150554657,2.199669599533081,0.330861896276474,-0.6329683661460876,-0.836958110332489,-0.2759861946105957,-0.4034433960914612,0.29874861240386963,-0.8484615683555603
301,3520735,3520736,-0.3542425334453583,-0.2932261526584625,0.8687340617179871,-2.169053316116333,10.579780578613281,-1.7807841300964355,-0.6299684643745422,-0.8429578542709351,-0.29098543524742126,-0.4719015955924988,0.32923850417137146,-0.8535937666893005
302,3520745,3520746,-0.1384781450033188,-0.4585414528846741,0.9138582348823547,-4.175318717956543,0.717289388179779,-0.5655856728553772,-0.6344682574272156,-0.8354582190513611,-0.2834858298301697,-0.38277527689933777,0.26151201128959656,-0.8501572012901306
303,3520755,3520756,-0.12122148275375366,-0.6191678047180176,0.9387113451957703,-6.228454113006592,6.57600212097168,-1.6858820915222168,-0.6269686222076416,-0.851957380771637,-0.28198590874671936,-0.4102481007575989,0.16190123558044434,-0.8620566129684448
304,3520765,3520766,-0.1520262360572815,-0.32057133316993713,0.9092528223991394,-7.262389659881592,1.3015086650848389,-1.7813224792480469,-0.6389680504798889,-0.8399580121040344,-0.28198590874671936,-0.4272262454032898,0.18260204792022705,-0.8723966479301453
305,3520775,3520776,-0.8181949853897095,-0.30094584822654724,0.9648195505142212,-8.481219291687012,2.278918981552124,-1.4004405736923218,-0.6209689378738403,-0.8549572229385376,-0.28798559308052063,-0.41890814900398254,0.11289053410291672,-0.8830634355545044
306,3520785,3520786,-1.407727837562561,-0.17907299101352692,0.9301890134811401,-5.62257194519043,0.9083466529846191,-1.4786165952682495,-0.623968780040741,-0.8429578542709351,-0.2939853072166443,-0.40774092078208923,0.12291861325502396,-0.8895004987716675
307,3520795,3520796,-1.1888229846954346,-0.3337497413158417,0.9337684512138367,-7.174986839294434,-0.47770634293556213,-0.42589816451072693,-0.6359682083129883,-0.8489575386047363,-0.29098543524742126,-0.37810027599334717,-0.0671083852648735,-0.9000198245048523
308,3520805,3520806,-0.28432703018188477,-0.6072013974189758,0.9285449981689453,-3.896071434020996,3.355900287628174,-1.584112286567688,-0.6344682574272156,-0.8414579033851624,-0.28948551416397095,-0.3680766522884369,-0.09130394458770752,-0.9043471217155457
309,3520815,3520816,-0.4401601552963257,-0.8612157106399536,0.9342185854911804,-3.383092164993286,-2.977527141571045,0.7118249535560608,-0.6269686222076416,-0.8549572229385376,-0.28198590874671936,-0.36051055788993835,-0.0295830350369215,-0.9031389951705933
310,3520825,3520826,-1.0809810161590576,-0.8096083998680115,0.916765034198761,-1.0927984714508057,5.358010292053223,-1.8641881942749023,-0.6329683661460876,-0.8579570651054382,-0.29098543524742126,-0.3778442144393921,-0.0890592560172081,-0.9070806503295898
311,3520835,3520836,-0.8009057641029358,-0.871364951133728,0.9332257509231567,-1.6277540922164917,-3.0996949672698975,0.04714743047952652,-0.6284685730934143,-0.850457489490509,-0.28948551416397095,-0.39992988109588623,-0.1447797566652298,-0.9186035394668579
312,3520845,3520846,-0.3499469757080078,-0.48965921998023987,0.9439388513565063,-1.3745452165603638,4.405139446258545,-1.4757006168365479,-0.6374680995941162,-0.8684565424919128,-0.3044847846031189,-0.4282549023628235,-0.05861535295844078,-0.9218360185623169
313,3520855,3520856,-0.29829177260398865,-0.2210761308670044,0.9616003036499023,-0.7103495597839355,-3.2943153381347656,0.15090791881084442,-0.6179690957069397,-0.8669566512107849,-0.29098543524742126,-0.3829070031642914,-0.04060138389468193,-0.9260246157646179
314,3520865,3520866,-0.6172327995300293,-0.2696606516838074,1.0310256481170654,-3.935429573059082,0.009313399903476238,-1.7357211112976074,-0.6269686222076416,-0.8609569072723389,-0.2939853072166443,-0.3994516432285309,-0.1188327744603157,-0.9375835657119751
315,3520875,3520876,-0.6151222586631775,-0.18269675970077515,1.050135612487793,-3.6398587226867676,-5.790627479553223,0.06932967901229858,-0.6254687309265137,-0.8594570159912109,-0.29848507046699524,-0.3991393446922302,-0.14185698330402374,-0.9500661492347717
316,3520885,3520886,-0.2650672197341919,-0.14410778880119324,1.0994441509246826,-8.014766693115234,-0.8018540740013123,-1.1590081453323364,-0.6269686222076416,-0.8699564933776855,-0.2939853072166443,-0.3102482557296753,-0.2085060477256775,-0.958423912525177
317,3520895,3520896,-0.2678297162055969,-0.5019619464874268,1.0967837572097778,-6.603469371795654,-7.846658706665039,0.5315482020378113,-0.6269686222076416,-0.8489575386047363,-0.26998651027679443,-0.295520156621933,-0.2908473014831543,-0.9685488343238831
318,3520905,3520906,-0.28767478466033936,-0.3754541575908661,1.1385787725448608,-8.896041870117188,2.2660934925079346,-1.6192348003387451,-0.6314684152603149,-0.850457489490509,-0.28948551416397095,-0.27719393372535706,-0.37091678380966187,-0.9776432514190674
319,3520915,3520916,-0.3714148700237274,-0.2139306515455246,1.111132264137268,-7.0557475090026855,0.5379771590232849,-0.6146915555000305,-0.6269686222076416,-0.8429578542709351,-0.2759861946105957,-0.3018035590648651,-0.44777244329452515,-0.9875805377960205
320,3520925,3520926,-0.2197781503200531,0.04562130570411682,1.0902892351150513,-6.201689720153809,6.001183986663818,-1.8616201877593994,-0.6344682574272156,-0.8354582190513611,-0.28048595786094666,-0.20063991844654083,-0.4306567907333374,-0.9947463274002075
321,3520935,3520936,-0.31680920720100403,0.13291454315185547,1.0948549509048462,-2.1081886291503906,-0.4488670229911804,-0.2002948820590973,-0.623968780040741,-0.8399580121040344,-0.2759861946105957,-0.3138996958732605,-0.43685224652290344,-1.000872015953064
322,3520945,3520946,-0.4394976794719696,0.0765848457813263,1.0710450410842896,-0.35667428374290466,5.304605484008789,-1.8485853672027588,-0.6434678435325623,-0.8324583768844604,-0.28048595786094666,-0.2699049711227417,-0.47755926847457886,-1.0086479187011719
323,3520955,3520956,-0.38265347480773926,0.0158554520457983,1.032349705696106,0.03536735847592354,-0.8749378323554993,-0.3438052237033844,-0.6329683661460876,-0.8279585838317871,-0.2669866383075714,-0.2923685908317566,-0.5027096271514893,-1.0149061679840088
324,3520965,3520966,-0.2395605593919754,-0.044247474521398544,0.9831389784812927,0.24628715217113495,5.180406093597412,-1.1551977396011353,-0.6389680504798889,-0.8129593133926392,-0.27898603677749634,-0.3103122413158417,-0.5119032859802246,-1.0166507959365845
325,3520975,3520976,-0.025060288608074188,-0.07614665478467941,0.9798581600189209,1.6190896034240723,-2.2154324054718018,0.1298525184392929,-0.6434678435325623,-0.8204589486122131,-0.27148643136024475,-0.3183193504810333,-0.5187460780143738,-1.0166853666305542
326,3520985,3520986,-0.3273962736129761,-0.39445731043815613,0.9668600559234619,-0.044154420495033264,3.766611337661743,-1.2299267053604126,-0.6434678435325623,-0.8204589486122131,-0.27148643136024475,-0.3196653723716736,-0.5237582325935364,-1.0154391527175903
327,3520995,3520996,-0.04824783653020859,-0.6498969197273254,0.9287257194519043,-0.2954448461532593,-1.3376469612121582,0.1494685262441635,-0.6434678435325623,-0.8204589486122131,-0.27148643136024475,-0.2550845444202423,-0.479065865278244,-1.0153961181640625
328,3521005,3521006,-0.06755900382995605,-0.6152824759483337,0.9377885460853577,-1.8579882383346558,0.5992175340652466,-0.21078763902187347,-0.6419678926467896,-0.8039597868919373,-0.27298635244369507,-0.24186375737190247,-0.5188658237457275,-1.0106090307235718
329,3521015,3521016,-0.1125033050775528,-0.21762613952159882,0.9749420285224915,-1.6315292119979858,-1.0560873746871948,0.6900227665901184,-0.6299684643745422,-0.8099594712257385,-0.27298635244369507,-0.24121032655239105,-0.5564413666725159,-1.0044025182724
330,3521025,3521026,-0.07895246148109436,-0.23138253390789032,1.0068312883377075,-2.0374538898468018,-1.152456521987915,0.40340912342071533,-0.6344682574272156,-0.8144592642784119,-0.2654867172241211,-0.23206372559070587,-0.5353655815124512,-0.9947885870933533
331,3521035,3521036,-0.5838542580604553,-0.10947419703006744,0.9960066080093384,0.05880086123943329,3.689703941345215,-1.4046579599380493,-0.6449677348136902,-0.8189590573310852,-0.27298635244369507,-0.17029821872711182,-0.5020866394042969,-0.9970519542694092
332,3521045,3521046,-0.836275577545166,-0.04821574315428734,0.9369681477546692,0.15009251236915588,-0.4596291482448578,-0.1119665801525116,-0.6374680995941162,-0.8144592642784119,-0.2564871609210968,-0.19274131953716278,-0.529053807258606,-0.9976728558540344
333,3521055,3521056,-0.6913027167320251,-0.22091436386108398,0.9579803347587585,-0.8147223591804504,5.469823837280273,-0.399394154548645,-0.6464676856994629,-0.8144592642784119,-0.2834858298301697,-0.22349782288074493,-0.5427997708320618,-0.9952169060707092
334,3521065,3521066,-0.2532446086406708,-0.058037761598825455,0.9590981602668762,0.30319419503211975,0.6584954261779785,0.8784126043319702,-0.6419678926467896,-0.8219588994979858,-0.2669866383075714,-0.25690895318984985,-0.4905761182308197,-0.9863825440406799
335,3521075,3521076,-0.03665294125676155,-0.19911980628967285,1.0182915925979614,-0.5403957366943359,1.6321098804473877,0.896377444267273,-0.6329683661460876,-0.8099594712257385,-0.26998651027679443,-0.14169903099536896,-0.3715170621871948,-0.986099123954773
336,3521085,3521086,-0.43085306882858276,-0.36563384532928467,1.0723538398742676,-1.7787950038909912,5.189948558807373,-0.4376360774040222,-0.6389680504798889,-0.8039597868919373,-0.2639867961406708,-0.1794145703315735,-0.40743210911750793,-0.9800018668174744
337,3521095,3521096,-0.18288551270961761,0.0719001367688179,1.0731221437454224,-1.2700608968734741,-0.5735905170440674,1.0521761178970337,-0.6404679417610168,-0.80545973777771,-0.25348731875419617,-0.209959477186203,-0.4515933096408844,-0.9735192060470581
338,3521105,3521106,-0.29531383514404297,-0.03102484717965126,1.0633673667907715,-4.934141635894775,0.3336370885372162,2.157198190689087,-0.6464676856994629,-0.8024598360061646,-0.25348731875419617,-0.21441835165023804,-0.5132065415382385,-0.9608259201049805
339,3521115,3521116,-0.42105165123939514,-0.24992097914218903,1.0987153053283691,-5.312371253967285,1.9236990213394165,0.7885125279426575,-0.6419678926467896,-0.8009599447250366,-0.26098695397377014,-0.16760016977787018,-0.5980492234230042,-0.9533047080039978
340,3521125,3521126,-0.5270020961761475,0.026473840698599815,1.0841516256332397,-4.419438362121582,-3.8031563758850098,2.1151986122131348,-0.6449677348136902,-0.8009599447250366,-0.2639867961406708,-0.1121884137392044,-0.6786059737205505,-0.9480724930763245
341,3521135,3521136,-0.6595017910003662,-0.17854070663452148,1.0242838859558105,-3.9852755069732666,-2.1668832302093506,2.188208818435669,-0.6584670543670654,-0.790460467338562,-0.26248687505722046,-0.12311679124832153,-0.7453337907791138,-0.9320934414863586
342,3521145,3521146,-0.2114771455526352,-0.2607833445072174,0.8954592347145081,-0.5558502078056335,-0.6341145038604736,0.5957695841789246,-0.6524673700332642,-0.790460467338562,-0.26848655939102173,-0.14654132723808289,-0.6491058468818665,-0.920390784740448
343,3521155,3521156,-0.5450184941291809,-0.2328920066356659,0.8616436719894409,2.2909247875213623,-2.918591022491455,1.2081594467163086,-0.6344682574272156,-0.790460467338562,-0.2594870328903198,-0.10745590925216675,-0.6543049216270447,-0.914840817451477
344,3521165,3521166,-1.1097323894500732,-0.21950358152389526,0.8430333137512207,3.334867477416992,-0.7822074890136719,0.4883207678794861,-0.6539672613143921,-0.7919603586196899,-0.25198739767074585,-0.1417464166879654,-0.6341434121131897,-0.901477575302124
345,3521175,3521176,-1.291296362876892,-0.47498801350593567,0.8558213710784912,4.743993282318115,5.208287239074707,-0.7693342566490173,-0.6584670543670654,-0.790460467338562,-0.2474876195192337,-0.1392129808664322,-0.5975625514984131,-0.8986759185791016
346,3521185,3521186,-0.5531873106956482,-0.2359485775232315,0.9182184338569641,5.750216960906982,4.086799144744873,0.8480181694030762,-0.6509674191474915,-0.7949602603912354,-0.25198739767074585,-0.21187442541122437,-0.620554506778717,-0.888440728187561
347,3521195,3521196,-0.14424552023410797,-0.2145293653011322,0.9846199154853821,0.9667222499847412,5.766575813293457,2.9083878993988037,-0.6449677348136902,-0.7949602603912354,-0.26098695397377014,-0.2766057550907135,-0.65055251121521,-0.8677020072937012
348,3521205,3521206,-0.023971039801836014,-0.2817062735557556,0.9916284680366516,0.22663317620754242,5.470685958862305,2.078225612640381,-0.6359682083129883,-0.8009599447250366,-0.2669866383075714,-0.32631197571754456,-0.6189728379249573,-0.8466702699661255
349,3521215,3521216,-0.22917722165584564,0.042673252522945404,0.9818088412284851,-1.0851844549179077,-0.605315089225769,1.335891604423523,-0.6539672613143921,-0.8039597868919373,-0.2759861946105957,-0.28278857469558716,-0.6685295104980469,-0.8384292125701904
350,3521225,3521226,-0.1122596487402916,-0.023726996034383774,0.9103715419769287,2.4320435523986816,-8.038740158081055,1.5166631937026978,-0.6569671630859375,-0.7949602603912354,-0.2639867961406708,-0.27530571818351746,-0.6371868848800659,-0.8232306241989136
351,3521235,3521236,-0.12600737810134888,-0.26768258213996887,0.8895890712738037,5.480713367462158,-6.250372409820557,0.6170554161071777,-0.6404679417610168,-0.7934603095054626,-0.2564871609210968,-0.24254097044467926,-0.5757799744606018,-0.8116351366043091
352,3521245,3521246,-0.12450327724218369,-0.23219972848892212,0.8944827318191528,5.244156837463379,-1.192907452583313,1.1381545066833496,-0.6539672613143921,-0.8009599447250366,-0.26098695397377014,-0.22149474918842316,-0.567769467830658,-0.7990415096282959
353,3521255,3521256,-0.4350360631942749,-0.10215582698583603,0.9511929750442505,7.643965721130371,2.7018518447875977,1.1614656448364258,-0.6509674191474915,-0.8009599447250366,-0.24898754060268402,-0.22041405737400055,-0.4829438626766205,-0.7859217524528503
354,3521265,3521266,-1.067335844039917,-0.7256458401679993,0.9494964480400085,5.06369686126709,-1.6705397367477417,1.620402455329895,-0.6509674191474915,-0.8039597868919373,-0.27298635244369507,-0.2189510315656662,-0.4550493657588959,-0.7699658274650574
355,3521275,3521276,-0.3418481647968292,-0.07547273486852646,0.9665361046791077,1.718460202217102,0.39985302090644836,2.4368276596069336,-0.6419678926467896,-0.8129593133926392,-0.2459876984357834,-0.12553949654102325,-0.42857810854911804,-0.7602070569992065
356,3521285,3521286,0.051549121737480164,0.07262962311506271,0.9912610054016113,3.992318868637085,-6.36347770690918,1.301279067993164,-0.6584670543670654,-0.7994599938392639,-0.2594870328903198,-0.11378289759159088,-0.39691317081451416,-0.7423581480979919
357,3521295,3521296,0.013343156315386295,-0.037874735891819,0.9814449548721313,7.424481391906738,-9.464737892150879,1.2145605087280273,-0.6389680504798889,-0.8099594712257385,-0.2639867961406708,-0.0913984552025795,-0.2942962050437927,-0.7243232727050781
358,3521305,3521306,-0.939556360244751,-0.5604106783866882,0.9024690985679626,9.543285369873047,-1.5020551681518555,1.9188052415847778,-0.6479675769805908,-0.8159592151641846,-0.2579870820045471,-0.08307179808616638,-0.25812578201293945,-0.7066729068756104
359,3521315,3521316,-0.8555846810340881,-0.48001426458358765,0.7796584963798523,7.409809112548828,10.585807800292969,1.8889329433441162,-0.6524673700332642,-0.7994599938392639,-0.2654867172241211,-0.1293298453092575,-0.2967887818813324,-0.6833664774894714
360,3521325,3521326,-0.4572206437587738,-0.041565973311662674,0.8944476842880249,2.759124994277954,10.10773754119873,2.19494891166687,-0.6284685730934143,-0.8204589486122131,-0.2654867172241211,-0.1925886869430542,-0.2038913518190384,-0.6619725823402405
361,3521335,3521336,-0.4565559923648834,0.07363869249820709,1.0688775777816772,-0.3285008668899536,-1.5870144367218018,3.647728443145752,-0.6314684152603149,-0.8264586329460144,-0.2744862735271454,-0.23060107231140137,-0.13516557216644287,-0.6373993158340454
362,3521345,3521346,-0.16361893713474274,-0.12881673872470856,1.026454210281372,3.7049429416656494,-1.19326913356781,2.0029795169830322,-0.6299684643745422,-0.8249587416648865,-0.27898603677749634,-0.2404913753271103,-0.13404744863510132,-0.6121995449066162
363,3521355,3521356,-1.1277438402175903,-0.26752743124961853,0.9461623430252075,4.192265033721924,-5.644020080566406,0.8256937861442566,-0.6359682083129883,-0.8279585838317871,-0.27298635244369507,-0.10355393588542938,-0.1263345628976822,-0.6040701270103455
364,3521365,3521366,-1.0787224769592285,-0.8115471601486206,0.9529661536216736,6.9798383712768555,-4.763402462005615,1.2216410636901855,-0.6284685730934143,-0.8324583768844604,-0.26848655939102173,-0.09816700220108032,-0.12849648296833038,-0.5853077173233032
365,3521375,3521376,-0.7302675247192383,-0.5650612711906433,0.8334622979164124,5.581859588623047,2.466930627822876,2.2106685638427734,-0.6299684643745422,-0.8219588994979858,-0.2669866383075714,-0.09495016187429428,-0.1310422271490097,-0.5662729740142822
366,3521385,3521386,-1.0086883306503296,-0.22439120709896088,0.8368344902992249,2.6325364112854004,10.789475440979004,1.8984841108322144,-0.6359682083129883,-0.8099594712257385,-0.2669866383075714,-0.125653937458992,-0.19545549154281616,-0.545372486114502
367,3521395,3521396,-1.0409939289093018,-0.43722909688949585,0.9721879959106445,1.3852217197418213,7.486323833465576,1.5321345329284668,-0.6299684643745422,-0.8309584259986877,-0.2759861946105957,-0.16810548305511475,-0.1937963217496872,-0.526718258857727
368,3521405,3521406,-1.4864615201950073,-0.34932804107666016,1.058003544807434,2.3372080326080322,-3.3598153591156006,3.2978920936584473,-0.6299684643745422,-0.8309584259986877,-0.27298635244369507,-0.1715778410434723,-0.07755190134048462,-0.5076882243156433
369,3521415,3521416,-0.656861424446106,0.10133541375398636,1.0817079544067383,3.847764015197754,-6.5350260734558105,2.0543956756591797,-0.6284685730934143,-0.8324583768844604,-0.28948551416397095,-0.14432652294635773,-0.07776546478271484,-0.48447147011756897
370,3521425,3521426,-1.1609184741973877,-0.04627039656043053,1.0898420810699463,10.1331205368042,-8.944222450256348,1.4364420175552368,-0.6269686222076416,-0.8399580121040344,-0.28498575091362,-0.11068703234195709,-0.0354519784450531,-0.4696861505508423
371,3521435,3521436,-1.0275218486785889,-0.23288682103157043,1.062925934791565,12.331165313720703,-10.564728736877441,2.726578950881958,-0.6314684152603149,-0.844457745552063,-0.2924853563308716,-0.08330461382865906,0.18237021565437317,-0.4505923092365265
372,3521445,3521446,-1.1044108867645264,-0.5762330889701843,0.9220944046974182,12.726577758789062,-0.2400534749031067,1.1827471256256104,-0.6284685730934143,-0.8414579033851624,-0.27148643136024475,-0.08705628663301468,0.3976677358150482,-0.4353475868701935
373,3521455,3521456,-1.419561505317688,-0.8939999938011169,0.8139526844024658,14.775101661682129,4.9725165367126465,0.2905616760253906,-0.6359682083129883,-0.8399580121040344,-0.28198590874671936,-0.08775327354669571,0.5465397834777832,-0.42796236276626587
374,3521465,3521466,-1.371753454208374,-1.1395957469940186,0.8119931221008301,10.761905670166016,6.178332805633545,1.013769268989563,-0.6254687309265137,-0.844457745552063,-0.28948551416397095,-0.10296959429979324,0.5270200967788696,-0.4168657958507538
375,3521475,3521476,-0.7635169625282288,-0.6661221981048584,0.8197339177131653,4.347053527832031,14.296926498413086,0.18394321203231812,-0.6344682574272156,-0.8474575877189636,-0.277486115694046,-0.07635483890771866,0.6407821774482727,-0.40815889835357666
376,3521485,3521486,-0.3559558689594269,-0.1502409726381302,0.935870885848999,0.8114640712738037,13.260493278503418,-0.20049698650836945,-0.6254687309265137,-0.8414579033851624,-0.2744862735271454,-0.20673291385173798,0.6870794296264648,-0.4042295813560486
377,3521495,3521496,-0.5709287524223328,-0.3331938087940216,0.9712495803833008,-2.9083175659179688,6.343337535858154,0.9573325514793396,-0.623968780040741,-0.851957380771637,-0.29998499155044556,-0.2950238287448883,0.6220430135726929,-0.4005526006221771
378,3521505,3521506,-0.7346788644790649,-0.4872013330459595,0.993325412273407,-5.695618152618408,10.639487266540527,-0.11206073313951492,-0.6254687309265137,-0.8624568581581116,-0.2924853563308716,-0.36474719643592834,0.5241879224777222,-0.39408227801322937
379,3521515,3521516,-0.2022489756345749,0.053314272314310074,1.025712013244629,-5.1328935623168945,2.258578300476074,-0.5926011800765991,-0.622468888759613,-0.8654567003250122,-0.2954852283000946,-0.33137014508247375,0.556718111038208,-0.3946109712123871
380,3521525,3521526,-0.03100753389298916,-0.42493176460266113,1.0491057634353638,-4.40242338180542,0.8964130878448486,0.42688196897506714,-0.6194689869880676,-0.8624568581581116,-0.28948551416397095,-0.3380843698978424,0.5294491052627563,-0.3973568081855774
381,3521535,3521536,-0.45730647444725037,-0.1562749445438385,1.1062982082366943,-1.273054838180542,2.4925172328948975,-1.4110149145126343,-0.6284685730934143,-0.8534573316574097,-0.3014849126338959,-0.33870670199394226,0.4644356071949005,-0.40222644805908203
382,3521545,3521546,-1.1332483291625977,-0.24788197875022888,1.0893341302871704,0.6438266634941101,-1.7629591226577759,0.38781240582466125,-0.6179690957069397,-0.8669566512107849,-0.29098543524742126,-0.3320763111114502,0.5075129866600037,-0.40854722261428833
383,3521555,3521556,-1.2348445653915405,-0.9212874174118042,1.1193146705627441,2.9074113368988037,2.609872579574585,-1.7452729940414429,-0.6269686222076416,-0.8579570651054382,-0.3029848337173462,-0.3262620270252228,0.4462660551071167,-0.41623321175575256
384,3521565,3521566,-1.463065266609192,-0.3849736154079437,1.1245530843734741,6.685696125030518,-0.909871518611908,-1.0438131093978882,-0.6284685730934143,-0.8564571738243103,-0.29848507046699524,-0.3434913754463196,0.568010151386261,-0.4299216568470001
385,3521575,3521576,-1.648545503616333,-0.9145200848579407,1.0504412651062012,7.667510032653809,2.2963552474975586,-1.5774298906326294,-0.6344682574272156,-0.8594570159912109,-0.2834858298301697,-0.3804895579814911,0.6449119448661804,-0.44518497586250305
386,3521585,3521586,-0.9723305702209473,-0.5999953746795654,1.095938801765442,8.01506233215332,4.606379985809326,-2.509660243988037,-0.6344682574272156,-0.8564571738243103,-0.28948551416397095,-0.36779269576072693,0.6472627520561218,-0.4604170620441437
387,3521595,3521596,-0.9374404549598694,-0.1353382021188736,1.0243148803710938,6.3004631996154785,9.966958045959473,-3.286677360534668,-0.6449677348136902,-0.8429578542709351,-0.28198590874671936,-0.45589786767959595,0.7890003323554993,-0.4876416027545929
388,3521605,3521606,-0.8916630744934082,-0.2340647280216217,1.0325534343719482,1.9756473302841187,7.167717456817627,-3.6765215396881104,-0.6344682574272156,-0.8474575877189636,-0.2924853563308716,-0.5482351779937744,0.8106677532196045,-0.5184298753738403
389,3521615,3521616,-0.47177639603614807,-0.16226649284362793,1.0477794408798218,-0.21807272732257843,2.264265537261963,-1.252873182296753,-0.6314684152603149,-0.8474575877189636,-0.2864856719970703,-0.5234668254852295,0.8550229072570801,-0.5348492860794067
390,3521625,3521626,-0.2717335820198059,-0.2034836858510971,1.0908485651016235,-3.795208215713501,6.966999053955078,-3.2610297203063965,-0.6314684152603149,-0.8624568581581116,-0.29848507046699524,-0.4918154776096344,0.7856928110122681,-0.5494574308395386
391,3521635,3521636,-0.46602845191955566,-0.16710948944091797,1.0443494319915771,-4.052148818969727,-0.9773886799812317,-1.6959861516952515,-0.622468888759613,-0.850457489490509,-0.2834858298301697,-0.5135908722877502,0.7496376633644104,-0.5726222395896912
392,3521645,3521646,-1.1343764066696167,-0.31320688128471375,1.043654203414917,-6.281893730163574,4.927985668182373,-3.4563238620758057,-0.6299684643745422,-0.8609569072723389,-0.28198590874671936,-0.5133947134017944,0.7056041359901428,-0.5948905348777771
393,3521655,3521656,-1.0536870956420898,-0.19790926575660706,0.9783076047897339,-4.123523712158203,0.19517399370670319,-2.5426108837127686,-0.622468888759613,-0.8654567003250122,-0.28948551416397095,-0.5165013670921326,0.7266039252281189,-0.6200960874557495
394,3521665,3521666,-0.2626308500766754,-0.0933239534497261,0.8996023535728455,-4.944222927093506,5.935214519500732,-3.077787399291992,-0.6284685730934143,-0.8414579033851624,-0.2834858298301697,-0.5205407738685608,0.6912107467651367,-0.6439570188522339
395,3521675,3521676,0.03224005922675133,-0.23976658284664154,1.014134168624878,-1.3867464065551758,-0.9843092560768127,-2.268061637878418,-0.6179690957069397,-0.8669566512107849,-0.29998499155044556,-0.5224810838699341,0.6679530143737793,-0.6673538088798523
396,3521685,3521686,0.03750436380505562,-0.4869462251663208,1.0472948551177979,-1.395419955253601,6.83690881729126,-3.666790246963501,-0.6194689869880676,-0.8744562864303589,-0.29848507046699524,-0.4603779911994934,0.737945020198822,-0.6820962429046631
397,3521695,3521696,0.061882924288511276,-0.26452237367630005,1.002102255821228,0.27746063470840454,1.337941288948059,-3.3178927898406982,-0.616469144821167,-0.8594570159912109,-0.2864856719970703,-0.49381357431411743,0.747930109500885,-0.7134692072868347
398,3521705,3521706,-0.07298056781291962,-0.2771541178226471,0.9884886145591736,-1.4273512363433838,6.382500648498535,-3.23762583732605,-0.6314684152603149,-0.8564571738243103,-0.2924853563308716,-0.5255455374717712,0.7464694380760193,-0.7427372336387634
399,3521715,3521716,-0.6029666066169739,-0.36444151401519775,0.9533068537712097,-1.1945253610610962,3.489712715148926,-3.5201642513275146,-0.6179690957069397,-0.8549572229385376,-0.29098543524742126,-0.5770207047462463,0.7371380925178528,-0.7747778296470642
400,3521725,3521726,-0.5637261867523193,-0.22895225882530212,0.9813206791877747,-4.0906901359558105,3.4439494609832764,-2.8049120903015137,-0.6329683661460876,-0.8759561777114868,-0.2969851493835449,-0.6179167032241821,0.700010359287262,-0.8059749007225037
401,3521735,3521736,-0.34027478098869324,-0.24497342109680176,0.964120090007782,-3.446039915084839,2.8483026027679443,-3.5690014362335205,-0.6269686222076416,-0.8669566512107849,-0.28498575091362,-0.6579940915107727,0.7025835514068604,-0.8381466269493103
402,3521745,3521746,-0.6067898273468018,-0.3219013512134552,0.9767414927482605,-8.411482810974121,0.1682945191860199,-2.68550181388855,-0.6179690957069397,-0.8699564933776855,-0.29998499155044556,-0.6799623966217041,0.5909476280212402,-0.8722020983695984
403,3521755,3521756,-1.0383334159851074,-0.3097507059574127,1.027350664138794,-4.185180187225342,-2.6918232440948486,-2.509946584701538,-0.6209689378738403,-0.8819558620452881,-0.29098543524742126,-0.6859733462333679,0.47974616289138794,-0.9050824046134949
404,3521765,3521766,-0.445654958486557,-0.18995387852191925,1.0634124279022217,-7.966750621795654,-1.4178587198257446,-3.421100616455078,-0.622468888759613,-0.8714563846588135,-0.28948551416397095,-0.6661556363105774,0.4329584836959839,-0.9337306618690491
405,3521775,3521776,-0.3574560284614563,-0.1849641352891922,1.060953140258789,-4.238525390625,-9.317182540893555,-2.187936782836914,-0.6254687309265137,-0.8654567003250122,-0.29848507046699524,-0.5550099611282349,0.39169928431510925,-0.9540266990661621
406,3521785,3521786,-0.5683090686798096,-0.14932429790496826,1.142844796180725,-6.225470542907715,-0.6150230765342712,-3.436344861984253,-0.616469144821167,-0.8774561285972595,-0.3014849126338959,-0.5138211846351624,0.2931920886039734,-0.9850024580955505
407,3521795,3521796,-0.42165735363960266,-0.126542329788208,1.1907457113265991,-3.6754343509674072,-7.253072261810303,-1.4612030982971191,-0.6074696183204651,-0.8714563846588135,-0.30748462677001953,-0.4887094497680664,0.28213927149772644,-1.0106697082519531
408,3521805,3521806,-0.20220927894115448,-0.18572114408016205,1.15874183177948,-2.865428924560547,4.328917503356934,-4.851749420166016,-0.616469144821167,-0.8684565424919128,-0.3044847846031189,-0.4862867593765259,0.21911336481571198,-1.0433695316314697
409,3521815,3521816,-0.19597439467906952,-0.2923741936683655,1.0783390998840332,-3.427428722381592,1.9638407230377197,-2.9178972244262695,-0.616469144821167,-0.8684565424919128,-0.3044847846031189,-0.5165868401527405,0.17039872705936432,-1.0825666189193726
410,3521825,3521826,-0.4097740650177002,-0.5486829876899719,1.0835460424423218,-1.0560740232467651,4.6128315925598145,-5.068381309509277,-0.616469144821167,-0.8684565424919128,-0.3044847846031189,-0.5485560894012451,0.146713986992836,-1.120331048965454
411,3521835,3521836,-0.5266283750534058,-0.49676620960235596,1.0870248079299927,-3.434224843978882,4.084620475769043,-3.2691991329193115,-0.6299684643745422,-0.8549572229385376,-0.28798559308052063,-0.5788732767105103,0.18579627573490143,-1.1519544124603271
412,3521845,3521846,-0.47562265396118164,-0.25885626673698425,1.0001945495605469,1.8185168504714966,-1.4319593906402588,-2.778878688812256,-0.6419678926467896,-0.851957380771637,-0.2939853072166443,-0.5780482888221741,0.24780111014842987,-1.1751868724822998
413,3521855,3521856,-0.4886055588722229,-0.32828831672668457,0.9814186692237854,-0.9997525811195374,0.658000648021698,-3.738793134689331,-0.6344682574272156,-0.850457489490509,-0.2864856719970703,-0.4816826283931732,0.23956961929798126,-1.1969497203826904
414,3521865,3521866,-0.2697024643421173,-0.40397387742996216,0.9924479126930237,-0.5438414216041565,-8.054920196533203,-0.8780856728553772,-0.6359682083129883,-0.8429578542709351,-0.28498575091362,-0.4320240318775177,0.20936806499958038,-1.2192251682281494
415,3521875,3521876,-0.1741860955953598,-0.34730657935142517,1.0120807886123657,-2.9820375442504883,-2.1832921504974365,-2.60565185546875,-0.6299684643745422,-0.8459576964378357,-0.2759861946105957,-0.3697608709335327,0.2940559685230255,-1.229455590248108
416,3521885,3521886,-0.2490706443786621,-0.25730568170547485,0.9704293608665466,-3.5230631828308105,-9.017009735107422,0.45288506150245667,-0.6374680995941162,-0.8414579033851624,-0.2864856719970703,-0.30938720703125,0.13954715430736542,-1.2463451623916626
417,3521895,3521896,-0.3915741741657257,-0.20270104706287384,1.054874300956726,-4.584733486175537,-2.345118522644043,-2.562673330307007,-0.6404679417610168,-0.8474575877189636,-0.28948551416397095,-0.26380455493927,0.12428504973649979,-1.2606360912322998
418,3521905,3521906,-0.24595573544502258,-0.15961463749408722,1.047640323638916,-6.340947151184082,-0.023723600432276726,-1.9070155620574951,-0.616469144821167,-0.8384580612182617,-0.2834858298301697,-0.25936901569366455,0.1470220685005188,-1.2771599292755127
419,3521915,3521916,-0.11524880677461624,-0.2202116698026657,1.0434893369674683,-4.408658027648926,0.6550931334495544,-1.9773064851760864,-0.6194689869880676,-0.8294585347175598,-0.2834858298301697,-0.28379350900650024,0.09333464503288269,-1.2972798347473145
420,3521925,3521926,-0.2953594923019409,-0.3127410113811493,1.0789968967437744,-6.2664713859558105,-3.6334903240203857,0.7464855909347534,-0.6344682574272156,-0.8324583768844604,-0.27148643136024475,-0.3107140362262726,-0.017474954947829247,-1.310850739479065
421,3521935,3521936,-0.16131247580051422,-0.1550864428281784,1.092527151107788,-4.9618048667907715,0.5765309929847717,-1.344728708267212,-0.6344682574272156,-0.844457745552063,-0.277486115694046,-0.33872196078300476,-0.0624343566596508,-1.3204134702682495
422,3521945,3521946,-0.7819036245346069,0.032978177070617676,1.0552427768707275,-5.77368688583374,1.7581380605697632,-0.7676408886909485,-0.6329683661460876,-0.836958110332489,-0.28198590874671936,-0.2391144037246704,0.09841828793287277,-1.3182834386825562
423,3521955,3521956,-0.46968144178390503,-0.3932706415653229,1.0621064901351929,-3.5259456634521484,-0.9824245572090149,-0.43378210067749023,-0.6194689869880676,-0.8324583768844604,-0.26248687505722046,-0.2057499885559082,-0.015909573063254356,-1.3262845277786255
424,3521965,3521966,-0.36491307616233826,-0.3052959442138672,1.0984535217285156,-5.780539035797119,-6.047036170959473,1.3951246738433838,-0.6359682083129883,-0.8279585838317871,-0.2759861946105957,-0.20562802255153656,-0.12044884264469147,-1.3274142742156982
425,3521975,3521976,-0.6711742877960205,0.015461319126188755,1.084296703338623,-4.9047932624816895,-0.9252986907958984,-0.3127540647983551,-0.6389680504798889,-0.8339582681655884,-0.2639867961406708,-0.2070634514093399,-0.1671159714460373,-1.327646255493164
426,3521985,3521986,-0.6754537224769592,-0.09292537719011307,1.0739938020706177,-5.238271236419678,-6.520017623901367,2.3922526836395264,-0.6344682574272156,-0.8264586329460144,-0.26848655939102173,-0.13366982340812683,-0.19756151735782623,-1.3217588663101196
427,3521995,3521996,-0.19379578530788422,-0.3357604146003723,1.0794941186904907,-5.72076416015625,0.1951368898153305,0.0473465733230114,-0.6434678435325623,-0.8114594221115112,-0.2744862735271454,-0.07839872688055038,-0.1770506501197815,-1.3150079250335693
428,3522005,3522006,-0.7169516086578369,-0.586974024772644,1.0435789823532104,-5.036105632781982,0.6821184158325195,0.2483278065919876,-0.6404679417610168,-0.8174591064453125,-0.27148643136024475,-0.11934355646371841,-0.292216956615448,-1.3129478693008423
429,3522015,3522016,-0.24002093076705933,-0.34214675426483154,1.025278925895691,-5.491477966308594,2.3140861988067627,0.3974536657333374,-0.6494675278663635,-0.8174591064453125,-0.26248687505722046,-0.09928140789270401,-0.33961158990859985,-1.3107787370681763
430,3522025,3522026,-0.1610339879989624,-0.5326354503631592,1.0053809881210327,-4.410587787628174,-2.697443962097168,2.1900014877319336,-0.6464676856994629,-0.8234587907791138,-0.26848655939102173,-0.15453718602657318,-0.45212897658348083,-1.303126335144043
431,3522035,3522036,-0.25349968671798706,-0.24859274923801422,0.9870176315307617,-5.068713188171387,2.75813627243042,0.3512095510959625,-0.6329683661460876,-0.8069596290588379,-0.26998651027679443,-0.2046663612127304,-0.5635761618614197,-1.2930511236190796
432,3522045,3522046,-0.432272344827652,-0.146095409989357,0.9229413866996765,-2.3735482692718506,0.1396188586950302,1.0120067596435547,-0.6374680995941162,-0.80545973777771,-0.2594870328903198,-0.19687862694263458,-0.51032954454422,-1.2881717681884766
433,3522055,3522056,-0.38334494829177856,-0.17714250087738037,0.8255945444107056,-2.0229597091674805,0.8184942007064819,1.082504153251648,-0.6479675769805908,-0.7919603586196899,-0.26998651027679443,-0.17546384036540985,-0.5869075059890747,-1.278889775276184
434,3522065,3522066,-0.33449745178222656,-0.31895002722740173,0.8663421273231506,-0.10110628604888916,4.923610687255859,-1.1051373481750488,-0.6494675278663635,-0.8114594221115112,-0.2594870328903198,-0.24617747962474823,-0.5695332288742065,-1.2728193998336792
435,3522075,3522076,-0.049562472850084305,-0.26017314195632935,0.8556462526321411,0.4835033118724823,-0.2515735626220703,-0.004566041752696037,-0.6494675278663635,-0.8024598360061646,-0.2654867172241211,-0.3017655611038208,-0.6028361320495605,-1.2696186304092407
436,3522085,3522086,-0.38073450326919556,-0.26891836524009705,0.919551432132721,0.19074080884456635,5.448547840118408,-0.6314520239830017,-0.6464676856994629,-0.8144592642784119,-0.26248687505722046,-0.2108892947435379,-0.6300109624862671,-1.2753591537475586
437,3522095,3522096,-0.18375882506370544,0.017514541745185852,1.0049971342086792,0.7488823533058167,3.377743721008301,-0.6097888946533203,-0.6449677348136902,-0.8189590573310852,-0.26098695397377014,-0.3345980942249298,-0.6439023613929749,-1.269039511680603
438,3522105,3522106,-0.514209508895874,0.010220837779343128,1.0399549007415771,-2.131573438644409,2.8369736671447754,1.724082350730896,-0.6404679417610168,-0.80545973777771,-0.26848655939102173,-0.36413368582725525,-0.5959773659706116,-1.2631826400756836
439,3522115,3522116,-0.47647756338119507,-0.21223238110542297,1.0675022602081299,-1.6619415283203125,2.2362637519836426,0.6003329157829285,-0.6374680995941162,-0.8204589486122131,-0.2654867172241211,-0.3665145933628082,-0.5507264733314514,-1.2574039697647095
440,3522125,3522126,-0.2375919222831726,-0.2772062122821808,0.9869785904884338,0.6663517355918884,-4.358780860900879,0.21004559099674225,-0.6569671630859375,-0.8219588994979858,-0.2669866383075714,-0.2696506679058075,-0.6336812973022461,-1.2618168592453003
441,3522135,3522136,-0.12309815734624863,-0.4061641991138458,0.9611294865608215,-1.7056293487548828,-5.997057914733887,0.7278247475624084,-0.6464676856994629,-0.8114594221115112,-0.2744862735271454,-0.20869003236293793,-0.6393932104110718,-1.2591354846954346
442,3522145,3522146,0.0048113674856722355,-0.12541884183883667,0.9442744255065918,-0.11816754192113876,-5.332841873168945,-0.2213202863931656,-0.6419678926467896,-0.8219588994979858,-0.2759861946105957,-0.21357139945030212,-0.5967690944671631,-1.2535202503204346
443,3522155,3522156,-0.309882789850235,-0.19459842145442963,0.8977788090705872,1.0062460899353027,-12.049086570739746,-0.017310988157987595,-0.6464676856994629,-0.8024598360061646,-0.27148643136024475,-0.13190534710884094,-0.6133055090904236,-1.2555252313613892
444,3522165,3522166,-0.38320645689964294,-0.44237083196640015,0.8669450879096985,1.500563383102417,-2.006542444229126,-1.7124040126800537,-0.6299684643745422,-0.8039597868919373,-0.2669866383075714,-0.010148207657039165,-0.6269261240959167,-1.2663429975509644
445,3522175,3522176,-0.3375060558319092,-0.4033268392086029,0.8816559314727783,2.120021343231201,-0.4578074812889099,-1.0465319156646729,-0.6449677348136902,-0.8249587416648865,-0.2579870820045471,-0.07668819278478622,-0.6471697688102722,-1.2635947465896606
446,3522185,3522186,-0.7572208642959595,-0.3447880148887634,0.9237366318702698,0.12861284613609314,6.508009910583496,0.5923759937286377,-0.6479675769805908,-0.8129593133926392,-0.2759861946105957,-0.09948739409446716,-0.6618740558624268,-1.2629374265670776
447,3522195,3522196,-0.5890282988548279,-0.3911268413066864,0.9169483184814453,-1.8045955896377563,11.070277214050293,-0.18659178912639618,-0.6374680995941162,-0.8204589486122131,-0.2744862735271454,-0.15382114052772522,-0.6774622797966003,-1.2595003843307495
448,3522205,3522206,-0.5019938349723816,-0.6742411255836487,0.9974108934402466,-1.5619685649871826,1.5580228567123413,0.8549394011497498,-0.6344682574272156,-0.8144592642784119,-0.2594870328903198,-0.19425611197948456,-0.5514277219772339,-1.2601768970489502
449,3522215,3522216,-0.9365292191505432,-0.10236968845129013,1.066499948501587,-3.8845279216766357,-2.954589605331421,1.2387675046920776,-0.6344682574272156,-0.8324583768844604,-0.27148643136024475,-0.12464642524719238,-0.559998631477356,-1.2623170614242554
450,3522225,3522226,-0.921771228313446,0.0922650620341301,1.099280834197998,-0.6067421436309814,-7.758148670196533,0.02389947883784771,-0.6404679417610168,-0.8384580612182617,-0.26848655939102173,0.020950835198163986,-0.6448882818222046,-1.2714358568191528
451,3522235,3522236,-1.3486350774765015,0.025902263820171356,1.05304753780365,2.5432395935058594,-2.336940050125122,0.6467434763908386,-0.6449677348136902,-0.8279585838317871,-0.27898603677749634,0.031802963465452194,-0.626941442489624,-1.2645806074142456
452,3522245,3522246,-0.8300816416740417,-0.4839479923248291,1.0580037832260132,5.035508155822754,-0.2689895033836365,-0.10336660593748093,-0.6374680995941162,-0.8204589486122131,-0.277486115694046,0.002315934980288148,-0.7268662452697754,-1.2499078512191772
453,3522255,3522256,-1.2043818235397339,-0.7355384230613708,0.9368885159492493,7.068248271942139,4.21106481552124,0.3045697808265686,-0.6359682083129883,-0.8099594712257385,-0.2759861946105957,0.03302530199289322,-0.6695600152015686,-1.2501919269561768
454,3522265,3522266,-1.578713059425354,-0.706469714641571,0.847458004951477,4.088451385498047,8.301071166992188,0.8949435353279114,-0.6419678926467896,-0.8219588994979858,-0.27898603677749634,-0.03286224976181984,-0.7510569095611572,-1.2328723669052124
455,3522275,3522276,-1.578702688217163,-0.6022043228149414,0.9921666979789734,3.7272534370422363,2.997680902481079,0.4408458173274994,-0.6479675769805908,-0.8159592151641846,-0.27298635244369507,-0.03668789938092232,-0.7416184544563293,-1.2302628755569458
456,3522285,3522286,-1.401610016822815,-0.7755139470100403,1.1473870277404785,2.916499614715576,5.2794880867004395,1.0586559772491455,-0.6344682574272156,-0.8234587907791138,-0.2744862735271454,-0.0393666997551918,-0.6644905805587769,-1.2299599647521973
457,3522295,3522296,-0.8590112328529358,-0.8072338700294495,1.162493348121643,2.7490220069885254,4.969133377075195,0.5693573951721191,-0.6419678926467896,-0.8219588994979858,-0.2759861946105957,-0.1396871656179428,-0.5509780645370483,-1.2188749313354492
458,3522305,3522306,-1.1849467754364014,-0.009081692434847355,1.1360294818878174,8.775040626525879,1.314310073852539,-0.4975641071796417,-0.6344682574272156,-0.8324583768844604,-0.27148643136024475,-0.24534596502780914,-0.41230329871177673,-1.2149604558944702
459,3522315,3522316,-1.5844253301620483,-0.24672143161296844,1.1162316799163818,8.303129196166992,-2.8456127643585205,0.9177648425102234,-0.6449677348136902,-0.8219588994979858,-0.26998651027679443,-0.1899263560771942,-0.3248494565486908,-1.2291207313537598
460,3522325,3522326,-1.2226446866989136,-0.5729798674583435,1.0677803754806519,8.4314603805542,3.974050521850586,-1.4578557014465332,-0.6404679417610168,-0.8144592642784119,-0.26848655939102173,-0.22118805348873138,-0.1756424456834793,-1.2390425205230713
461,3522335,3522336,-1.1258859634399414,-0.48643848299980164,0.9637748003005981,10.313105583190918,1.1944663524627686,-0.27755501866340637,-0.6404679417610168,-0.8294585347175598,-0.2654867172241211,-0.27163463830947876,-0.10876630991697311,-1.2494409084320068
462,3522345,3522346,-0.8292970061302185,-0.8063784241676331,0.8677785396575928,5.62575626373291,6.289097309112549,-0.9573153853416443,-0.6419678926467896,-0.8219588994979858,-0.2669866383075714,-0.36934781074523926,-0.08324354141950607,-1.248171091079712
463,3522355,3522356,-1.1570730209350586,-0.7339581847190857,0.8007790446281433,2.298853635787964,11.239404678344727,-2.329988479614258,-0.6419678926467896,-0.8159592151641846,-0.27298635244369507,-0.4004451632499695,-0.043543342500925064,-1.2648588418960571
464,3522365,3522366,-0.3994136452674866,-0.7267939448356628,0.9513073563575745,-2.233031988143921,4.330349922180176,-0.3579893410205841,-0.6404679417610168,-0.8144592642784119,-0.26248687505722046,-0.4679393768310547,-0.19388683140277863,-1.2679545879364014
465,3522375,3522376,-0.38510969281196594,-0.8751739859580994,0.9834380149841309,-3.905797004699707,-2.185732364654541,-0.7639569640159607,-0.6374680995941162,-0.8294585347175598,-0.277486115694046,-0.483163446187973,-0.2278277724981308,-1.2747012376785278
466,3522385,3522386,-0.9472671747207642,-1.1384754180908203,1.0830812454223633,-5.926514148712158,-6.797502040863037,-1.294710397720337,-0.6434678435325623,-0.8204589486122131,-0.28048595786094666,-0.4422570765018463,-0.34590980410575867,-1.2852096557617188
