,timestamp_start,timestamp_end,acc.x,acc.y,acc.z,gyro.x,gyro.y,gyro.z,mag.x,mag.y,mag.z,stabilizer.pitch,stabilizer.roll,stabilizer.yaw
0,3831158,3831159,-0.6152514815330505,-0.5741690993309021,0.8803009390830994,5.928803443908691,19.080904006958008,-1.3021063804626465,-0.5954701900482178,-0.7784610390663147,-0.2564871609210968,-0.25495442748069763,1.9330480098724365,-3.054699420928955
1,3831168,3831169,-0.32871773838996887,-0.38003140687942505,0.8339978456497192,42.87116622924805,15.109498023986816,0.37192484736442566,-0.6059696674346924,-0.797960102558136,-0.2759861946105957,-0.51271653175354,2.241060256958008,-3.0976035594940186
2,3831178,3831179,-0.36902832984924316,-0.4276794493198395,0.9005638957023621,65.14230346679688,13.555500030517578,0.012484055943787098,-0.5924703478813171,-0.8204589486122131,-0.28948551416397095,-0.8479792475700378,2.7918522357940674,-3.2321341037750244
3,3831188,3831189,-0.15339937806129456,-0.19241178035736084,0.9723917245864868,75.14768981933594,4.808029651641846,-0.4551653563976288,-0.5924703478813171,-0.8384580612182617,-0.2834858298301697,-0.8204209208488464,3.7833385467529297,-3.0895087718963623
4,3831198,3831199,-0.31603488326072693,-0.15083253383636475,0.9602198004722595,65.58272552490234,-4.08088493347168,0.41551125049591064,-0.5924703478813171,-0.8384580612182617,-0.2834858298301697,-0.8054925203323364,4.961075782775879,-2.992771863937378
5,3831208,3831209,-0.46734878420829773,-0.1314651221036911,0.8990416526794434,45.7562141418457,-14.316081047058105,-0.2734331786632538,-0.5924703478813171,-0.8384580612182617,-0.2834858298301697,-0.3139413595199585,5.828824996948242,-2.666550636291504
6,3831218,3831219,-0.2810339331626892,-0.15775583684444427,0.8814293742179871,13.320218086242676,-22.067907333374023,0.05383794382214546,-0.5969701409339905,-0.8579570651054382,-0.3029848337173462,0.024606797844171524,6.12414026260376,-2.5866012573242188
7,3831228,3831229,-0.5911267399787903,-0.20090967416763306,0.996174156665802,-22.171733856201172,-18.662080764770508,0.49285781383514404,-0.5909704566001892,-0.8489575386047363,-0.28798559308052063,0.34691908955574036,6.600475788116455,-2.452188730239868
8,3831238,3831239,-0.8781022429466248,-0.3353690803050995,0.91818767786026,-57.95402908325195,-18.339637756347656,0.06401223689317703,-0.5894705057144165,-0.8474575877189636,-0.30748462677001953,0.6012033224105835,5.2848358154296875,-2.5638844966888428
9,3831248,3831249,-0.5687749981880188,-0.24689099192619324,0.7652069330215454,-81.4625473022461,-6.416930198669434,-0.21622434258460999,-0.56997150182724,-0.8549572229385376,-0.29998499155044556,0.2571668028831482,5.471280097961426,-2.878119945526123
10,3831258,3831259,-0.5682133436203003,-0.2983664870262146,0.8892359733581543,-95.14154052734375,6.791414737701416,1.687611699104309,-0.5729713439941406,-0.8429578542709351,-0.3059847056865692,0.8911028504371643,3.0432636737823486,-2.5230588912963867
11,3831268,3831269,-0.3435212969779968,-0.32881852984428406,1.0096700191497803,-96.87604522705078,15.981307029724121,-0.03325454518198967,-0.5804709792137146,-0.8474575877189636,-0.2864856719970703,0.6881546378135681,2.425767421722412,-2.5614664554595947
12,3831278,3831279,-0.21874824166297913,0.1431698352098465,0.9661493301391602,-79.19097900390625,24.767269134521484,0.892553985118866,-0.5609719157218933,-0.836958110332489,-0.3029848337173462,-0.2946639358997345,0.6139189004898071,-3.3389675617218018
13,3831288,3831289,-0.3811552822589874,-0.2408144474029541,0.9296784400939941,-53.81266403198242,27.992475509643555,4.334769248962402,-0.5684715509414673,-0.8144592642784119,-0.2864856719970703,-0.7321342825889587,-0.4627608060836792,-3.4981002807617188
14,3831298,3831299,-0.4242197275161743,-0.07065460830926895,1.0129873752593994,-20.637662887573242,26.705930709838867,4.629908561706543,-0.5684715509414673,-0.8114594221115112,-0.277486115694046,-1.1204197406768799,-0.817800760269165,-3.518066167831421
15,3831308,3831309,-0.12040647119283676,0.05268881842494011,0.9911384582519531,19.81111717224121,14.680550575256348,5.7276763916015625,-0.562471866607666,-0.8234587907791138,-0.2954852283000946,-1.4200290441513062,-0.4565085768699646,-3.443904399871826
16,3831318,3831319,-0.019475804641842842,0.02405347116291523,0.9610929489135742,51.01591873168945,6.335096836090088,2.3551533222198486,-0.5849707126617432,-0.8279585838317871,-0.28798559308052063,-1.551712989807129,0.0665607899427414,-3.3617653846740723
17,3831328,3831329,-0.1336599737405777,-0.3266614079475403,0.9886677861213684,69.37016296386719,-16.246618270874023,3.610572099685669,-0.5894705057144165,-0.8414579033851624,-0.2924853563308716,-1.6493486166000366,0.949367105960846,-3.329129695892334
18,3831338,3831339,-0.6692736744880676,-0.5327765941619873,0.9744849801063538,74.18466186523438,-25.58226203918457,1.7046740055084229,-0.5864706635475159,-0.8564571738243103,-0.2954852283000946,-1.2825264930725098,1.8785710334777832,-3.188657283782959
19,3831348,3831349,-0.16993634402751923,-0.5219496488571167,0.8701946139335632,63.5140495300293,-38.76707458496094,2.470546245574951,-0.5759711861610413,-0.8579570651054382,-0.3149842321872711,-0.7799180150032043,2.728736400604248,-3.0856850147247314
20,3831358,3831359,-0.3003371059894562,-0.36389997601509094,0.967952311038971,37.336753845214844,-40.23430633544922,2.836944341659546,-0.5984700918197632,-0.8534573316574097,-0.3224838674068451,-0.8280841112136841,3.0714731216430664,-3.2713582515716553
21,3831368,3831369,-0.3523687720298767,-0.126510351896286,0.9289644360542297,6.017343997955322,-45.91119384765625,3.4170045852661133,-0.5759711861610413,-0.8699564933776855,-0.3239837884902954,-0.2760865390300751,3.337040901184082,-3.222677230834961
22,3831378,3831379,-0.31631502509117126,-0.37889736890792847,1.004318356513977,-22.990373611450195,-44.539833068847656,3.8322455883026123,-0.5759711861610413,-0.8489575386047363,-0.31798410415649414,-0.17116105556488037,3.327601194381714,-3.3403849601745605
23,3831388,3831389,-0.22215887904167175,-0.3219234347343445,1.006697416305542,-47.47338104248047,-32.71049499511719,3.5720672607421875,-0.5594720244407654,-0.8774561285972595,-0.31948402523994446,0.28929659724235535,2.9079039096832275,-3.3283722400665283
24,3831398,3831399,-0.8678774237632751,-0.16727080941200256,0.9806397557258606,-59.69880294799805,-22.2086238861084,3.463336706161499,-0.5459727048873901,-0.8669566512107849,-0.3149842321872711,0.2995426654815674,2.628260374069214,-3.3608193397521973
25,3831408,3831409,-0.2862779498100281,-0.36980947852134705,0.8903651833534241,-60.40591049194336,-9.398816108703613,2.7283012866973877,-0.5414729118347168,-0.8654567003250122,-0.3224838674068451,0.5708956122398376,1.9105666875839233,-3.322969436645508
26,3831418,3831419,-0.3113138675689697,-0.6522977352142334,0.9515697360038757,-54.202754974365234,-3.905010223388672,3.4673311710357666,-0.5369731187820435,-0.851957380771637,-0.30898454785346985,0.676306426525116,1.1575487852096558,-3.3128974437713623
27,3831428,3831429,-0.22204582393169403,-0.299287348985672,1.014959454536438,-41.349266052246094,0.9259174466133118,1.6339694261550903,-0.5324733853340149,-0.8594570159912109,-0.31048446893692017,0.6019745469093323,1.0384118556976318,-3.264984130859375
28,3831438,3831439,-0.2077503800392151,-0.43771979212760925,1.0102845430374146,-18.918983459472656,-0.8686666488647461,1.0029830932617188,-0.5384730696678162,-0.8624568581581116,-0.29848507046699524,0.6286785006523132,0.6545693278312683,-3.2470650672912598
29,3831448,3831449,-0.5518681406974792,-0.4967779219150543,0.9968262314796448,-5.75752067565918,-1.2652413845062256,0.5890682935714722,-0.5429728627204895,-0.8639568090438843,-0.3239837884902954,0.5944185853004456,0.7844296097755432,-3.2207915782928467
30,3831458,3831459,-0.25646716356277466,-0.2687266767024994,0.93531334400177,9.814226150512695,-8.416119575500488,0.6961936354637146,-0.5429728627204895,-0.8789560198783875,-0.30898454785346985,0.7445515394210815,0.7133947610855103,-3.1873433589935303
31,3831468,3831469,-0.040163662284612656,-0.14512617886066437,1.0076572895050049,10.899097442626953,-10.694936752319336,-0.30000340938568115,-0.5504724383354187,-0.8834558129310608,-0.31948402523994446,0.7686665654182434,0.8791318535804749,-3.19838547706604
32,3831478,3831479,-0.03843232989311218,-0.25571590662002563,1.0600224733352661,6.569723606109619,-15.454453468322754,-0.41104063391685486,-0.5534723401069641,-0.8774561285972595,-0.3164841830730438,0.9260067939758301,0.9662904143333435,-3.1969709396362305
33,3831488,3831489,-0.46434929966926575,-0.12022972106933594,1.0216004848480225,-1.0509696006774902,-19.506589889526367,-0.6424658298492432,-0.5429728627204895,-0.8909554481506348,-0.30898454785346985,1.1585050821304321,0.9604742527008057,-3.194349765777588
34,3831498,3831499,-0.4166181683540344,-0.2011544406414032,1.0056226253509521,-10.525957107543945,-23.433164596557617,-0.5142183899879456,-0.5354732275009155,-0.8654567003250122,-0.3134843111038208,1.3028196096420288,0.9610911011695862,-3.2165980339050293
35,3831508,3831509,-0.5245180130004883,-0.4142315685749054,1.0433027744293213,-23.087730407714844,-19.04690933227539,-0.3367363512516022,-0.5519723892211914,-0.8759561777114868,-0.3149842321872711,1.3905162811279297,0.7748679518699646,-3.2393810749053955
36,3831518,3831519,-0.32432714104652405,-0.07426611334085464,1.0029287338256836,-27.66703987121582,-16.726627349853516,-1.140348196029663,-0.5354732275009155,-0.8774561285972595,-0.3224838674068451,1.8468055725097656,0.31323179602622986,-3.204150438308716
37,3831528,3831529,-0.3928273618221283,-0.26167356967926025,1.1555920839309692,-32.36220932006836,-11.199172019958496,0.5744578242301941,-0.5384730696678162,-0.8894554972648621,-0.3164841830730438,1.7314059734344482,0.2507956027984619,-3.252711296081543
38,3831538,3831539,-0.6810968518257141,0.09336154907941818,1.0570626258850098,-26.62931251525879,-3.3379030227661133,-1.2514697313308716,-0.5249737501144409,-0.8609569072723389,-0.3119843900203705,1.8758891820907593,-0.252931147813797,-3.231452226638794
39,3831548,3831549,-0.21333681046962738,-0.05479525402188301,1.0523899793624878,-24.509435653686523,0.8823642134666443,-1.4816665649414062,-0.5489725470542908,-0.8579570651054382,-0.31798410415649414,1.842390537261963,-0.33140119910240173,-3.26961088180542
40,3831558,3831559,-0.05790888890624046,-0.00795829575508833,1.0696934461593628,-17.125200271606445,2.901442050933838,-1.3726297616958618,-0.5294735431671143,-0.8534573316574097,-0.30748462677001953,1.890260934829712,-0.7689253687858582,-3.255258798599243
41,3831568,3831569,-0.038181304931640625,-0.0215015709400177,1.0688024759292603,-11.289834022521973,4.714290618896484,-2.0704283714294434,-0.5504724383354187,-0.850457489490509,-0.3044847846031189,1.833670735359192,-0.7294893860816956,-3.3036980628967285
42,3831578,3831579,-0.0434408076107502,-0.0434328094124794,1.079610824584961,-3.3702847957611084,0.6187947392463684,-0.9044361114501953,-0.5474725961685181,-0.8414579033851624,-0.30748462677001953,1.7223631143569946,-0.7245014905929565,-3.3316705226898193
43,3831588,3831589,-0.03989594057202339,-0.24099591374397278,0.9421895742416382,0.737499475479126,-4.205679416656494,-2.1444108486175537,-0.5489725470542908,-0.851957380771637,-0.30898454785346985,1.8126657009124756,-0.7758050560951233,-3.3464088439941406
44,3831598,3831599,-0.13883665204048157,-0.47513547539711,1.0777146816253662,-3.036983013153076,-8.592689514160156,-0.24710002541542053,-0.5429728627204895,-0.851957380771637,-0.3059847056865692,1.8272714614868164,-0.7894979119300842,-3.3530235290527344
45,3831608,3831609,-0.08081160485744476,-0.4361281096935272,1.0915247201919556,-2.1053383350372314,-7.523300647735596,-1.194667100906372,-0.5369731187820435,-0.8489575386047363,-0.29998499155044556,2.0820796489715576,-0.9004091620445251,-3.3600211143493652
46,3831618,3831619,-0.015501699410378933,0.026760635897517204,1.0121358633041382,-4.381429195404053,-3.6425998210906982,-0.8508217334747314,-0.5414729118347168,-0.8564571738243103,-0.31048446893692017,2.3085708618164062,-1.0728440284729004,-3.3544936180114746
47,3831628,3831629,0.025178948417305946,-0.02601141855120659,0.9914852976799011,-5.862588405609131,-9.335602760314941,0.4134606719017029,-0.5384730696678162,-0.850457489490509,-0.3014849126338959,1.8300468921661377,-0.9345163702964783,-3.3163561820983887
48,3831638,3831639,-0.15893009305000305,-0.09447504580020905,1.0794705152511597,-10.202187538146973,-1.379046082496643,0.0007212227792479098,-0.5459727048873901,-0.8399580121040344,-0.2969851493835449,1.9908132553100586,-0.9209645390510559,-3.353705406188965
49,3831648,3831649,-0.22092854976654053,-0.1314016878604889,1.1385307312011719,-9.981534957885742,-0.5630031228065491,0.6108887791633606,-0.5459727048873901,-0.8429578542709351,-0.3119843900203705,2.0034141540527344,-1.07769775390625,-3.3359622955322266
50,3831658,3831659,-0.10074863582849503,0.19260458648204803,1.0477553606033325,-10.375608444213867,2.872203826904297,-0.7235970497131348,-0.5534723401069641,-0.8474575877189636,-0.3044847846031189,2.1054794788360596,-1.2380740642547607,-3.344271421432495
51,3831668,3831669,-0.1035357266664505,0.04682110995054245,0.9915358424186707,-8.930168151855469,2.9100687503814697,-0.15232521295547485,-0.5339732766151428,-0.836958110332489,-0.3029848337173462,2.1102404594421387,-1.315851092338562,-3.359330177307129
52,3831678,3831679,-0.020030658692121506,-0.0030689018312841654,1.0093271732330322,-5.884643077850342,1.257651686668396,0.761231541633606,-0.5534723401069641,-0.8264586329460144,-0.2924853563308716,2.1087074279785156,-1.2827820777893066,-3.390866756439209
53,3831688,3831689,-0.11447416990995407,-0.1633797138929367,1.0746387243270874,-6.95119571685791,4.30085563659668,0.5889361500740051,-0.5384730696678162,-0.8324583768844604,-0.3044847846031189,2.1630074977874756,-1.4433103799819946,-3.3803634643554688
54,3831698,3831699,0.0485953725874424,-0.07530444860458374,0.9479257464408875,-1.1285324096679688,1.6147640943527222,1.4609880447387695,-0.5354732275009155,-0.8234587907791138,-0.2954852283000946,2.056279182434082,-1.4228811264038086,-3.3693642616271973
55,3831708,3831709,-0.09613080322742462,-0.05343843996524811,0.9793444275856018,-3.5607316493988037,4.486568450927734,0.4216841459274292,-0.5459727048873901,-0.8219588994979858,-0.29998499155044556,2.024747133255005,-1.5771344900131226,-3.324761152267456
56,3831718,3831719,-0.012632186524569988,-0.14837193489074707,0.9692104458808899,-0.9470153450965881,0.46151864528656006,1.1375175714492798,-0.5429728627204895,-0.8189590573310852,-0.29998499155044556,1.9184743165969849,-1.5081502199172974,-3.317734718322754
57,3831728,3831729,-0.09012728929519653,-0.06194617971777916,0.9436147212982178,-4.004478931427002,3.7451484203338623,-0.004551520571112633,-0.5444727540016174,-0.8384580612182617,-0.2954852283000946,1.8938173055648804,-1.6545326709747314,-3.278149127960205
58,3831738,3831739,-0.050880786031484604,-0.27844586968421936,0.9643232822418213,-1.3064770698547363,-0.4625243842601776,1.2334659099578857,-0.5564721822738647,-0.8324583768844604,-0.2924853563308716,1.938673734664917,-1.7212525606155396,-3.280191659927368
59,3831748,3831749,0.036501653492450714,-0.13722845911979675,1.0173189640045166,-3.1946935653686523,3.142239809036255,0.8214004039764404,-0.5504724383354187,-0.8354582190513611,-0.2864856719970703,1.9727884531021118,-1.6424766778945923,-3.3154070377349854
60,3831758,3831759,-0.06783804297447205,-0.17864157259464264,1.0308834314346313,-1.6285332441329956,-0.17274880409240723,2.021481513977051,-0.5414729118347168,-0.8204589486122131,-0.3044847846031189,2.0032618045806885,-1.7617014646530151,-3.287609577178955
61,3831768,3831769,-0.38265907764434814,-0.1493736356496811,0.9805114269256592,0.8948591947555542,1.8578952550888062,1.4359447956085205,-0.5594720244407654,-0.8294585347175598,-0.3044847846031189,2.025078773498535,-2.0640475749969482,-3.2055954933166504
62,3831778,3831779,-0.145152747631073,-0.10404671728610992,1.0819220542907715,-0.3122887909412384,2.824108839035034,2.5421597957611084,-0.5414729118347168,-0.8324583768844604,-0.31048446893692017,2.0239644050598145,-2.2323124408721924,-3.1451079845428467
63,3831788,3831789,-0.17291416227817535,0.027750659734010696,0.9909536838531494,5.788108825683594,6.266849517822266,1.832741379737854,-0.5414729118347168,-0.8294585347175598,-0.28048595786094666,2.1843581199645996,-2.2937729358673096,-3.1767847537994385
64,3831798,3831799,-0.48832035064697266,0.007136420346796513,1.1239722967147827,7.351718902587891,9.559714317321777,3.0204694271087646,-0.5474725961685181,-0.8414579033851624,-0.2954852283000946,2.073739528656006,-2.208427667617798,-3.147766351699829
65,3831808,3831809,-0.16074858605861664,0.10871842503547668,1.0353264808654785,19.08106803894043,14.578861236572266,1.6107851266860962,-0.5504724383354187,-0.8264586329460144,-0.3014849126338959,2.1702804565429688,-2.03166127204895,-3.2249670028686523
66,3831818,3831819,-0.10789962112903595,0.07193119823932648,1.1293971538543701,21.74062728881836,19.373136520385742,2.158872127532959,-0.5519723892211914,-0.8399580121040344,-0.2969851493835449,1.563873052597046,-1.3975600004196167,-3.1549084186553955
67,3831828,3831829,-0.02431521937251091,0.02635268308222294,1.0635371208190918,26.606760025024414,20.520315170288086,1.7118428945541382,-0.5579720735549927,-0.8279585838317871,-0.2939853072166443,1.7456073760986328,-1.3277727365493774,-3.245948076248169
68,3831838,3831839,0.017876435071229935,-0.03150137513875961,1.009419560432434,24.080780029296875,18.235637664794922,1.8664641380310059,-0.5519723892211914,-0.8249587416648865,-0.2939853072166443,1.2765076160430908,-1.0042961835861206,-3.1441731452941895
69,3831848,3831849,-0.0656319260597229,-0.037078507244586945,1.0464422702789307,18.10599708557129,17.157791137695312,1.3770970106124878,-0.5669716596603394,-0.8189590573310852,-0.2939853072166443,1.1915099620819092,-1.2803738117218018,-3.0547614097595215
70,3831858,3831859,-0.14366239309310913,-0.08555634319782257,1.068096399307251,10.536299705505371,16.463226318359375,1.0572445392608643,-0.5639718174934387,-0.8309584259986877,-0.27898603677749634,1.1186474561691284,-1.071438193321228,-3.0966339111328125
71,3831868,3831869,-0.09530719369649887,-0.10837067663669586,1.0202622413635254,9.334782600402832,9.324715614318848,1.3601325750350952,-0.562471866607666,-0.8174591064453125,-0.277486115694046,0.7555345296859741,-0.8927983045578003,-3.02082896232605
72,3831878,3831879,-0.03157886862754822,-0.8009306192398071,1.0033003091812134,6.377903938293457,6.70833158493042,1.4055145978927612,-0.5639718174934387,-0.8219588994979858,-0.28798559308052063,0.6139218807220459,-0.7569620013237,-3.0011610984802246
73,3831888,3831889,-0.0016126403352245688,-0.5799722075462341,1.032394289970398,7.336853504180908,4.163641929626465,1.418687343597412,-0.5684715509414673,-0.8114594221115112,-0.2834858298301697,0.7919057011604309,-0.6503445506095886,-3.0738158226013184
74,3831898,3831899,-0.4160522222518921,-0.028634563088417053,1.1097826957702637,3.882927417755127,2.0976316928863525,2.622187852859497,-0.5684715509414673,-0.8144592642784119,-0.2834858298301697,1.0511757135391235,-0.5459218621253967,-3.1503825187683105
75,3831908,3831909,-0.17671965062618256,0.2938554286956787,1.0777404308319092,7.674516201019287,2.8361306190490723,1.783185362815857,-0.5639718174934387,-0.8219588994979858,-0.28198590874671936,0.9703931212425232,-0.4579579830169678,-3.113640069961548
76,3831918,3831919,-0.09219686686992645,-0.1396605670452118,1.1127488613128662,6.062827110290527,4.780481338500977,3.237628936767578,-0.5684715509414673,-0.8294585347175598,-0.2924853563308716,0.8770462274551392,-0.41164445877075195,-3.067514181137085
77,3831928,3831929,-0.2963755130767822,-0.5274398326873779,1.0509511232376099,9.257773399353027,11.638890266418457,1.636144757270813,-0.5669716596603394,-0.8189590573310852,-0.2939853072166443,0.7854313850402832,-0.2251071184873581,-3.050689697265625
78,3831938,3831939,-0.5425810217857361,-0.7094967365264893,1.006957769393921,8.679350852966309,13.089692115783691,3.483109712600708,-0.5744712948799133,-0.8024598360061646,-0.2864856719970703,0.6223564147949219,-0.15060514211654663,-3.0102126598358154
79,3831948,3831949,-1.1629317998886108,-0.6401937007904053,0.9814667701721191,7.588558197021484,18.275327682495117,1.703363060951233,-0.5864706635475159,-0.8084595799446106,-0.28048595786094666,0.4741981327533722,-0.018821056932210922,-2.9885988235473633
80,3831958,3831959,-0.5618671774864197,-0.19593559205532074,0.9016679525375366,7.172241687774658,16.133983612060547,1.9411261081695557,-0.5609719157218933,-0.8009599447250366,-0.27298635244369507,0.15229082107543945,0.0943630039691925,-2.94254207611084
81,3831968,3831969,-0.06380734592676163,0.032228901982307434,0.9468408226966858,2.470090627670288,17.178756713867188,1.5874947309494019,-0.5804709792137146,-0.8024598360061646,-0.2834858298301697,-0.14522244036197662,0.16781891882419586,-2.9013867378234863
82,3831978,3831979,0.0018010472413152456,-0.056761689484119415,0.8636143803596497,0.07484261691570282,13.33242130279541,0.8979305028915405,-0.5804709792137146,-0.8024598360061646,-0.2834858298301697,-0.35001397132873535,0.17797738313674927,-2.8837034702301025
83,3831988,3831989,-0.09835589677095413,-0.061331406235694885,0.843940258026123,-1.0768287181854248,5.231247901916504,1.8105971813201904,-0.5804709792137146,-0.8024598360061646,-0.2834858298301697,-0.4641155004501343,0.08426295220851898,-2.8697807788848877
84,3831998,3831999,-0.3960244357585907,-0.05061826482415199,0.9634915590286255,-5.235965728759766,2.6321771144866943,1.2316104173660278,-0.5729713439941406,-0.7949602603912354,-0.28798559308052063,-0.5497912168502808,0.026678938418626785,-2.850958824157715
85,3832008,3832009,-0.29293179512023926,-0.11492353677749634,0.967985987663269,-3.9749889373779297,-6.252772808074951,1.4856970310211182,-0.5759711861610413,-0.8189590573310852,-0.27898603677749634,-0.5308163166046143,0.021585730835795403,-2.8365070819854736
86,3832018,3832019,-0.2357720136642456,-0.21145686507225037,1.0256530046463013,-3.7094626426696777,-13.73144817352295,2.3938701152801514,-0.5669716596603394,-0.8159592151641846,-0.27898603677749634,-0.46039438247680664,0.15089808404445648,-2.7985854148864746
87,3832028,3832029,-0.41505664587020874,-0.10590559989213943,1.0075626373291016,-0.8424955010414124,-12.04738712310791,1.4842151403427124,-0.577471137046814,-0.8024598360061646,-0.29848507046699524,-0.2551986575126648,0.15758846700191498,-2.7817375659942627
88,3832038,3832039,-0.14466768503189087,-0.31454941630363464,0.9475271105766296,0.2646734416484833,-12.485591888427734,1.4651942253112793,-0.56997150182724,-0.8159592151641846,-0.29098543524742126,-0.6618472933769226,0.1328696757555008,-2.7340481281280518
89,3832048,3832049,-0.09246643632650375,-0.2975853979587555,0.8678856492042542,0.8405308723449707,-12.58272647857666,1.4646986722946167,-0.5744712948799133,-0.8204589486122131,-0.2864856719970703,-0.21332302689552307,0.18228964507579803,-2.7302863597869873
90,3832058,3832059,-0.13181188702583313,-0.1569492369890213,0.8999059200286865,-0.652733325958252,-9.520576477050781,1.3191131353378296,-0.5819708704948425,-0.8159592151641846,-0.28798559308052063,-0.014437461271882057,0.23121599853038788,-2.71577525138855
91,3832068,3832069,-0.29653701186180115,-0.2526324689388275,0.9402912855148315,-2.150622606277466,-6.965970039367676,1.4340623617172241,-0.56997150182724,-0.8099594712257385,-0.28198590874671936,-0.061061128973960876,0.18595626950263977,-2.7041540145874023
92,3832078,3832079,-1.0129263401031494,-0.8048661947250366,0.9579182267189026,-4.432976722717285,-1.951904296875,1.6288994550704956,-0.56997150182724,-0.8069596290588379,-0.27898603677749634,0.04767576977610588,0.10896933078765869,-2.698317050933838
93,3832088,3832089,-0.8174698948860168,-0.42685312032699585,0.9536169767379761,-5.847876071929932,2.6645514965057373,1.3779141902923584,-0.5744712948799133,-0.8144592642784119,-0.277486115694046,0.086420439183712,0.00680101104080677,-2.690298557281494
94,3832098,3832099,-1.0489050149917603,0.021145811304450035,0.9950634837150574,-6.8528733253479,-1.8468093872070312,2.503197431564331,-0.5654717087745667,-0.8204589486122131,-0.2924853563308716,0.1703859567642212,-0.10682809352874756,-2.680586576461792
95,3832108,3832109,-0.48283761739730835,0.05051979050040245,1.0612343549728394,-5.480243682861328,-5.005051136016846,2.665818929672241,-0.5594720244407654,-0.8084595799446106,-0.2834858298301697,0.15271370112895966,-0.2964437007904053,-2.6699540615081787
96,3832118,3832119,-0.4699511229991913,-0.36829668283462524,1.0746265649795532,-2.760357618331909,0.3019198179244995,2.5212409496307373,-0.5564721822738647,-0.8294585347175598,-0.2834858298301697,0.21174339950084686,-0.44277459383010864,-2.6600098609924316
97,3832128,3832129,-0.6538567543029785,-0.7002097368240356,1.006136178970337,3.2398433685302734,-5.3420257568359375,3.1562249660491943,-0.562471866607666,-0.8144592642784119,-0.2744862735271454,0.2544534504413605,-0.4489082992076874,-2.632960081100464
98,3832138,3832139,-0.681627631187439,-0.507286012172699,0.9017766714096069,6.853706359863281,1.749868392944336,2.1052515506744385,-0.5819708704948425,-0.8249587416648865,-0.28798559308052063,0.2793709635734558,-0.38271379470825195,-2.601243495941162
99,3832148,3832149,-0.42162424325942993,-0.28499454259872437,0.9473506808280945,10.774736404418945,3.351073980331421,1.3890520334243774,-0.5669716596603394,-0.8249587416648865,-0.28198590874671936,0.31779029965400696,-0.17056255042552948,-2.569105386734009
100,3832158,3832159,-0.2722949981689453,-0.30768096446990967,0.8412560224533081,13.237251281738281,3.914881467819214,1.1516937017440796,-0.5669716596603394,-0.8129593133926392,-0.28798559308052063,0.18686416745185852,-0.060678109526634216,-2.555196523666382
101,3832168,3832169,-0.17830133438110352,-0.5341300964355469,0.8586216568946838,11.892932891845703,6.591769218444824,0.23588381707668304,-0.5714713931083679,-0.8264586329460144,-0.2954852283000946,0.10944114625453949,0.21159246563911438,-2.530066728591919
102,3832178,3832179,-0.005049288272857666,-0.2623707354068756,0.95512855052948,8.377314567565918,3.991929054260254,-0.5023548603057861,-0.5684715509414673,-0.8174591064453125,-0.2864856719970703,0.04102976620197296,0.3089025616645813,-2.531824827194214
103,3832188,3832189,-0.23368632793426514,-0.07353978604078293,0.9560878276824951,2.756314754486084,0.02349306456744671,-0.14115110039710999,-0.5654717087745667,-0.8324583768844604,-0.29848507046699524,-1.908132553100586,0.521440863609314,-2.4914796352386475
104,3832198,3832199,-0.18071015179157257,0.0064807552844285965,1.0686231851577759,-4.764065265655518,-3.918067455291748,-0.5548374652862549,-0.5654717087745667,-0.8354582190513611,-0.2954852283000946,-1.7165980339050293,0.5020221471786499,-2.494661808013916
105,3832208,3832209,-0.22507138550281525,-0.1309742033481598,1.042492389678955,-9.65345287322998,-19.59197998046875,-0.5020006895065308,-0.5534723401069641,-0.8594570159912109,-0.3044847846031189,-1.4740982055664062,0.5161435604095459,-2.4867329597473145
106,3832218,3832219,-0.7109606266021729,-0.5465866327285767,0.9728991389274597,-16.334028244018555,-33.76322555541992,-0.420443058013916,-0.5594720244407654,-0.8324583768844604,-0.29848507046699524,-1.0786844491958618,0.2826513946056366,-2.515122890472412
107,3832228,3832229,-0.5936363935470581,-0.3025100827217102,0.9955242872238159,-18.61775779724121,-51.628440856933594,-0.24491466581821442,-0.5489725470542908,-0.8249587416648865,-0.28798559308052063,-0.4796042740345001,-0.020704129710793495,-2.5496251583099365
108,3832238,3832239,-0.5906329154968262,-0.8380725979804993,1.0261458158493042,-18.45716667175293,-49.84197998046875,-1.494894027709961,-0.5534723401069641,-0.8354582190513611,-0.28948551416397095,0.09058081358671188,-0.13688445091247559,-2.5377118587493896
109,3832248,3832249,-0.41597607731819153,-0.909986674785614,0.9175270199775696,-13.710156440734863,-44.53065490722656,-2.3853418827056885,-0.5489725470542908,-0.8249587416648865,-0.28798559308052063,0.6532943844795227,-0.36965423822402954,-2.564680576324463
110,3832258,3832259,-0.5421048998832703,-0.34737318754196167,0.9308793544769287,-5.620093822479248,-45.15394592285156,-1.1088242530822754,-0.5534723401069641,-0.8354582190513611,-0.3014849126338959,1.1027109622955322,-0.35845303535461426,-2.555743455886841
111,3832268,3832269,-0.5493641495704651,-0.2806979715824127,0.9894048571586609,1.332651972770691,-34.367652893066406,-0.6122087240219116,-0.5474725961685181,-0.8234587907791138,-0.3044847846031189,1.6811739206314087,-0.3092084527015686,-2.542072296142578
112,3832278,3832279,-0.1297193169593811,0.055896926671266556,0.9802987575531006,5.9948296546936035,-20.359437942504883,-1.3189688920974731,-0.5579720735549927,-0.8219588994979858,-0.2939853072166443,1.9166314601898193,-0.2918253242969513,-2.553666591644287
113,3832288,3832289,-0.23184794187545776,-0.043287549167871475,0.9636735916137695,8.647841453552246,-7.697092533111572,-0.14382973313331604,-0.5429728627204895,-0.836958110332489,-0.29998499155044556,2.0076282024383545,-0.21255546808242798,-2.560481071472168
114,3832298,3832299,-0.2196650207042694,-0.15763865411281586,0.975121259689331,6.958309650421143,6.610235691070557,-0.8488075733184814,-0.5474725961685181,-0.8324583768844604,-0.29848507046699524,2.08355450630188,-0.11636970192193985,-2.5632739067077637
115,3832308,3832309,-0.17567037045955658,0.041656509041786194,0.9364392161369324,6.4103569984436035,8.247682571411133,-0.4546721279621124,-0.5384730696678162,-0.8324583768844604,-0.29848507046699524,2.0842084884643555,-0.037642378360033035,-2.56884503364563
116,3832318,3832319,-0.5064036846160889,-0.28627246618270874,0.9882147312164307,2.023430109024048,8.260614395141602,0.08877383917570114,-0.5489725470542908,-0.8219588994979858,-0.2939853072166443,1.9668322801589966,0.0007653256179764867,-2.571497678756714
117,3832328,3832329,-0.2932874262332916,0.009871234185993671,1.0320268869400024,-3.4088783264160156,10.685281753540039,-0.6171776652336121,-0.5459727048873901,-0.8429578542709351,-0.3029848337173462,1.8974405527114868,0.037011485546827316,-2.572092056274414
118,3832338,3832339,-0.17634429037570953,-0.42153680324554443,1.0791511535644531,-6.832130432128906,2.880150556564331,1.3116910457611084,-0.5519723892211914,-0.8399580121040344,-0.3059847056865692,1.9269057512283325,-0.0052903625182807446,-2.569849729537964
119,3832348,3832349,-0.23732443153858185,-0.4361495077610016,1.0373069047927856,-10.938821792602539,1.5852073431015015,-0.07381884008646011,-0.5444727540016174,-0.8414579033851624,-0.2864856719970703,1.9363902807235718,-0.11147624254226685,-2.560734272003174
120,3832358,3832359,-0.48115381598472595,-0.1384129822254181,0.999138355255127,-11.073186874389648,-5.708395004272461,1.0313937664031982,-0.5444727540016174,-0.8324583768844604,-0.29848507046699524,2.0156264305114746,-0.25991758704185486,-2.554088830947876
121,3832368,3832369,-0.40767309069633484,-0.10531169176101685,1.0632188320159912,-12.852591514587402,-4.745643138885498,0.3536483943462372,-0.5429728627204895,-0.8339582681655884,-0.29098543524742126,2.13765287399292,-0.4195272624492645,-2.5402557849884033
122,3832378,3832379,-0.45330777764320374,-0.6399932503700256,0.9965417385101318,-8.363977432250977,-3.5568065643310547,0.5711727738380432,-0.5234737992286682,-0.8264586329460144,-0.3014849126338959,2.235104560852051,-0.6387711763381958,-2.5251801013946533
123,3832388,3832389,-0.5836948156356812,-0.8542960286140442,1.0449469089508057,-5.817551612854004,0.17973531782627106,1.28059983253479,-0.5429728627204895,-0.8339582681655884,-0.28798559308052063,2.3008475303649902,-0.5107560157775879,-2.539365291595459
124,3832398,3832399,-0.4073983132839203,-0.6027334332466125,0.9955829977989197,1.521362066268921,6.06597375869751,0.0102110980078578,-0.5444727540016174,-0.8144592642784119,-0.2864856719970703,2.21551775932312,-0.598897397518158,-2.5247209072113037
125,3832408,3832409,-0.7372204661369324,-0.5803131461143494,0.9732157588005066,1.1223894357681274,9.40440559387207,1.3917142152786255,-0.5474725961685181,-0.8174591064453125,-0.2924853563308716,2.129331350326538,-0.6078170537948608,-2.514800786972046
126,3832418,3832419,-0.8564524054527283,-0.23455487191677094,1.0220463275909424,4.9225664138793945,14.472916603088379,-0.00895459670573473,-0.5309734344482422,-0.8309584259986877,-0.3029848337173462,1.964849829673767,-0.518177330493927,-2.5200037956237793
127,3832428,3832429,-0.44926774501800537,-0.1645531952381134,1.0005109310150146,4.616613864898682,12.331706047058105,1.3089410066604614,-0.5369731187820435,-0.8279585838317871,-0.2939853072166443,1.9744644165039062,-0.47103211283683777,-2.515735387802124
128,3832438,3832439,-0.16124702990055084,-0.13955363631248474,0.991454541683197,1.4666953086853027,15.484272956848145,-0.03832150250673294,-0.5489725470542908,-0.8429578542709351,-0.2939853072166443,1.7583599090576172,-0.4465343952178955,-2.506983995437622
129,3832448,3832449,-0.04751425236463547,-0.2619420289993286,0.9440941214561462,0.5073555707931519,10.114532470703125,0.95420902967453,-0.5519723892211914,-0.8249587416648865,-0.2939853072166443,1.691522240638733,-0.46276363730430603,-2.500335216522217
130,3832458,3832459,-0.4378976821899414,-0.4942606985569,0.939253568649292,-6.142759323120117,13.432089805603027,0.05393094941973686,-0.5384730696678162,-0.8294585347175598,-0.2954852283000946,1.6424769163131714,-0.4515058994293213,-2.5057177543640137
131,3832468,3832469,-0.707430899143219,-0.4425153136253357,0.9063384532928467,-6.174637317657471,7.862025737762451,0.623391330242157,-0.5474725961685181,-0.8294585347175598,-0.3014849126338959,1.458846926689148,-0.44304585456848145,-2.5129480361938477
132,3832478,3832479,-0.3280419111251831,-0.2824261784553528,0.9378531575202942,-10.088706970214844,8.522540092468262,0.8092984557151794,-0.5459727048873901,-0.8339582681655884,-0.2969851493835449,1.4725377559661865,-0.4648880064487457,-2.5217676162719727
133,3832488,3832489,-0.03860117867588997,-0.2954818606376648,0.9098281264305115,-7.53309440612793,7.724363803863525,0.2655428349971771,-0.5444727540016174,-0.8354582190513611,-0.3044847846031189,1.47737717628479,-0.652427077293396,-2.5058693885803223
134,3832498,3832499,-0.13471658527851105,-0.48505887389183044,0.9498723745346069,-9.67512321472168,7.362867832183838,0.7334845066070557,-0.5519723892211914,-0.836958110332489,-0.3029848337173462,1.3428436517715454,-0.8187301754951477,-2.482973098754883
135,3832508,3832509,-0.042360350489616394,-0.17567963898181915,0.9006640911102295,-4.408383369445801,9.186768531799316,-0.24988879263401031,-0.5294735431671143,-0.8384580612182617,-0.3014849126338959,1.2037153244018555,-0.893016517162323,-2.4814670085906982
136,3832518,3832519,-0.15007442235946655,-0.20205029845237732,1.014447808265686,-4.661137580871582,9.341814994812012,0.6171400547027588,-0.5414729118347168,-0.8474575877189636,-0.2954852283000946,1.1181081533432007,-0.9225172996520996,-2.4848902225494385
137,3832528,3832529,-0.18189069628715515,-0.09486928582191467,0.9455770254135132,1.7218749523162842,10.414992332458496,-0.18655918538570404,-0.5369731187820435,-0.8339582681655884,-0.2969851493835449,1.0816301107406616,-0.9144078493118286,-2.493868112564087
138,3832538,3832539,-0.021437175571918488,0.0571962408721447,0.9691124558448792,1.2961475849151611,13.322056770324707,0.7379868626594543,-0.5429728627204895,-0.8549572229385376,-0.3029848337173462,1.0143744945526123,-0.9155973792076111,-2.492257595062256
139,3832548,3832549,-0.032556671649217606,-0.25523871183395386,0.9152200222015381,5.334621906280518,11.3418550491333,0.018033532425761223,-0.5474725961685181,-0.8474575877189636,-0.30748462677001953,0.8629475235939026,-0.901228666305542,-2.4886741638183594
140,3832558,3832559,-0.6772672533988953,-0.5763877034187317,1.056483507156372,2.0166571140289307,9.110513687133789,0.9157546162605286,-0.5339732766151428,-0.851957380771637,-0.30898454785346985,0.6595531702041626,-0.860101580619812,-2.4777326583862305
141,3832568,3832569,-0.5792802572250366,-0.5106714367866516,0.9687122702598572,4.8541646003723145,8.767662048339844,0.019263606518507004,-0.5489725470542908,-0.8639568090438843,-0.3119843900203705,0.6922798156738281,-0.822863757610321,-2.487029790878296
142,3832578,3832579,-0.2142096608877182,-0.3433566987514496,1.0562520027160645,-0.4699186682701111,7.939853668212891,0.7429974675178528,-0.5384730696678162,-0.8744562864303589,-0.3224838674068451,0.5806552171707153,-0.7987937331199646,-2.481374979019165
143,3832588,3832589,-0.07643911242485046,-0.10948991030454636,0.9933273196220398,1.5186121463775635,5.701211929321289,0.7257691621780396,-0.5279735922813416,-0.8609569072723389,-0.31798410415649414,0.5634607672691345,-0.8137854337692261,-2.480854034423828
144,3832598,3832599,-0.18965360522270203,-0.15706585347652435,1.0694565773010254,-2.859767198562622,8.51728343963623,0.8750500082969666,-0.5429728627204895,-0.8579570651054382,-0.2969851493835449,0.408701092004776,-0.8273645043373108,-2.4643940925598145
145,3832608,3832609,-0.09281127154827118,-0.003953537438064814,1.0471982955932617,0.8158642053604126,5.585350036621094,2.2396233081817627,-0.5504724383354187,-0.8594570159912109,-0.3134843111038208,0.5297444462776184,-0.8680899143218994,-2.4686460494995117
146,3832618,3832619,-0.09207461029291153,0.1536533385515213,1.0737299919128418,-2.342819929122925,11.038009643554688,0.45554834604263306,-0.5504724383354187,-0.8564571738243103,-0.2954852283000946,0.35263633728027344,-0.8251663446426392,-2.447889804840088
147,3832628,3832629,-0.0541030578315258,0.13072112202644348,1.0906699895858765,1.1011477708816528,8.849451065063477,1.958999752998352,-0.5429728627204895,-0.851957380771637,-0.29998499155044556,0.2960682809352875,-0.8559048771858215,-2.4393322467803955
148,3832638,3832639,-0.10094983130693436,-0.0006225957185961306,1.044837474822998,0.8668717741966248,13.483391761779785,-0.5312311053276062,-0.5399730205535889,-0.851957380771637,-0.3059847056865692,0.08600076287984848,-0.9183045029640198,-2.421360969543457
149,3832648,3832649,-0.14924614131450653,-0.24209941923618317,1.1018160581588745,1.7500485181808472,11.236475944519043,1.155688762664795,-0.5489725470542908,-0.836958110332489,-0.30898454785346985,0.07365202158689499,-0.8334536552429199,-2.4320993423461914
150,3832658,3832659,-0.03174135461449623,0.06173022463917732,1.042089819908142,6.355266094207764,10.061172485351562,-0.41504305601119995,-0.5474725961685181,-0.8564571738243103,-0.29848507046699524,-0.06718895584344864,-0.7763023972511292,-2.427793264389038
151,3832668,3832669,0.009724064730107784,0.056234315037727356,1.0602827072143555,6.824404239654541,6.255619049072266,0.30538681149482727,-0.5489725470542908,-0.8429578542709351,-0.2969851493835449,-0.2373737096786499,-0.6798359751701355,-2.4198989868164062
152,3832678,3832679,0.0019060919294133782,-0.06574594974517822,0.9967598915100098,8.202789306640625,4.559314727783203,0.2972767949104309,-0.5519723892211914,-0.8549572229385376,-0.3029848337173462,-0.36494335532188416,-0.5762887001037598,-2.4116578102111816
153,3832688,3832689,-0.24234437942504883,-0.14083650708198547,1.019747257232666,5.675982475280762,6.361228942871094,-0.5958687663078308,-0.5474725961685181,-0.8564571738243103,-0.30748462677001953,-0.33367490768432617,-0.6094925403594971,-2.426750421524048
154,3832698,3832699,-0.05646616593003273,-0.28576037287712097,1.0477333068847656,3.9319934844970703,1.1185380220413208,-0.24706603586673737,-0.5489725470542908,-0.8489575386047363,-0.2969851493835449,-0.416121244430542,-0.5247005224227905,-2.42246413230896
155,3832708,3832709,-0.07564973086118698,-0.23143836855888367,1.0848309993743896,2.334547281265259,-0.16839224100112915,-0.19483962655067444,-0.5489725470542908,-0.8429578542709351,-0.2939853072166443,-0.5176219344139099,-0.4783875048160553,-2.415142059326172
156,3832718,3832719,-0.446993350982666,-0.20261450111865997,1.067840576171875,0.04567646235227585,-2.4863333702087402,0.704178512096405,-0.5609719157218933,-0.8279585838317871,-0.28798559308052063,-0.5114719867706299,-0.5076526403427124,-2.4180119037628174
157,3832728,3832729,-0.1890256702899933,-0.12833644449710846,1.0528608560562134,0.761878490447998,-0.5928783416748047,-0.1858024150133133,-0.5609719157218933,-0.8399580121040344,-0.29998499155044556,-0.4319971203804016,-0.6437201499938965,-2.4352943897247314
158,3832738,3832739,-0.07591366022825241,-0.22503562271595,1.142777919769287,-1.4946316480636597,-1.1096465587615967,0.5508779287338257,-0.5564721822738647,-0.8414579033851624,-0.28948551416397095,-0.3648662567138672,-0.6251673698425293,-2.4335885047912598
159,3832748,3832749,0.015211089514195919,-0.1721358746290207,1.0003843307495117,5.058557510375977,-2.640444278717041,0.530236005783081,-0.5594720244407654,-0.8234587907791138,-0.3014849126338959,-0.36709848046302795,-0.5942613482475281,-2.423798084259033
160,3832758,3832759,-0.05305846780538559,-0.25483667850494385,1.0265414714813232,3.4953131675720215,1.880050539970398,0.3733746409416199,-0.5594720244407654,-0.8234587907791138,-0.3014849126338959,-0.38483551144599915,-0.5136712193489075,-2.4117205142974854
161,3832768,3832769,-0.08363421261310577,-0.09246250241994858,1.0394712686538696,6.286740779876709,2.426670789718628,-0.4257363975048065,-0.5594720244407654,-0.8234587907791138,-0.3014849126338959,-0.4378291368484497,-0.42907676100730896,-2.402649402618408
162,3832778,3832779,-0.1774323284626007,0.0891721323132515,1.104392647743225,5.092372417449951,4.056900978088379,0.3621923327445984,-0.562471866607666,-0.8264586329460144,-0.2834858298301697,-0.4977777600288391,-0.3254762589931488,-2.393690824508667
163,3832788,3832789,-0.007127134595066309,-0.034689899533987045,1.0434317588806152,7.31315279006958,-0.598934531211853,-1.042594313621521,-0.5594720244407654,-0.8354582190513611,-0.2864856719970703,-0.40508538484573364,-0.21466252207756042,-2.394510269165039
164,3832798,3832799,-0.09223763644695282,0.04271341860294342,1.066357970237732,3.7610931396484375,0.36133909225463867,-0.48583513498306274,-0.5609719157218933,-0.8189590573310852,-0.29998499155044556,-0.48736363649368286,-0.17350803315639496,-2.400087594985962
165,3832808,3832809,-0.03440810739994049,-0.3404337167739868,1.0376847982406616,3.2300169467926025,-5.332190036773682,-0.11294937878847122,-0.5654717087745667,-0.8144592642784119,-0.28048595786094666,-0.4656466841697693,-0.10058504343032837,-2.3971164226531982
166,3832818,3832819,-0.003269604407250881,-0.2196093052625656,0.9848098754882812,0.889830470085144,-6.3596906661987305,0.5021277070045471,-0.5684715509414673,-0.8204589486122131,-0.277486115694046,-0.39255794882774353,-0.1331300288438797,-2.405919075012207
167,3832828,3832829,-0.0627678781747818,0.05912476405501366,1.0064904689788818,-0.6823384761810303,-8.203452110290527,1.7464567422866821,-0.5654717087745667,-0.8204589486122131,-0.2924853563308716,-0.30091211199760437,-0.12191381305456161,-2.3944687843322754
168,3832838,3832839,-0.4524834454059601,-0.22957676649093628,1.0122510194778442,-3.921870470046997,-5.889464855194092,1.4423093795776367,-0.56997150182724,-0.8099594712257385,-0.29098543524742126,-0.47944706678390503,-0.14605893194675446,-2.3723418712615967
169,3832848,3832849,-0.14600878953933716,-0.12344973534345627,1.0009031295776367,-3.33280873298645,-6.48386812210083,1.9073169231414795,-0.5669716596603394,-0.8099594712257385,-0.2759861946105957,-0.37569254636764526,-0.3435296416282654,-2.387845754623413
170,3832858,3832859,-0.5628582239151001,-0.3514096736907959,1.082546353340149,-4.593129634857178,-4.9215474128723145,3.0078911781311035,-0.5639718174934387,-0.8099594712257385,-0.27298635244369507,-0.28999775648117065,-0.3835647702217102,-2.3628883361816406
171,3832868,3832869,-0.5312128663063049,-0.24021732807159424,1.024916410446167,2.208585500717163,-0.6706043481826782,1.1166316270828247,-0.5609719157218933,-0.8069596290588379,-0.27298635244369507,-0.23510289192199707,-0.33654046058654785,-2.3254449367523193
172,3832878,3832879,-0.5107529163360596,-0.343637079000473,1.018371820449829,5.599714279174805,-2.2381467819213867,2.6658384799957275,-0.5654717087745667,-0.8144592642784119,-0.28948551416397095,-0.21277467906475067,-0.2673336863517761,-2.299159288406372
173,3832888,3832889,-0.4144926369190216,-0.1274854838848114,1.010292649269104,10.871977806091309,1.1522176265716553,0.9772687554359436,-0.5744712948799133,-0.7964601516723633,-0.2834858298301697,-0.20241016149520874,-0.12978072464466095,-2.2696776390075684
174,3832898,3832899,-0.12769994139671326,-0.5023439526557922,0.8906567692756653,13.593507766723633,3.350208044052124,-0.35666438937187195,-0.56997150182724,-0.8159592151641846,-0.28198590874671936,-0.22744542360305786,-0.07337403297424316,-2.2684109210968018
175,3832908,3832909,-0.20231595635414124,-0.25076910853385925,0.917182445526123,10.816300392150879,0.6398140788078308,2.1164987087249756,-0.56997150182724,-0.8099594712257385,-0.28798559308052063,-0.1843581646680832,-0.19899964332580566,-2.3064963817596436
176,3832918,3832919,-0.08426765352487564,-0.10039295256137848,0.9293633699417114,7.5365400314331055,-0.2541622519493103,2.657890558242798,-0.5789710283279419,-0.8009599447250366,-0.27298635244369507,-0.18400542438030243,-0.2119918167591095,-2.3048629760742188
177,3832928,3832929,-0.2748853862285614,-0.12220927327871323,0.9630637764930725,6.902374744415283,-2.4257729053497314,2.2311952114105225,-0.5684715509414673,-0.8114594221115112,-0.2864856719970703,-0.16610203683376312,-0.111714668571949,-2.274287700653076
178,3832938,3832939,-0.9149618744850159,-0.1286773681640625,0.9493619203567505,5.074258804321289,-3.9997527599334717,2.400651216506958,-0.562471866607666,-0.80545973777771,-0.27148643136024475,-0.17737622559070587,0.029822014272212982,-2.2385940551757812
179,3832948,3832949,-0.5109641551971436,-0.19346733391284943,0.9316179752349854,4.366025924682617,-5.517997741699219,3.1464011669158936,-0.5654717087745667,-0.8174591064453125,-0.2834858298301697,-0.09120772033929825,0.013117299415171146,-2.226407051086426
180,3832958,3832959,-0.703700065612793,-0.4975789785385132,0.9848906993865967,5.7498626708984375,-8.65380859375,3.7419846057891846,-0.5684715509414673,-0.8114594221115112,-0.277486115694046,-0.0018864194862544537,0.12686719000339508,-2.180180072784424
181,3832968,3832969,-0.5702460408210754,-0.11342727392911911,0.9436596632003784,5.640714168548584,-6.045395374298096,4.0093770027160645,-0.562471866607666,-0.8204589486122131,-0.2864856719970703,-0.02015865035355091,0.18549856543540955,-2.1426174640655518
182,3832978,3832979,-0.5714316368103027,-0.30841824412345886,0.8701279759407043,7.011385440826416,1.9760185480117798,2.928314447402954,-0.5579720735549927,-0.8069596290588379,-0.29098543524742126,0.05393316224217415,0.3049575984477997,-2.092633008956909
183,3832988,3832989,-0.7197201251983643,-0.1364745795726776,0.9044218063354492,7.210556983947754,-5.8644514083862305,3.6008667945861816,-0.5639718174934387,-0.8159592151641846,-0.28498575091362,0.10737600177526474,0.3791525065898895,-2.0583882331848145
184,3832998,3832999,-0.5760437250137329,-0.22796624898910522,0.9488232135772705,7.905232906341553,-3.2717227935791016,2.734023332595825,-0.5669716596603394,-0.8249587416648865,-0.28498575091362,0.1203017458319664,0.46027863025665283,-2.025190830230713
185,3833008,3833009,-0.2149340957403183,-0.20375697314739227,0.9566633105278015,5.3094282150268555,-1.698103904724121,2.3918235301971436,-0.5684715509414673,-0.8264586329460144,-0.28948551416397095,0.17450879514217377,0.5347928404808044,-1.9955074787139893
186,3833018,3833019,-0.09951058775186539,-0.07676564157009125,0.9453025460243225,5.016622543334961,0.03770174831151962,2.253004789352417,-0.5609719157218933,-0.8249587416648865,-0.28798559308052063,0.19331273436546326,0.36365607380867004,-2.001091241836548
187,3833028,3833029,-0.31877401471138,-0.08516565710306168,0.9618808031082153,2.8112082481384277,0.6533875465393066,2.274278163909912,-0.562471866607666,-0.8354582190513611,-0.2834858298301697,0.19087500870227814,0.4740298390388489,-1.966576099395752
188,3833038,3833039,-0.07896023243665695,-0.009228866547346115,0.9329375624656677,2.955880641937256,1.9905339479446411,1.6054224967956543,-0.554972231388092,-0.8279585838317871,-0.2939853072166443,0.17680369317531586,0.559038519859314,-1.9397612810134888
189,3833048,3833049,-0.04658389464020729,-0.36731451749801636,0.962226390838623,1.980893611907959,2.047956943511963,1.8147799968719482,-0.5669716596603394,-0.8219588994979858,-0.29098543524742126,0.15625089406967163,0.6370712518692017,-1.9174244403839111
190,3833058,3833059,-0.18005426228046417,-0.19090060889720917,0.96217280626297,2.7516398429870605,0.621637225151062,1.626072883605957,-0.562471866607666,-0.8264586329460144,-0.2834858298301697,0.1461687684059143,0.6370524764060974,-1.9043116569519043
191,3833068,3833069,-0.36315301060676575,-0.13584616780281067,0.9514089822769165,1.9825057983398438,-0.7882668375968933,2.044949531555176,-0.5564721822738647,-0.8264586329460144,-0.2654867172241211,0.14115701615810394,0.6340010762214661,-1.8882758617401123
192,3833078,3833079,-0.6036572456359863,-0.7811313271522522,0.9764650464057922,3.7281064987182617,-4.762850761413574,3.186166763305664,-0.5609719157218933,-0.8339582681655884,-0.28198590874671936,0.16397234797477722,0.7017974257469177,-1.8615440130233765
193,3833088,3833089,-0.27093955874443054,-0.7406238913536072,0.9772148728370667,2.573529005050659,-1.2275254726409912,1.369260311126709,-0.5534723401069641,-0.8264586329460144,-0.29848507046699524,0.1941404640674591,0.7743191123008728,-1.833863615989685
194,3833098,3833099,-0.22324435412883759,-0.7766249179840088,0.9786965847015381,3.0487451553344727,0.3367615044116974,1.5576763153076172,-0.554972231388092,-0.8309584259986877,-0.29098543524742126,0.19247464835643768,0.7777886986732483,-1.8229880332946777
195,3833108,3833109,-1.0758638381958008,-0.7663730978965759,0.9897386431694031,2.569521903991699,0.6434386968612671,1.3820385932922363,-0.5669716596603394,-0.8429578542709351,-0.2939853072166443,0.18115155398845673,0.8540798425674438,-1.8060214519500732
196,3833118,3833119,-0.7715713977813721,-0.34844231605529785,0.9774155020713806,1.9042409658432007,0.08336794376373291,1.0027880668640137,-0.5594720244407654,-0.8564571738243103,-0.29848507046699524,0.1623038649559021,0.8430042862892151,-1.797645926475525
197,3833128,3833129,-0.2328113615512848,0.009244413115084171,0.9968363642692566,-0.14793533086776733,0.43705013394355774,0.46097198128700256,-0.5519723892211914,-0.8429578542709351,-0.3029848337173462,0.15252149105072021,0.8157376050949097,-1.794342041015625
198,3833138,3833139,-0.2914825975894928,-0.00741922901943326,0.9909518957138062,-0.9469226598739624,-1.0633620023727417,-0.13053785264492035,-0.5489725470542908,-0.851957380771637,-0.3059847056865692,0.14541776478290558,0.8304843902587891,-1.7914677858352661
199,3833148,3833149,-0.10082739591598511,-0.13347338140010834,0.9924367070198059,-1.714005947113037,-1.4038512706756592,-0.6399878263473511,-0.5534723401069641,-0.8324583768844604,-0.29848507046699524,0.16287527978420258,0.8233239054679871,-1.792644739151001
200,3833158,3833159,-0.2364480346441269,-0.09708212316036224,0.9702699780464172,-2.5666749477386475,-1.471503496170044,0.010567559860646725,-0.554972231388092,-0.8429578542709351,-0.3059847056865692,0.17004939913749695,0.8006593585014343,-1.7953742742538452
201,3833168,3833169,-0.23727375268936157,-0.19663292169570923,0.9942506551742554,-3.1026358604431152,-1.540973424911499,0.17271387577056885,-0.5504724383354187,-0.844457745552063,-0.31048446893692017,0.18868650496006012,0.7729754447937012,-1.7942062616348267
202,3833178,3833179,-0.3602082133293152,-0.3537676930427551,0.9980973601341248,-3.377737045288086,4.359723091125488,-0.12707610428333282,-0.5654717087745667,-0.8474575877189636,-0.2954852283000946,0.11831814795732498,0.7285223603248596,-1.804770827293396
203,3833188,3833189,-0.18528194725513458,-0.5033251047134399,0.994617760181427,-2.675936460494995,-1.2922239303588867,0.9507182240486145,-0.5459727048873901,-0.8399580121040344,-0.29098543524742126,0.11322669684886932,0.6979394555091858,-1.8015227317810059
204,3833198,3833199,-1.0355488061904907,-0.4274461567401886,1.04232919216156,-1.0484756231307983,-1.530131459236145,0.7642219662666321,-0.5444727540016174,-0.8414579033851624,-0.3134843111038208,0.13527314364910126,0.6737886071205139,-1.7900508642196655
205,3833208,3833209,-0.9023842215538025,-0.10285697132349014,0.9963471293449402,0.3810674846172333,-1.4982905387878418,0.8252086043357849,-0.5474725961685181,-0.8414579033851624,-0.29848507046699524,0.16183583438396454,0.6681914925575256,-1.7805613279342651
206,3833218,3833219,-0.5526724457740784,-0.26874035596847534,1.0013786554336548,2.2568538188934326,0.16637001931667328,0.1191956102848053,-0.5474725961685181,-0.8474575877189636,-0.30748462677001953,0.18325816094875336,0.704473614692688,-1.7737045288085938
207,3833228,3833229,-0.08730186522006989,-0.22619467973709106,1.0184917449951172,3.887406349182129,-0.23943749070167542,-0.010966392233967781,-0.5534723401069641,-0.8474575877189636,-0.2834858298301697,0.11035531759262085,0.6899727582931519,-1.7835227251052856
208,3833238,3833239,-0.007693108171224594,-0.08165892213582993,0.9753828644752502,1.5337862968444824,1.5876405239105225,-0.5352508425712585,-0.5534723401069641,-0.850457489490509,-0.28948551416397095,0.11138110607862473,0.7593905329704285,-1.7837125062942505
209,3833248,3833249,-0.04191526025533676,-0.17446522414684296,0.925532341003418,3.2944388389587402,-1.0597954988479614,-1.1704862117767334,-0.5534723401069641,-0.850457489490509,-0.31048446893692017,0.08877861499786377,0.7948675155639648,-1.7883836030960083
210,3833258,3833259,-0.10199210792779922,-0.03908102959394455,0.9679494500160217,-1.6087571382522583,0.30705952644348145,-1.0488057136535645,-0.5489725470542908,-0.851957380771637,-0.3029848337173462,0.09772174060344696,0.8142790198326111,-1.7951202392578125
211,3833268,3833269,-0.5359109044075012,-0.08886301517486572,1.0396910905838013,-4.291741847991943,4.875854015350342,-1.6625264883041382,-0.5489725470542908,-0.836958110332489,-0.2969851493835449,0.08149188756942749,0.7770565152168274,-1.8060239553451538
212,3833278,3833279,-0.3917742669582367,0.08713836222887039,1.0259215831756592,-5.289984703063965,0.19351638853549957,-1.5201839208602905,-0.5534723401069641,-0.8594570159912109,-0.3044847846031189,0.058034151792526245,0.7107101678848267,-1.8201061487197876
213,3833288,3833289,-0.34199249744415283,-0.08180151134729385,1.0874680280685425,-9.62355899810791,2.8945043087005615,-1.2795236110687256,-0.5519723892211914,-0.8579570651054382,-0.3209839463233948,0.06914898008108139,0.6126546263694763,-1.8321071863174438
214,3833298,3833299,-0.04257257655262947,0.02233007363975048,1.0105571746826172,-6.381004333496094,-1.1619654893875122,-0.9664918780326843,-0.5609719157218933,-0.8549572229385376,-0.3059847056865692,0.08617790788412094,0.4903816282749176,-1.8423795700073242
215,3833308,3833309,-0.08609230071306229,-0.42441749572753906,0.9899709224700928,-6.358391284942627,-6.088141918182373,-0.7451705932617188,-0.5474725961685181,-0.8474575877189636,-0.2954852283000946,0.07576104253530502,0.38027048110961914,-1.8610249757766724
216,3833318,3833319,-0.3507610261440277,-0.2899063527584076,1.0369434356689453,-3.8060317039489746,-5.768711566925049,-0.17198720574378967,-0.5474725961685181,-0.8474575877189636,-0.3014849126338959,0.11323461681604385,0.30243390798568726,-1.871242880821228
217,3833328,3833329,-0.29680362343788147,-0.3218035399913788,1.0664331912994385,-1.3916053771972656,-3.7598769664764404,0.15684551000595093,-0.5324733853340149,-0.8534573316574097,-0.30748462677001953,0.13799311220645905,0.2547195255756378,-1.875353455543518
218,3833338,3833339,-0.26893115043640137,-0.2987652122974396,1.022514820098877,1.8476035594940186,-3.046241283416748,-0.3879576623439789,-0.5414729118347168,-0.8474575877189636,-0.3014849126338959,0.20754402875900269,0.2615969777107239,-1.8706777095794678
219,3833348,3833349,-0.07880090177059174,-0.17430773377418518,1.043443202972412,6.792004585266113,-1.1917681694030762,-0.6999109387397766,-0.554972231388092,-0.8639568090438843,-0.3059847056865692,0.2505895495414734,0.33224785327911377,-1.869964838027954
220,3833358,3833359,-0.053622689098119736,-0.001804967294447124,1.0268229246139526,7.699400901794434,0.6206508278846741,-0.3906078636646271,-0.5459727048873901,-0.8489575386047363,-0.3119843900203705,0.2665766179561615,0.45890629291534424,-1.872261881828308
221,3833368,3833369,-0.10942041128873825,0.04917961731553078,1.0312621593475342,7.345576286315918,1.681239366531372,-0.23682017624378204,-0.5429728627204895,-0.8489575386047363,-0.3029848337173462,0.2500476539134979,0.5806566476821899,-1.875982403755188
222,3833378,3833379,-0.006960943341255188,-0.015066452324390411,1.0243380069732666,4.416741847991943,2.6090848445892334,0.17984628677368164,-0.5474725961685181,-0.8594570159912109,-0.30748462677001953,0.2203620970249176,0.6866456270217896,-1.8752588033676147
223,3833388,3833389,-0.10218118131160736,-0.009059512987732887,1.0500328540802002,0.2851240336894989,2.630352020263672,-0.1624547690153122,-0.5444727540016174,-0.8474575877189636,-0.30748462677001953,0.17905956506729126,0.7356438636779785,-1.875255823135376
224,3833398,3833399,0.00046045341878198087,-0.007579397410154343,1.031415343284607,-3.3227572441101074,1.7636247873306274,-0.5221182107925415,-0.5459727048873901,-0.8549572229385376,-0.3029848337173462,0.07321050763130188,0.709720253944397,-1.886260747909546
225,3833408,3833409,-0.012793179601430893,0.05342009663581848,1.0089905261993408,-7.571324348449707,0.29812008142471313,-0.30963394045829773,-0.5459727048873901,-0.8669566512107849,-0.3149842321872711,0.12591661512851715,0.6178407669067383,-1.884642243385315
226,3833418,3833419,-0.08846164494752884,-0.031000033020973206,1.032990574836731,-11.597224235534668,-1.7410118579864502,-0.20056839287281036,-0.5429728627204895,-0.8579570651054382,-0.3209839463233948,0.13587316870689392,0.38561514019966125,-1.8895858526229858
227,3833428,3833429,-0.23718859255313873,-0.02876909449696541,1.0569759607315063,-13.051606178283691,-3.4682533740997314,-0.2867858111858368,-0.5444727540016174,-0.8354582190513611,-0.3044847846031189,0.16699689626693726,0.26801368594169617,-1.8907426595687866
228,3833438,3833439,-0.14331172406673431,-0.09854729473590851,1.039049506187439,-10.298864364624023,-4.051271915435791,0.17664925754070282,-0.5294735431671143,-0.844457745552063,-0.3044847846031189,0.22440561652183533,0.21684031188488007,-1.886910080909729
229,3833448,3833449,-0.046536993235349655,-0.08667821437120438,1.0170742273330688,-7.081270694732666,-4.655393600463867,0.5333485007286072,-0.5459727048873901,-0.8669566512107849,-0.2939853072166443,0.2745281457901001,0.13357138633728027,-1.880921721458435
230,3833458,3833459,-0.06082885339856148,0.05736921355128288,1.0337467193603516,-1.5438846349716187,-4.233019828796387,1.1028521060943604,-0.5489725470542908,-0.851957380771637,-0.3029848337173462,0.26112499833106995,0.04938836395740509,-1.8796675205230713
231,3833468,3833469,-0.17794057726860046,-0.12232432514429092,1.0626330375671387,1.8345578908920288,-3.587517499923706,1.3261210918426514,-0.5459727048873901,-0.8609569072723389,-0.3029848337173462,0.3116181194782257,0.1857050359249115,-1.864128828048706
232,3833478,3833479,-0.40254274010658264,-0.05278482660651207,1.0237209796905518,4.09379768371582,-1.1200240850448608,0.9025188684463501,-0.5369731187820435,-0.851957380771637,-0.3029848337173462,0.34759724140167236,0.14122866094112396,-1.8502520322799683
233,3833488,3833489,-0.639050304889679,-0.07942166179418564,1.0662473440170288,5.157329082489014,1.0130643844604492,1.4938119649887085,-0.5594720244407654,-0.844457745552063,-0.3164841830730438,0.34516212344169617,0.21071122586727142,-1.8399758338928223
234,3833498,3833499,-0.4495607018470764,-0.024728646501898766,1.0237305164337158,3.6235952377319336,3.9917800426483154,1.60486900806427,-0.5489725470542908,-0.8399580121040344,-0.30898454785346985,0.3053264319896698,0.28325605392456055,-1.8249331712722778
235,3833508,3833509,-0.03700103610754013,0.04107970371842384,1.010624647140503,2.3084967136383057,3.3605644702911377,1.4966009855270386,-0.5489725470542908,-0.836958110332489,-0.2939853072166443,0.2448563128709793,0.25973373651504517,-1.8118685483932495
236,3833518,3833519,-0.010905381292104721,-0.03118567354977131,1.0107382535934448,0.6997836232185364,3.480013132095337,1.4640834331512451,-0.5444727540016174,-0.8384580612182617,-0.30748462677001953,0.18352380394935608,0.28691205382347107,-1.7998003959655762
237,3833528,3833529,-0.2838166058063507,-0.2435881793498993,1.0147846937179565,-4.186450958251953,3.1069891452789307,1.5018653869628906,-0.5519723892211914,-0.8489575386047363,-0.3119843900203705,0.1273767054080963,0.2613983750343323,-1.7872447967529297
238,3833538,3833539,-0.3240091800689697,-0.1185709685087204,1.0218034982681274,-4.773209095001221,1.4664795398712158,1.0760862827301025,-0.5519723892211914,-0.8489575386047363,-0.3119843900203705,0.08909320086240768,0.19582007825374603,-1.7744996547698975
239,3833548,3833549,-0.1556696593761444,-0.1472858041524887,1.022345781326294,-6.621313571929932,0.11447232961654663,1.7792712450027466,-0.5519723892211914,-0.8489575386047363,-0.3119843900203705,0.08110968768596649,0.09731400012969971,-1.7623809576034546
240,3833558,3833559,0.0033463987056165934,-0.285243958234787,1.0170888900756836,-5.580573081970215,-0.8269498348236084,1.9337570667266846,-0.5564721822738647,-0.8354582190513611,-0.2954852283000946,0.08962097018957138,0.06897188723087311,-1.7456684112548828
241,3833568,3833569,-0.08472906053066254,-0.08411318808794022,1.0220305919647217,-4.451180934906006,-1.1327128410339355,2.188441276550293,-0.5414729118347168,-0.8414579033851624,-0.28948551416397095,0.186478853225708,-0.015420641750097275,-1.72156822681427
242,3833578,3833579,-0.14822371304035187,-0.24064409732818604,1.0330396890640259,-1.8817471265792847,-1.9886034727096558,1.884929895401001,-0.5519723892211914,-0.8339582681655884,-0.2969851493835449,0.21697942912578583,0.07244116067886353,-1.7012211084365845
243,3833588,3833589,-0.2081853747367859,-0.3000042736530304,1.0258674621582031,-1.882983922958374,-4.552048683166504,2.4337871074676514,-0.5594720244407654,-0.8294585347175598,-0.2954852283000946,0.27000683546066284,0.032675400376319885,-1.6798580884933472
244,3833598,3833599,-0.20630864799022675,-0.07364089787006378,1.0045278072357178,0.5372303128242493,-0.7796935439109802,2.3161044120788574,-0.5519723892211914,-0.8309584259986877,-0.2969851493835449,0.24047042429447174,0.0774836391210556,-1.658562183380127
245,3833608,3833609,-0.22684700787067413,-0.18594101071357727,1.002854347229004,0.3335372805595398,0.29698294401168823,2.5777885913848877,-0.5474725961685181,-0.8324583768844604,-0.29848507046699524,0.26481273770332336,0.07512609660625458,-1.6344891786575317
246,3833618,3833619,-0.3720211088657379,-0.4014294445514679,1.0202229022979736,-0.5328199863433838,2.1286652088165283,3.3147194385528564,-0.5579720735549927,-0.8399580121040344,-0.2939853072166443,0.2592765986919403,0.059964753687381744,-1.605726957321167
247,3833628,3833629,-0.5417391061782837,-0.837114155292511,1.0796269178390503,-2.4417645931243896,3.631553888320923,3.1022138595581055,-0.5564721822738647,-0.8234587907791138,-0.29848507046699524,0.2381327748298645,0.037011027336120605,-1.5714876651763916
248,3833638,3833639,-0.9092947244644165,-0.838908851146698,1.0391918420791626,-1.4957470893859863,2.7198054790496826,3.5761160850524902,-0.5564721822738647,-0.8324583768844604,-0.28948551416397095,0.1899385005235672,-0.007859999313950539,-1.53554368019104
249,3833648,3833649,-0.6069747805595398,-0.40638893842697144,1.0071015357971191,-1.538011074066162,1.8352595567703247,3.5359981060028076,-0.554972231388092,-0.836958110332489,-0.28498575091362,0.15865971148014069,-0.03638774901628494,-1.4982677698135376
250,3833658,3833659,-0.21787622570991516,-0.23130469024181366,0.9992199540138245,-0.7164381146430969,2.832038164138794,3.284623384475708,-0.5594720244407654,-0.8264586329460144,-0.2924853563308716,0.12637382745742798,-0.06373650580644608,-1.4613816738128662
251,3833668,3833669,-0.2917405068874359,-0.3364250063896179,1.0025691986083984,-0.3333272635936737,1.9843113422393799,3.644334316253662,-0.5534723401069641,-0.8174591064453125,-0.28048595786094666,0.09432402998209,-0.14086277782917023,-1.427186131477356
252,3833678,3833679,-0.4209021329879761,-0.08727957308292389,0.9943693280220032,1.39272141456604,1.2301486730575562,3.649012565612793,-0.5639718174934387,-0.8309584259986877,-0.28798559308052063,0.07469867169857025,-0.061520617455244064,-1.3902637958526611
253,3833688,3833689,-0.11915404349565506,0.007452161516994238,0.9882392287254333,3.2495436668395996,0.6206305027008057,3.9544990062713623,-0.5504724383354187,-0.8114594221115112,-0.2954852283000946,0.055105097591876984,-0.02881813980638981,-1.3507345914840698
254,3833698,3833699,-0.26551130414009094,-0.1535709649324417,1.0018556118011475,3.3835277557373047,-1.1959528923034668,3.5234129428863525,-0.5714713931083679,-0.8324583768844604,-0.29848507046699524,0.06391120702028275,0.026618734002113342,-1.311441421508789
255,3833708,3833709,-0.29227858781814575,-0.05982911214232445,0.9844675064086914,3.307028293609619,-2.3064827919006348,4.125070095062256,-0.554972231388092,-0.8129593133926392,-0.29098543524742126,0.15524427592754364,0.006827207747846842,-1.2744829654693604
256,3833718,3833719,-0.18497784435749054,-0.101230688393116,0.9959394931793213,3.009984016418457,-3.162097692489624,4.095492839813232,-0.5579720735549927,-0.8279585838317871,-0.28198590874671936,0.12917254865169525,0.05550353601574898,-1.2316161394119263
257,3833728,3833729,-0.631984531879425,-0.14674894511699677,0.9746610522270203,-0.3602718412876129,-2.472571849822998,3.8530383110046387,-0.5669716596603394,-0.8219588994979858,-0.28798559308052063,0.16749915480613708,0.07441645115613937,-1.192226767539978
258,3833738,3833739,-0.3967968821525574,-0.10842914134263992,0.967507541179657,-0.6726177334785461,-2.1231603622436523,3.8201916217803955,-0.5519723892211914,-0.8279585838317871,-0.28498575091362,0.20186053216457367,0.061265598982572556,-1.1555403470993042
259,3833748,3833749,-0.5663236975669861,-0.2780807614326477,0.9822819828987122,-0.625998854637146,-2.3119888305664062,3.329475164413452,-0.5579720735549927,-0.8339582681655884,-0.28198590874671936,0.23903219401836395,0.04819677025079727,-1.1226439476013184
260,3833758,3833759,-0.38283008337020874,-0.23279957473278046,0.9917019605636597,-2.4022204875946045,-0.6885570287704468,3.3011083602905273,-0.5684715509414673,-0.8384580612182617,-0.277486115694046,0.25884464383125305,0.016823310405015945,-1.0903047323226929
261,3833768,3833769,-0.23493748903274536,-0.17461523413658142,0.9709808826446533,-2.8009636402130127,-0.413352906703949,3.075361967086792,-0.5534723401069641,-0.8324583768844604,-0.29848507046699524,0.26199445128440857,-0.02202501706779003,-1.060513973236084
262,3833778,3833779,-0.6353877186775208,-0.24112889170646667,0.9783676862716675,-2.6572415828704834,0.5410740971565247,3.7806568145751953,-0.5474725961685181,-0.8264586329460144,-0.2864856719970703,0.25025489926338196,0.0019011584809049964,-1.0278595685958862
263,3833788,3833789,-0.2989791929721832,-0.013876267708837986,0.9954476952552795,-2.023988962173462,0.9006590843200684,2.842111110687256,-0.5474725961685181,-0.8414579033851624,-0.28948551416397095,0.2291175127029419,-0.02975427731871605,-0.9946585297584534
264,3833798,3833799,-0.33023643493652344,-0.07432582229375839,0.9799992442131042,-1.2619285583496094,0.010716661810874939,3.5862510204315186,-0.554972231388092,-0.8339582681655884,-0.2939853072166443,0.276522159576416,-0.06642046570777893,-0.9642246961593628
265,3833808,3833809,-0.21290211379528046,-0.06815855950117111,1.007073163986206,-1.3810193538665771,-0.22667287290096283,3.2899372577667236,-0.5534723401069641,-0.8324583768844604,-0.2924853563308716,0.2576247453689575,-0.09732948988676071,-0.930141270160675
266,3833818,3833819,-0.8279544115066528,-0.6629422307014465,0.9882334470748901,-0.7592087984085083,-0.968487560749054,3.066282033920288,-0.554972231388092,-0.8459576964378357,-0.2939853072166443,0.2411072701215744,-0.04621817544102669,-0.8974916934967041
267,3833828,3833829,-0.41823384165763855,-0.7978889346122742,1.0112662315368652,-2.5026659965515137,-1.3809734582901,3.4021830558776855,-0.5519723892211914,-0.8309584259986877,-0.2969851493835449,0.24226972460746765,-0.07209812104701996,-0.8650188446044922
268,3833838,3833839,-0.4222383201122284,-0.4059130847454071,0.9869253039360046,-2.029892921447754,-2.3115053176879883,3.140580177307129,-0.5519723892211914,-0.8429578542709351,-0.28498575091362,0.24735966324806213,-0.0476645864546299,-0.832229733467102
269,3833848,3833849,-0.6708964705467224,-0.8920168876647949,0.9999640583992004,-2.2185757160186768,-4.670358657836914,3.369262933731079,-0.554972231388092,-0.8279585838317871,-0.29098543524742126,0.28396686911582947,-0.0982094407081604,-0.7983084917068481
270,3833858,3833859,-0.6105108261108398,-0.40617355704307556,0.9880380630493164,-3.526899814605713,-4.1930999755859375,3.781700849533081,-0.5609719157218933,-0.8309584259986877,-0.2969851493835449,0.33526700735092163,-0.16136401891708374,-0.7645819783210754
271,3833868,3833869,-0.35025423765182495,-0.8576129078865051,0.9898114204406738,-3.569300413131714,-3.862119436264038,4.398531913757324,-0.5414729118347168,-0.8264586329460144,-0.28948551416397095,0.38843756914138794,-0.2251075804233551,-0.7245068550109863
272,3833878,3833879,-0.38743025064468384,-0.6615105271339417,0.9813275337219238,-4.360283851623535,-2.2135560512542725,4.289413928985596,-0.5354732275009155,-0.8294585347175598,-0.28948551416397095,0.42789849638938904,-0.3023203909397125,-0.6824891567230225
273,3833888,3833889,-1.3932842016220093,-0.2912794351577759,1.0307788848876953,-2.5591602325439453,-0.4386819899082184,3.9007837772369385,-0.5354732275009155,-0.8264586329460144,-0.2864856719970703,0.43369707465171814,-0.3726027309894562,-0.6387048959732056
274,3833898,3833899,-1.218667984008789,-0.07858805358409882,1.0284583568572998,-0.955858588218689,0.12835264205932617,4.173675537109375,-0.5459727048873901,-0.836958110332489,-0.29998499155044556,0.4250490069389343,-0.32724183797836304,-0.5964750051498413
275,3833908,3833909,-0.7286245822906494,-0.3075152337551117,1.01310133934021,0.7388401627540588,2.799222946166992,4.346063137054443,-0.5399730205535889,-0.8189590573310852,-0.2939853072166443,0.31910595297813416,-0.27065569162368774,-0.5508729815483093
276,3833918,3833919,-0.3549581468105316,-0.3589058518409729,1.002424716949463,2.82492995262146,3.699277400970459,4.043235778808594,-0.5354732275009155,-0.8234587907791138,-0.3014849126338959,0.2617511749267578,-0.24857144057750702,-0.50725257396698
277,3833928,3833929,-0.6330748796463013,-0.6776195764541626,0.9978647828102112,1.1617108583450317,3.8240506649017334,3.9847965240478516,-0.5504724383354187,-0.8294585347175598,-0.28948551416397095,0.26620185375213623,-0.21493424475193024,-0.47063565254211426
278,3833938,3833939,-0.20192460715770721,-0.35362130403518677,0.984398365020752,1.5411432981491089,2.2236790657043457,3.6880831718444824,-0.5459727048873901,-0.8189590573310852,-0.28498575091362,0.20235206186771393,-0.20228813588619232,-0.43071043491363525
279,3833948,3833949,-0.15682895481586456,-0.11536558717489243,0.9856288433074951,-0.2860967814922333,0.787486732006073,3.8011438846588135,-0.554972231388092,-0.8279585838317871,-0.28798559308052063,0.16347576677799225,-0.19999253749847412,-0.39173778891563416
280,3833958,3833959,-0.07078681886196136,-0.12669752538204193,0.9771872758865356,-2.4616239070892334,-0.6096040606498718,3.703132152557373,-0.5519723892211914,-0.8249587416648865,-0.29098543524742126,0.22341348230838776,-0.22390949726104736,-0.3581357002258301
281,3833968,3833969,-0.8690693974494934,-0.1412154883146286,0.989834189414978,-3.051827907562256,-3.0814759731292725,4.573517799377441,-0.5384730696678162,-0.8174591064453125,-0.277486115694046,0.309208482503891,-0.2825832664966583,-0.3221830725669861
282,3833978,3833979,-0.7554104328155518,-0.3118109703063965,0.9765360951423645,-3.9130842685699463,-2.7886717319488525,4.471675872802734,-0.5414729118347168,-0.8354582190513611,-0.3044847846031189,0.34359094500541687,-0.3314954340457916,-0.27688339352607727
283,3833988,3833989,-0.6211664080619812,-0.2533215582370758,0.9965718388557434,-4.144947052001953,-2.3375678062438965,4.632794380187988,-0.554972231388092,-0.8189590573310852,-0.2759861946105957,0.3716118335723877,-0.3962094187736511,-0.22963382303714752
284,3833998,3833999,-0.4380122721195221,0.012975353747606277,0.9611040949821472,-2.33128023147583,-0.7634754180908203,4.194613456726074,-0.5459727048873901,-0.8279585838317871,-0.28798559308052063,0.31397831439971924,-0.4530671238899231,-0.1792016625404358
285,3834008,3834009,-0.1412499099969864,-0.17343637347221375,0.9917658567428589,1.1704682111740112,0.9631946086883545,3.920623540878296,-0.5519723892211914,-0.8309584259986877,-0.28198590874671936,0.30840855836868286,-0.3304612934589386,-0.14123402535915375
286,3834018,3834019,-0.031024379655718803,-0.025177953764796257,0.9756500124931335,3.3052256107330322,1.5145617723464966,3.428915023803711,-0.5399730205535889,-0.8279585838317871,-0.29098543524742126,0.34294751286506653,-0.4424930810928345,-0.10282649844884872
287,3834028,3834029,-0.05602756515145302,-0.11415989696979523,0.9791149497032166,3.7680747509002686,4.362175941467285,3.3220455646514893,-0.5444727540016174,-0.8414579033851624,-0.29848507046699524,0.27489978075027466,-0.3833232820034027,-0.06567181646823883
288,3834038,3834039,-0.018993480131030083,-0.14881592988967896,0.9649632573127747,5.76809024810791,4.025285243988037,2.3690073490142822,-0.5489725470542908,-0.8339582681655884,-0.29098543524742126,0.18493294715881348,-0.3039686381816864,-0.029803281649947166
289,3834048,3834049,-0.1306854784488678,-0.09597344696521759,0.9814406037330627,5.411255359649658,4.495769500732422,3.0183329582214355,-0.5474725961685181,-0.8474575877189636,-0.29848507046699524,0.23966529965400696,-0.20726096630096436,-0.012766147963702679
290,3834058,3834059,-0.5142454504966736,-0.19323298335075378,0.9742781519889832,4.5514373779296875,3.313359260559082,2.383802652359009,-0.5459727048873901,-0.8279585838317871,-0.3029848337173462,0.15295609831809998,-0.19529150426387787,0.018087949603796005
291,3834068,3834069,-0.6795544624328613,-0.06078016757965088,1.000546932220459,2.4954137802124023,1.9107837677001953,3.2744505405426025,-0.5474725961685181,-0.850457489490509,-0.29848507046699524,0.15864355862140656,-0.1329125016927719,0.04348084703087807
292,3834078,3834079,-0.29764822125434875,-0.0993487611413002,0.9887054562568665,1.133230209350586,0.11313051730394363,3.252413749694824,-0.5339732766151428,-0.8459576964378357,-0.2969851493835449,0.1769104152917862,-0.10684966295957565,0.07288412004709244
293,3834088,3834089,-0.17655526101589203,-0.3833268880844116,0.9874813556671143,-0.635257363319397,-2.106827735900879,3.3896169662475586,-0.5384730696678162,-0.8474575877189636,-0.3014849126338959,0.16040635108947754,-0.09902498126029968,0.10917597264051437
294,3834098,3834099,-0.05164491757750511,-0.20741260051727295,1.0114244222640991,-2.823962688446045,-2.209594249725342,3.7476487159729004,-0.5444727540016174,-0.8414579033851624,-0.3134843111038208,0.16312934458255768,-0.13056668639183044,0.14736874401569366
295,3834108,3834109,-0.05643926560878754,-0.21256935596466064,0.9925264120101929,-3.3146424293518066,-1.8832417726516724,3.3317370414733887,-0.5414729118347168,-0.844457745552063,-0.2924853563308716,0.10205067694187164,-0.1752338707447052,0.1886131912469864
296,3834118,3834119,-0.5444022417068481,-0.7206781506538391,1.022132396697998,-2.335556983947754,-2.3740315437316895,3.373401403427124,-0.5354732275009155,-0.844457745552063,-0.2924853563308716,0.11289691179990768,-0.2257440835237503,0.2241070568561554
297,3834128,3834129,-0.625158429145813,-0.4683181345462799,1.0278452634811401,-1.0731762647628784,-1.085894227027893,2.8510563373565674,-0.5459727048873901,-0.836958110332489,-0.3029848337173462,0.1858527809381485,-0.2542073130607605,0.25133562088012695
298,3834138,3834139,-0.3728419542312622,-0.0972389504313469,1.0238672494888306,0.35843420028686523,0.04480501264333725,2.852731704711914,-0.5219739079475403,-0.8549572229385376,-0.3149842321872711,0.16667984426021576,-0.2656887471675873,0.28073936700820923
299,3834148,3834149,-0.5917336344718933,-0.24795065820217133,1.0315347909927368,2.900824785232544,2.5876502990722656,2.560756206512451,-0.5444727540016174,-0.8594570159912109,-0.29848507046699524,0.19297918677330017,-0.2397736757993698,0.30461475253105164
300,3834158,3834159,-0.5200555920600891,-0.5546504855155945,1.027333378791809,5.674790382385254,4.264246463775635,2.8397140502929688,-0.5399730205535889,-0.8549572229385376,-0.30898454785346985,0.04106578230857849,-0.1745903491973877,0.33887848258018494
301,3834168,3834169,-0.3769712448120117,-0.13097047805786133,1.020264983177185,6.410706043243408,5.196391582489014,2.1702425479888916,-0.5474725961685181,-0.850457489490509,-0.3014849126338959,0.08547089248895645,-0.07856005430221558,0.357930451631546
302,3834178,3834179,-0.4090236723423004,-0.21055833995342255,1.0187500715255737,6.9734320640563965,5.931394100189209,1.9267909526824951,-0.5444727540016174,-0.8384580612182617,-0.29848507046699524,-0.029984645545482635,0.030925970524549484,0.3854585587978363
303,3834188,3834189,-0.4495698809623718,-0.31040191650390625,1.0281985998153687,4.389822006225586,5.905566692352295,1.5960451364517212,-0.5444727540016174,-0.8414579033851624,-0.3044847846031189,-0.06700501590967178,0.13202252984046936,0.40339499711990356
304,3834198,3834199,-0.2428298145532608,-0.08753438293933868,1.0366437435150146,1.3241828680038452,5.4152679443359375,1.3249627351760864,-0.5414729118347168,-0.8534573316574097,-0.30748462677001953,-0.17203915119171143,0.04690775275230408,0.41996559500694275
305,3834208,3834209,-0.35502222180366516,-0.008906425908207893,1.0373808145523071,-0.9806631803512573,3.2661869525909424,0.9590575695037842,-0.5429728627204895,-0.8429578542709351,-0.29998499155044556,-0.2517956495285034,0.05789199844002724,0.43573373556137085
306,3834218,3834219,-0.09773235768079758,-0.018163032829761505,1.0170539617538452,-2.8257224559783936,2.358295440673828,0.3963095545768738,-0.5459727048873901,-0.8459576964378357,-0.2969851493835449,-0.3096773326396942,0.030055372044444084,0.4452516734600067
307,3834228,3834229,-0.242741659283638,-0.06442771106958389,1.0400090217590332,-3.5215139389038086,0.08390706777572632,0.8654815554618835,-0.5384730696678162,-0.8324583768844604,-0.3014849126338959,-0.33689239621162415,0.04930083453655243,0.45481255650520325
308,3834238,3834239,-0.28137364983558655,-0.05358995497226715,1.0183994770050049,-3.3513247966766357,-0.49881818890571594,1.0857216119766235,-0.5459727048873901,-0.836958110332489,-0.2969851493835449,-0.27190548181533813,-0.011497094295918941,0.46189504861831665
309,3834248,3834249,-0.19922257959842682,0.04225503280758858,1.0057111978530884,-0.7096524834632874,-2.707850933074951,1.1136977672576904,-0.5414729118347168,-0.8384580612182617,-0.29848507046699524,-0.25913071632385254,-0.050252363085746765,0.47179657220840454
310,3834258,3834259,-0.15190492570400238,-0.024776898324489594,1.0300873517990112,0.3860451877117157,-3.2783942222595215,1.7181949615478516,-0.5474725961685181,-0.8324583768844604,-0.2864856719970703,-0.1545310914516449,-0.055296897888183594,0.4819942116737366
311,3834268,3834269,-0.08107782155275345,0.0005373258027248085,1.022762417793274,0.07439390569925308,-1.6389724016189575,1.628705620765686,-0.5399730205535889,-0.8399580121040344,-0.3059847056865692,-0.20371440052986145,-0.04845825955271721,0.4999120831489563
312,3834278,3834279,-0.15217994153499603,-0.019858306273818016,1.0132789611816406,0.7819467782974243,-0.9228330850601196,2.0627572536468506,-0.5459727048873901,-0.8339582681655884,-0.30898454785346985,-0.19030073285102844,-0.04599744454026222,0.5151380896568298
313,3834288,3834289,-0.2972779870033264,-0.12417805939912796,1.0143795013427734,1.157173752784729,0.7767754793167114,1.7073991298675537,-0.5519723892211914,-0.8399580121040344,-0.3059847056865692,-0.1983742117881775,-0.031656716018915176,0.5340826511383057
314,3834298,3834299,-0.13172265887260437,-0.10267693549394608,1.0312073230743408,2.408662796020508,1.6295149326324463,1.5387895107269287,-0.5444727540016174,-0.8354582190513611,-0.3014849126338959,-0.21503959596157074,-0.07257004827260971,0.5480647087097168
315,3834308,3834309,-0.49499014019966125,-0.5727826952934265,1.0104334354400635,1.3677935600280762,2.631676197052002,1.7707077264785767,-0.5444727540016174,-0.8534573316574097,-0.31048446893692017,-0.25057312846183777,-0.03765438124537468,0.5647435188293457
316,3834318,3834319,-0.5276859402656555,-0.24772445857524872,0.9951870441436768,1.2821972370147705,1.47724187374115,1.0378297567367554,-0.5444727540016174,-0.8534573316574097,-0.31048446893692017,-0.28540894389152527,-0.007396254222840071,0.5811455249786377
317,3834328,3834329,-0.35692456364631653,-0.03650575131177902,1.040321707725525,0.13536633551120758,0.9223535060882568,1.0400201082229614,-0.5444727540016174,-0.8534573316574097,-0.31048446893692017,-0.2976691722869873,-0.05564891919493675,0.5888342261314392
318,3834338,3834339,-0.853815495967865,0.016277262941002846,1.021267056465149,0.2898333668708801,-1.442894697189331,0.764662504196167,-0.5384730696678162,-0.8414579033851624,-0.2954852283000946,-0.28965237736701965,-0.04606698825955391,0.5981183052062988
319,3834348,3834349,-0.351937472820282,0.0221300907433033,1.001636028289795,-0.9058516025543213,-3.588592767715454,1.5518807172775269,-0.5369731187820435,-0.8429578542709351,-0.3149842321872711,-0.2463032454252243,-0.0431647002696991,0.6101768612861633
320,3834358,3834359,-0.12804847955703735,-0.11116871982812881,1.0346381664276123,-1.2803142070770264,-4.389662265777588,1.840029001235962,-0.5429728627204895,-0.8489575386047363,-0.29998499155044556,-0.18649166822433472,-0.05138843134045601,0.6266523003578186
321,3834368,3834369,-0.01987655647099018,-0.09768572449684143,1.0058550834655762,-0.0030253713484853506,-6.432320594787598,1.8759307861328125,-0.5519723892211914,-0.8309584259986877,-0.30898454785346985,-0.10805349797010422,-0.12744392454624176,0.6393757462501526
322,3834378,3834379,-0.19494587182998657,-0.39589524269104004,1.0337719917297363,1.0393754243850708,-5.4953484535217285,1.8143354654312134,-0.5399730205535889,-0.8399580121040344,-0.28798559308052063,-0.022284451872110367,-0.10869215428829193,0.6589170098304749
323,3834388,3834389,-0.16294722259044647,-0.2992722690105438,1.0221375226974487,3.369811773300171,-3.933720350265503,1.2922619581222534,-0.5309734344482422,-0.8399580121040344,-0.3029848337173462,0.0508677139878273,-0.0590796135365963,0.6740524172782898
324,3834398,3834399,-0.26888445019721985,-0.1577700972557068,0.9790216088294983,4.568714141845703,3.101691961288452,1.2456316947937012,-0.5414729118347168,-0.844457745552063,-0.2954852283000946,0.05842899531126022,0.014024412259459496,0.6894442439079285
325,3834408,3834409,-0.8784902691841125,-0.09876415133476257,0.992354154586792,6.919848442077637,1.6241326332092285,2.2194786071777344,-0.5459727048873901,-0.8429578542709351,-0.28798559308052063,0.02720523253083229,-0.03562590479850769,0.6993087530136108
326,3834418,3834419,-0.9028612375259399,-0.08053170144557953,1.017619252204895,6.641071319580078,3.9278175830841064,1.4853544235229492,-0.5339732766151428,-0.8549572229385376,-0.2939853072166443,-0.025943361222743988,0.01780797354876995,0.7170183062553406
327,3834428,3834429,-0.19783645868301392,-0.11348961293697357,1.028713345527649,6.814785003662109,5.283507347106934,0.896404504776001,-0.5444727540016174,-0.8474575877189636,-0.30748462677001953,-0.11209588497877121,0.14324957132339478,0.7332988381385803
328,3834438,3834439,0.03367329388856888,-0.053132619708776474,0.9965121150016785,5.083520889282227,5.506365776062012,1.001415729522705,-0.5459727048873901,-0.851957380771637,-0.3059847056865692,-0.12828287482261658,0.25870782136917114,0.7467639446258545
329,3834448,3834449,-0.01361340843141079,-0.07287996262311935,1.0137368440628052,4.034448146820068,4.97560977935791,0.5744726657867432,-0.5459727048873901,-0.8429578542709351,-0.29998499155044556,-0.22113382816314697,0.2729339003562927,0.7546008825302124
330,3834458,3834459,-0.017726797610521317,-0.18125034868717194,1.0179561376571655,2.078495740890503,3.2805798053741455,0.8854267001152039,-0.5519723892211914,-0.8459576964378357,-0.3059847056865692,-0.08924378454685211,0.25821346044540405,0.7599828243255615
331,3834468,3834469,-0.08066067844629288,0.040370479226112366,1.012976050376892,0.6430091261863708,0.7112361788749695,0.5985009670257568,-0.5444727540016174,-0.844457745552063,-0.30748462677001953,-0.14508949220180511,0.2930735647678375,0.7708489298820496
332,3834478,3834479,0.02413398213684559,-0.050995487719774246,1.0012165307998657,-0.06968539953231812,0.005421137902885675,-0.2118278443813324,-0.5429728627204895,-0.8339582681655884,-0.3029848337173462,-0.17001546919345856,0.3080369830131531,0.77433180809021
333,3834488,3834489,-0.21189987659454346,-0.08544741570949554,1.0635223388671875,-1.865314245223999,0.29698166251182556,0.9211027026176453,-0.5519723892211914,-0.8429578542709351,-0.2939853072166443,-0.18135666847229004,0.3064916133880615,0.7785710096359253
334,3834498,3834499,-0.6178635954856873,-0.42159953713417053,0.9995025992393494,-1.2956105470657349,-2.5221452713012695,-0.1311034858226776,-0.5414729118347168,-0.8324583768844604,-0.3044847846031189,-0.19042733311653137,0.29022860527038574,0.7801587581634521
335,3834508,3834509,-0.47154471278190613,-0.10524863004684448,0.9653666019439697,-0.49108994007110596,-0.029902949929237366,-0.20110249519348145,-0.5339732766151428,-0.8339582681655884,-0.28798559308052063,-0.19167278707027435,0.2838621735572815,0.7781203985214233
336,3834518,3834519,-0.24460706114768982,-0.03533197566866875,1.0177477598190308,0.29207268357276917,0.2650235891342163,0.34822118282318115,-0.5474725961685181,-0.8414579033851624,-0.2834858298301697,-0.34591954946517944,0.35061556100845337,0.7762516736984253
337,3834528,3834529,-0.07115985453128815,-0.07762953639030457,0.9840947389602661,-0.2753564417362213,-1.7329431772232056,1.0944511890411377,-0.5489725470542908,-0.8399580121040344,-0.2939853072166443,-0.27958154678344727,0.29181158542633057,0.7774184942245483
338,3834538,3834539,-0.4591318666934967,-0.046137988567352295,0.9942874908447266,-0.09707958251237869,0.08175928145647049,0.5920901298522949,-0.5564721822738647,-0.8294585347175598,-0.3014849126338959,-0.1412513256072998,0.3671811819076538,0.7911641597747803
339,3834548,3834549,-0.5545423030853271,-0.28643515706062317,1.0251139402389526,-0.9542157053947449,0.19901813566684723,0.46714380383491516,-0.5369731187820435,-0.8279585838317871,-0.2969851493835449,-0.1551199108362198,0.2976967692375183,0.7911603450775146
340,3834558,3834559,-0.19969187676906586,-0.07583996653556824,0.9790248274803162,-0.9970539212226868,-1.2171173095703125,0.04080244526267052,-0.5459727048873901,-0.8399580121040344,-0.3029848337173462,-0.14952245354652405,0.28647056221961975,0.7921117544174194
341,3834568,3834569,-0.08385057747364044,-0.07529593259096146,0.991008996963501,-1.9394314289093018,-1.0811991691589355,0.06395670026540756,-0.5489725470542908,-0.836958110332489,-0.3029848337173462,-0.34143930673599243,0.33716943860054016,0.7868852019309998
342,3834578,3834579,-0.4999008774757385,-0.18936322629451752,1.0036331415176392,-1.3089395761489868,-0.9174821972846985,-0.10306742787361145,-0.5444727540016174,-0.8354582190513611,-0.29848507046699524,-0.034562621265649796,0.22921977937221527,0.794977605342865
343,3834588,3834589,-0.767747163772583,-0.17321614921092987,0.9944844245910645,-1.844233512878418,-1.8237401247024536,0.3180924952030182,-0.5609719157218933,-0.8459576964378357,-0.2939853072166443,-0.08981718122959137,0.34142953157424927,0.7996156215667725
344,3834598,3834599,-0.4300639033317566,-0.42781153321266174,1.003481388092041,-0.8579704165458679,-0.1792634278535843,0.5901181101799011,-0.5459727048873901,-0.8399580121040344,-0.3059847056865692,-0.07335231453180313,0.2941928207874298,0.8020758628845215
345,3834608,3834609,-0.18148325383663177,-0.8442362546920776,1.019040822982788,-1.1401336193084717,-0.3762531578540802,0.1796654760837555,-0.5474725961685181,-0.8354582190513611,-0.3044847846031189,-0.062285345047712326,0.1438199281692505,0.7990716695785522
346,3834618,3834619,-0.3951415419578552,-0.47070741653442383,0.9816175699234009,-0.27922987937927246,0.7608960866928101,0.6049099564552307,-0.5444727540016174,-0.8384580612182617,-0.29848507046699524,-0.06936442852020264,0.13628078997135162,0.8026928305625916
347,3834628,3834629,-0.23759299516677856,-0.12488723546266556,1.0222426652908325,1.9963845014572144,2.1151645183563232,-0.2130793184041977,-0.5489725470542908,-0.836958110332489,-0.29998499155044556,-0.0972396656870842,0.13981322944164276,0.8039114475250244
348,3834638,3834639,-0.2561526894569397,-0.0033759530633687973,1.0071030855178833,2.5488078594207764,2.313241958618164,-0.23417939245700836,-0.5594720244407654,-0.8414579033851624,-0.29848507046699524,-0.14533261954784393,0.3217136561870575,0.8099939227104187
349,3834648,3834649,-0.7215845584869385,-0.2652363181114197,0.9606727361679077,1.9139509201049805,0.22788934409618378,0.4408356845378876,-0.5414729118347168,-0.8354582190513611,-0.2954852283000946,-0.26431524753570557,0.35224565863609314,0.8046181797981262
350,3834658,3834659,-0.32062438130378723,-0.24374666810035706,0.9867231249809265,2.7966456413269043,1.6166800260543823,-0.9475046396255493,-0.5609719157218933,-0.8249587416648865,-0.2969851493835449,0.052458006888628006,0.31984663009643555,0.8125743865966797
351,3834668,3834669,-0.7845566272735596,-0.550236165523529,1.0064947605133057,0.7284573316574097,0.7157524228096008,-1.0123915672302246,-0.5414729118347168,-0.8264586329460144,-0.2924853563308716,-0.07069660723209381,0.27457138895988464,0.7951040267944336
352,3834678,3834679,-0.44498270750045776,-0.8537374138832092,0.9763144254684448,-0.745538592338562,0.9056240916252136,-1.4936243295669556,-0.5444727540016174,-0.8294585347175598,-0.2864856719970703,-0.3144470453262329,0.33832693099975586,0.7738121747970581
353,3834688,3834689,-0.13116230070590973,-0.28116267919540405,1.003477692604065,-1.1684495210647583,-0.04833227023482323,-1.0280040502548218,-0.5519723892211914,-0.8279585838317871,-0.29098543524742126,-0.2614578306674957,0.25151365995407104,0.760237455368042
354,3834698,3834699,-0.38460400700569153,-0.21233594417572021,0.9740562438964844,-2.468986749649048,-1.2674460411071777,-1.3752665519714355,-0.5519723892211914,-0.8129593133926392,-0.28498575091362,-0.26396501064300537,0.36662137508392334,0.7516434788703918
355,3834708,3834709,-0.2833622992038727,-0.2310933768749237,0.9949438571929932,-2.807697057723999,-1.8626142740249634,-1.0482670068740845,-0.5459727048873901,-0.8429578542709351,-0.2939853072166443,-0.5220968723297119,0.31812265515327454,0.7228890657424927
356,3834718,3834719,-0.07576882094144821,-0.23489999771118164,1.0026133060455322,-2.8333499431610107,-2.9658169746398926,-1.2638888359069824,-0.5669716596603394,-0.8309584259986877,-0.3059847056865692,0.012575043365359306,0.271005243062973,0.7363788485527039
357,3834728,3834729,-0.038288529962301254,-0.05829581990838051,0.9730911254882812,-2.7831406593322754,-4.278127193450928,-1.8277161121368408,-0.5534723401069641,-0.8204589486122131,-0.28948551416397095,0.04742682725191116,0.21694311499595642,0.7202160358428955
358,3834738,3834739,-0.12390103936195374,-0.08905384689569473,1.0090771913528442,-3.129319906234741,-2.9283204078674316,-1.8007723093032837,-0.5444727540016174,-0.8264586329460144,-0.2954852283000946,0.021486058831214905,0.16282658278942108,0.6961226463317871
359,3834748,3834749,-0.37485647201538086,0.014196639880537987,0.9787871241569519,-4.049209117889404,-0.6636407971382141,-1.7929762601852417,-0.5534723401069641,-0.8174591064453125,-0.28948551416397095,0.11002155393362045,0.10215233266353607,0.678100049495697
360,3834758,3834759,-0.2795579135417938,-0.08571995049715042,0.9964103102684021,-2.2184667587280273,2.1951546669006348,-1.5591391324996948,-0.5504724383354187,-0.8234587907791138,-0.2924853563308716,0.019087474793195724,0.04526621103286743,0.6537254452705383
361,3834768,3834769,-0.29197487235069275,-0.23511052131652832,0.9790104627609253,-0.052141595631837845,3.726158857345581,-1.849801778793335,-0.5504724383354187,-0.8294585347175598,-0.2834858298301697,0.10941770672798157,0.01740521378815174,0.6419076323509216
362,3834778,3834779,-0.6311728358268738,-0.4769112169742584,1.0018846988677979,0.27101850509643555,6.225351333618164,-2.1155316829681396,-0.5474725961685181,-0.8174591064453125,-0.2834858298301697,0.012620835565030575,0.08189135044813156,0.6203314065933228
363,3834788,3834789,-0.3520544171333313,-0.26604387164115906,0.9852606058120728,1.3262163400650024,6.556937217712402,-2.2755706310272217,-0.5519723892211914,-0.8249587416648865,-0.29098543524742126,-0.10058623552322388,0.09234678000211716,0.5978130102157593
364,3834798,3834799,-0.9455247521400452,-0.22889494895935059,1.0154979228973389,0.8357997536659241,5.952670097351074,-2.710693597793579,-0.5579720735549927,-0.8399580121040344,-0.3029848337173462,-0.2108062207698822,0.1778043657541275,0.574847400188446
365,3834808,3834809,-0.8005000948905945,-0.858896017074585,1.0059230327606201,1.3731420040130615,4.93906307220459,-2.545623540878296,-0.5579720735549927,-0.8219588994979858,-0.2939853072166443,-0.2472732663154602,0.192458376288414,0.5502762198448181
366,3834818,3834819,-0.28661027550697327,-0.3462405502796173,0.9886219501495361,1.0807039737701416,2.6661157608032227,-2.451437473297119,-0.5474725961685181,-0.8324583768844604,-0.29848507046699524,-0.3201635181903839,0.20638303458690643,0.5237852334976196
367,3834828,3834829,-0.4201318919658661,-0.6188069581985474,0.9888750910758972,-0.7602850794792175,0.9317666292190552,-2.1863906383514404,-0.5489725470542908,-0.8339582681655884,-0.2969851493835449,-0.3678596615791321,0.33930760622024536,0.5026668310165405
368,3834838,3834839,-0.2755444347858429,-0.23852980136871338,0.958456814289093,-1.637820839881897,-1.2291730642318726,-2.5547938346862793,-0.5444727540016174,-0.8384580612182617,-0.3044847846031189,-0.2379407286643982,0.16169585287570953,0.47835925221443176
369,3834848,3834849,-0.2969595193862915,-0.29589569568634033,1.0110682249069214,-4.725113868713379,-2.7948081493377686,-2.70955228805542,-0.5534723401069641,-0.8204589486122131,-0.2924853563308716,-0.2907615900039673,0.16995570063591003,0.45169585943222046
370,3834858,3834859,-0.453008770942688,-0.4235052764415741,0.981544554233551,-5.334743976593018,-2.755622148513794,-3.069643497467041,-0.5474725961685181,-0.8414579033851624,-0.29848507046699524,-0.3959328532218933,0.14573048055171967,0.41952386498451233
371,3834868,3834869,-0.20854385197162628,-0.3502993583679199,1.0005427598953247,-5.947798728942871,-2.7516846656799316,-3.543609857559204,-0.5309734344482422,-0.8279585838317871,-0.3029848337173462,-0.3520548343658447,0.03296751528978348,0.38583412766456604
372,3834878,3834879,-0.3276543915271759,-0.8777279257774353,0.9161960482597351,-6.007185935974121,-1.6200588941574097,-3.1925787925720215,-0.5489725470542908,-0.8279585838317871,-0.29098543524742126,-0.3116021454334259,-0.07989698648452759,0.3470945358276367
373,3834888,3834889,-0.5241000056266785,-0.5104374885559082,0.8836629986763,-2.832186698913574,-4.034274101257324,-3.437485933303833,-0.5504724383354187,-0.8294585347175598,-0.2924853563308716,-0.19886291027069092,-0.16313351690769196,0.31478846073150635
374,3834898,3834899,-0.26311182975769043,-0.005705317948013544,0.9693019986152649,-1.991179347038269,-3.7774999141693115,-3.2270801067352295,-0.5519723892211914,-0.8219588994979858,-0.2969851493835449,-0.14576570689678192,-0.14858406782150269,0.2844623327255249
375,3834908,3834909,-0.3232162594795227,-0.03452283889055252,0.9861591458320618,-0.26136043667793274,-2.4360554218292236,-3.0075554847717285,-0.5414729118347168,-0.8414579033851624,-0.2954852283000946,-0.16045410931110382,-0.17764347791671753,0.2501172721385956
376,3834918,3834919,-0.44497010111808777,-0.14497339725494385,0.9397222399711609,1.8152875900268555,-4.586268901824951,-3.0000264644622803,-0.5459727048873901,-0.8429578542709351,-0.29098543524742126,-0.11118423193693161,-0.17153723537921906,0.22085534036159515
377,3834928,3834929,-0.6412710547447205,-0.016635525971651077,0.9512407779693604,1.4271003007888794,1.4634217023849487,-3.168644428253174,-0.5459727048873901,-0.836958110332489,-0.29098543524742126,-0.09156645089387894,-0.15881460905075073,0.18854957818984985
378,3834938,3834939,-0.8212127685546875,0.0189263466745615,0.9920756220817566,0.2719952464103699,2.39546799659729,-3.5898618698120117,-0.5489725470542908,-0.8399580121040344,-0.2969851493835449,-0.11498457193374634,-0.14101536571979523,0.15412425994873047
379,3834948,3834949,-0.6085127592086792,-0.7030007243156433,1.0375986099243164,-0.96823650598526,-2.0175511837005615,-3.2647507190704346,-0.5309734344482422,-0.8429578542709351,-0.3029848337173462,-0.12986992299556732,-0.14876465499401093,0.12032146006822586
380,3834958,3834959,-0.28260913491249084,-0.4091532230377197,1.027479887008667,0.3783024847507477,2.6742942333221436,-3.2057385444641113,-0.5519723892211914,-0.851957380771637,-0.29998499155044556,-0.12438315153121948,-0.1450265496969223,0.0839676633477211
381,3834968,3834969,-0.48393338918685913,-0.34064435958862305,0.9963545203208923,-0.5427793860435486,1.4434293508529663,-3.6139986515045166,-0.5429728627204895,-0.8429578542709351,-0.3029848337173462,-0.22174058854579926,-0.14440228044986725,0.053242508322000504
382,3834978,3834979,-0.9135838747024536,-0.2979145646095276,0.8985252976417542,-0.32554879784584045,1.0769702196121216,-4.054646015167236,-0.5354732275009155,-0.8414579033851624,-0.30748462677001953,-0.22955285012722015,-0.14593125879764557,0.017267350107431412
383,3834988,3834989,-0.6825321316719055,-0.5251122713088989,0.9683806300163269,-0.2800542712211609,0.5442661046981812,-3.313126564025879,-0.5264736413955688,-0.8474575877189636,-0.30748462677001953,-0.16376477479934692,-0.14730523526668549,-0.02088288590312004
384,3834998,3834999,-0.1686425358057022,-0.18864677846431732,1.0240540504455566,0.3106648027896881,0.12245754152536392,-3.2473323345184326,-0.5489725470542908,-0.8459576964378357,-0.30898454785346985,-0.16267390549182892,-0.14754197001457214,-0.054030273109674454
385,3835008,3835009,0.005779902450740337,-0.07453758269548416,1.0159449577331543,0.25073617696762085,-0.06836956739425659,-2.5319292545318604,-0.5324733853340149,-0.8474575877189636,-0.3014849126338959,-0.16012364625930786,-0.14217102527618408,-0.08377211540937424
386,3835018,3835019,-0.09901891648769379,-0.3040546178817749,1.0123437643051147,-0.28935256600379944,-0.6869553923606873,-3.059586524963379,-0.5444727540016174,-0.8384580612182617,-0.30748462677001953,-0.1380261778831482,-0.1347344070672989,-0.11044032871723175
387,3835028,3835029,-0.11393312364816666,-0.2012762427330017,0.9911060333251953,0.984295666217804,-0.8200746774673462,-2.966747283935547,-0.5429728627204895,-0.8459576964378357,-0.29998499155044556,-0.11745651811361313,-0.13697074353694916,-0.14130501449108124
388,3835038,3835039,-0.0696941614151001,-0.09648819267749786,1.0261638164520264,-0.35137316584587097,-1.3555282354354858,-2.8203887939453125,-0.5354732275009155,-0.844457745552063,-0.30748462677001953,-0.08769093453884125,-0.12514789402484894,-0.1676604002714157
389,3835048,3835049,-0.06445588171482086,-0.12228351831436157,1.0315163135528564,0.47787871956825256,-1.978661298751831,-2.9950342178344727,-0.5309734344482422,-0.8399580121040344,-0.3029848337173462,-0.05752803385257721,-0.11816292256116867,-0.19726258516311646
390,3835058,3835059,-0.04691087827086449,-0.10838146507740021,1.092641830444336,-1.2992630004882812,-2.5102803707122803,-1.6289767026901245,-0.5429728627204895,-0.8279585838317871,-0.2939853072166443,-0.019759973511099815,-0.12562857568264008,-0.21897202730178833
391,3835068,3835069,0.04948782920837402,-0.13128125667572021,1.0446065664291382,-0.044484950602054596,-2.844472885131836,-3.0808017253875732,-0.5294735431671143,-0.8324583768844604,-0.30748462677001953,0.004078339319676161,-0.13810455799102783,-0.2425505369901657
392,3835078,3835079,0.09097766876220703,-0.015100957825779915,1.0813994407653809,-0.9303826093673706,-0.505930483341217,-1.692696213722229,-0.5489725470542908,-0.8219588994979858,-0.3029848337173462,0.03501751646399498,-0.14402292668819427,-0.2695052921772003
393,3835088,3835089,0.07310803979635239,0.09536188840866089,1.0349924564361572,0.4175553023815155,3.042099714279175,-2.8144876956939697,-0.5474725961685181,-0.8354582190513611,-0.2924853563308716,0.02344188652932644,-0.14848759770393372,-0.2938181757926941
394,3835098,3835099,-0.1989947408437729,-0.17265334725379944,1.001541256904602,0.19894929230213165,-2.7017977237701416,-1.9021406173706055,-0.5474725961685181,-0.8354582190513611,-0.2924853563308716,-0.0458502359688282,-0.1438530534505844,-0.3167952299118042
395,3835108,3835109,-0.4058015048503876,-0.19301213324069977,1.0121732950210571,-1.8544360399246216,3.24607253074646,-2.429189920425415,-0.5474725961685181,-0.8354582190513611,-0.2924853563308716,-0.023987557739019394,-0.15044094622135162,-0.33718329668045044
396,3835118,3835119,-0.28439638018608093,-0.1113358736038208,1.0504627227783203,2.6512367725372314,-3.334418773651123,-0.587993323802948,-0.5399730205535889,-0.8219588994979858,-0.2939853072166443,-0.008493899367749691,-0.15006141364574432,-0.3561154305934906
397,3835128,3835129,-0.18876346945762634,-0.3007320463657379,0.9305682182312012,5.555400848388672,0.08518052101135254,-0.7740098834037781,-0.5459727048873901,-0.8339582681655884,-0.28198590874671936,0.02562495321035385,-0.09554478526115417,-0.36519283056259155
398,3835138,3835139,0.06775016337633133,-0.2951219975948334,0.9821327328681946,3.461136817932129,-1.3667443990707397,-0.5377533435821533,-0.5459727048873901,-0.8309584259986877,-0.30898454785346985,0.04089884087443352,-0.02609303779900074,-0.373095840215683
399,3835148,3835149,-0.03112006187438965,-0.25438806414604187,1.0079243183135986,4.153573036193848,-0.5956007838249207,-0.6403942704200745,-0.5579720735549927,-0.8309584259986877,-0.28498575091362,-0.016670450568199158,0.037417661398649216,-0.3778039515018463
400,3835158,3835159,0.035568129271268845,-0.016361627727746964,1.0136528015136719,3.6324403285980225,1.1922028064727783,-1.592523217201233,-0.5489725470542908,-0.8429578542709351,-0.2969851493835449,-0.02399645559489727,0.027532270178198814,-0.3894122242927551
401,3835168,3835169,-0.29060402512550354,0.00790315866470337,1.0631892681121826,0.42524752020835876,2.8057329654693604,-1.1882059574127197,-0.5444727540016174,-0.8474575877189636,-0.2954852283000946,-0.04506154730916023,-0.1434013843536377,-0.40303853154182434
402,3835178,3835179,-0.655524730682373,-0.2928466200828552,1.0398979187011719,0.7520075440406799,0.40374672412872314,-0.7579434514045715,-0.5489725470542908,-0.836958110332489,-0.28798559308052063,-0.06642187386751175,0.09207545220851898,-0.41394931077957153
403,3835188,3835189,-0.2637022137641907,-0.1393560916185379,1.037146806716919,0.9255309700965881,-0.2854136824607849,0.13575923442840576,-0.5534723401069641,-0.8354582190513611,-0.3044847846031189,-0.067005455493927,-0.03239336609840393,-0.41915789246559143
404,3835198,3835199,-0.04395361617207527,0.09859763085842133,1.0254517793655396,-0.6550362706184387,2.882298469543457,-1.2975530624389648,-0.5489725470542908,-0.8309584259986877,-0.29998499155044556,-0.07807809114456177,-0.026380689814686775,-0.4251483082771301
405,3835208,3835209,0.032060567289590836,-0.06823276728391647,0.9718995094299316,0.1206081435084343,-2.3481149673461914,-0.2006339281797409,-0.5429728627204895,-0.8279585838317871,-0.2969851493835449,-0.07669409364461899,-0.09421005100011826,-0.431473046541214
406,3835218,3835219,-0.012095412239432335,-0.24000154435634613,1.0125370025634766,1.5666612386703491,-3.3779091835021973,-0.002948460169136524,-0.5579720735549927,-0.8339582681655884,-0.28198590874671936,-0.03605587035417557,-0.07342886924743652,-0.4343724250793457
407,3835228,3835229,-0.03776731714606285,0.005334682762622833,0.9901293516159058,1.9592827558517456,-2.9384076595306396,-0.25702401995658875,-0.5489725470542908,-0.836958110332489,-0.28798559308052063,0.007865137420594692,-0.04186425730586052,-0.4373815953731537
408,3835238,3835239,-0.08545897901058197,-0.10918453335762024,0.996865451335907,2.925225257873535,-1.0259774923324585,-0.26527756452560425,-0.5714713931083679,-0.8324583768844604,-0.3014849126338959,0.04417519271373749,0.002291433047503233,-0.44090011715888977
409,3835248,3835249,-0.6241809129714966,-0.2935396134853363,0.9951425790786743,5.300329685211182,-2.9790987968444824,-0.5642004013061523,-0.5414729118347168,-0.8414579033851624,-0.3044847846031189,0.07445554435253143,0.07692089676856995,-0.44425714015960693
410,3835258,3835259,-0.42377740144729614,-0.13633598387241364,0.996247410774231,4.814148902893066,-3.2865002155303955,0.42536717653274536,-0.5429728627204895,-0.8399580121040344,-0.29098543524742126,0.11847327649593353,0.0853961780667305,-0.4474911093711853
411,3835268,3835269,-0.24757246673107147,0.025955548509955406,0.9831148386001587,3.1812500953674316,-1.8046876192092896,0.6973718404769897,-0.5399730205535889,-0.8399580121040344,-0.29998499155044556,0.1390981525182724,0.15827275812625885,-0.4435156285762787
412,3835278,3835279,-0.15531054139137268,-0.42210298776626587,1.0191701650619507,0.9881048202514648,-0.9796053767204285,0.8899722695350647,-0.5564721822738647,-0.844457745552063,-0.3014849126338959,0.15073677897453308,0.2077370136976242,-0.4365246891975403
413,3835288,3835289,-0.8207259774208069,-0.4473603069782257,0.9988299012184143,0.03454248979687691,5.534188270568848,0.02449401095509529,-0.5489725470542908,-0.8429578542709351,-0.2969851493835449,0.11995797604322433,0.15595215559005737,-0.4294978082180023
414,3835298,3835299,-0.9221213459968567,-0.5885450839996338,0.9277594685554504,-1.7309077978134155,1.0138088464736938,1.2425880432128906,-0.5414729118347168,-0.8384580612182617,-0.3044847846031189,0.06964872032403946,0.15539422631263733,-0.4236055910587311
415,3835308,3835309,-0.3098076581954956,-0.3032751977443695,0.9946461915969849,-0.6921371221542358,-0.00512115191668272,1.4781945943832397,-0.5369731187820435,-0.851957380771637,-0.29998499155044556,0.050002217292785645,0.13942654430866241,-0.4104709327220917
416,3835318,3835319,-0.5248242020606995,-0.472140371799469,1.0038833618164062,-0.5966469645500183,1.0621216297149658,1.0207030773162842,-0.5429728627204895,-0.8339582681655884,-0.3149842321872711,0.032214853912591934,0.13705240190029144,-0.39720419049263
417,3835328,3835329,-0.4472828507423401,-0.6702312231063843,1.0440012216567993,0.25363653898239136,1.292352557182312,1.1265703439712524,-0.5384730696678162,-0.844457745552063,-0.31048446893692017,0.009391997940838337,0.14505191147327423,-0.38500261306762695
418,3835338,3835339,-0.15791969001293182,-0.18147815763950348,1.0120481252670288,0.9235537648200989,2.7878267765045166,1.1725916862487793,-0.5309734344482422,-0.8219588994979858,-0.3059847056865692,-0.029212407767772675,0.16513609886169434,-0.3767341077327728
419,3835348,3835349,-0.13276299834251404,-0.01273325178772211,1.0402181148529053,2.4922173023223877,1.8174045085906982,0.5642125606536865,-0.5399730205535889,-0.8549572229385376,-0.3029848337173462,-0.0643342062830925,0.19657844305038452,-0.36700356006622314
420,3835358,3835359,-0.3239595293998718,-0.18966175615787506,1.0248820781707764,2.8193655014038086,1.8842412233352661,0.9900208115577698,-0.5474725961685181,-0.8534573316574097,-0.3014849126338959,-0.09512148797512054,0.31474050879478455,-0.3605707883834839
421,3835368,3835369,-0.33799344301223755,-0.24476447701454163,0.9733954071998596,2.3656089305877686,-1.4499187469482422,1.7142775058746338,-0.5489725470542908,-0.836958110332489,-0.29998499155044556,-0.10590222477912903,0.3500124514102936,-0.34769636392593384
422,3835378,3835379,-0.25433748960494995,-0.2473607212305069,0.9976008534431458,-0.4506097733974457,0.5003846883773804,1.131788730621338,-0.5504724383354187,-0.844457745552063,-0.29848507046699524,-0.10876941680908203,0.35751816630363464,-0.33623069524765015
423,3835388,3835389,-0.2714696228504181,-0.15248647332191467,1.022233009338379,-2.811720848083496,-0.2504107356071472,0.8091110587120056,-0.5429728627204895,-0.8459576964378357,-0.30898454785346985,-0.10848671197891235,0.3359870910644531,-0.32480672001838684
424,3835398,3835399,-0.08201411366462708,-0.05900847539305687,0.9945889711380005,-4.541899681091309,-1.8230633735656738,0.761444628238678,-0.5399730205535889,-0.8489575386047363,-0.30898454785346985,-0.08871442079544067,0.2725776433944702,-0.31645575165748596
425,3835408,3835409,-0.07879623770713806,-0.06523721665143967,1.0106680393218994,-5.462273597717285,-2.2471253871917725,1.4124144315719604,-0.5369731187820435,-0.8339582681655884,-0.2969851493835449,0.00918163824826479,0.19357845187187195,-0.3033941686153412
426,3835418,3835419,-0.05234067514538765,-0.18227121233940125,1.0027425289154053,-5.246740341186523,-2.0572571754455566,1.5788782835006714,-0.5639718174934387,-0.8399580121040344,-0.2969851493835449,0.03721252456307411,0.10140982270240784,-0.2875436246395111
427,3835428,3835429,-0.105312280356884,-0.07465459406375885,1.024524211883545,-3.4559054374694824,-1.9352946281433105,1.1716794967651367,-0.5579720735549927,-0.8339582681655884,-0.29098543524742126,0.06539468467235565,0.02223612740635872,-0.27354493737220764
428,3835438,3835439,-0.6342698931694031,-0.24202337861061096,0.9984655976295471,-1.4228800535202026,-1.5568422079086304,0.648365318775177,-0.5399730205535889,-0.8399580121040344,-0.2969851493835449,0.08576123416423798,0.04180145636200905,-0.2640174627304077
429,3835448,3835449,-0.16479317843914032,-0.15176060795783997,1.0196362733840942,-0.7320355772972107,-0.8112239837646484,1.0732053518295288,-0.5474725961685181,-0.8324583768844604,-0.3014849126338959,0.092549167573452,0.020482169464230537,-0.2551994025707245
430,3835458,3835459,-0.03888099268078804,-0.04658305644989014,1.0218666791915894,1.4666897058486938,-0.7495614290237427,1.5110087394714355,-0.5609719157218933,-0.8309584259986877,-0.29998499155044556,0.09210380911827087,0.02182043343782425,-0.2426915168762207
431,3835468,3835469,-0.3819970190525055,-0.03722627833485603,0.9941704273223877,2.457176923751831,-0.4795987010002136,1.529184103012085,-0.5474725961685181,-0.8234587907791138,-0.2954852283000946,0.0921713188290596,0.05452366918325424,-0.2281995415687561
432,3835478,3835479,-0.8574955463409424,-0.3269921839237213,1.0109564065933228,4.065367221832275,-1.7556756734848022,2.429774045944214,-0.5489725470542908,-0.8309584259986877,-0.3119843900203705,0.08860576152801514,0.09952399134635925,-0.21059705317020416
433,3835488,3835489,-1.0494608879089355,-0.7475137114524841,0.9938489198684692,3.0430846214294434,3.8801238536834717,1.520283579826355,-0.5534723401069641,-0.8354582190513611,-0.2864856719970703,0.08028542250394821,0.15223807096481323,-0.19108258187770844
434,3835498,3835499,-0.5830613970756531,-0.7445670962333679,1.0011451244354248,3.5284059047698975,-3.8384718894958496,2.346754789352417,-0.5489725470542908,-0.8309584259986877,-0.29098543524742126,0.0846434012055397,0.19551092386245728,-0.17184202373027802
435,3835508,3835509,-0.23700881004333496,-0.4374472200870514,1.0293114185333252,0.21566961705684662,-1.432158350944519,3.155560255050659,-0.5534723401069641,-0.8354582190513611,-0.29848507046699524,0.1854569911956787,0.16062584519386292,-0.14350073039531708
436,3835518,3835519,-0.2827160954475403,-0.35553404688835144,1.0585813522338867,0.3324035108089447,-1.305162787437439,2.7279348373413086,-0.5429728627204895,-0.8219588994979858,-0.3029848337173462,0.18394558131694794,0.1631014198064804,-0.11568962782621384
437,3835528,3835529,-0.24008484184741974,-0.15165367722511292,1.0287880897521973,-0.6424621939659119,-0.2500547766685486,2.9795374870300293,-0.5519723892211914,-0.8219588994979858,-0.29998499155044556,0.19068500399589539,0.1595820188522339,-0.08875308930873871
438,3835538,3835539,-0.6704803705215454,-0.5284827947616577,1.073746681213379,-1.5740725994110107,1.3541549444198608,2.9271106719970703,-0.5474725961685181,-0.8264586329460144,-0.29848507046699524,0.17087475955486298,0.1488867551088333,-0.05767822265625
439,3835548,3835549,-0.26245859265327454,-0.8511859178543091,1.0227971076965332,-1.628106713294983,2.8212413787841797,2.8052265644073486,-0.5579720735549927,-0.8279585838317871,-0.28798559308052063,0.19255149364471436,0.1164320558309555,-0.030561799183487892
440,3835558,3835559,-0.1237938180565834,-0.3978101313114166,0.9991639852523804,-1.2429211139678955,3.9810383319854736,3.094089984893799,-0.5429728627204895,-0.8249587416648865,-0.29098543524742126,0.12084253877401352,0.1663181036710739,-0.003865212434902787
441,3835568,3835569,-0.12296786904335022,0.0547034926712513,1.0592118501663208,-0.4635464549064636,5.947312355041504,2.30666446685791,-0.5429728627204895,-0.8279585838317871,-0.29098543524742126,0.1742025464773178,0.14234468340873718,0.025375163182616234
442,3835578,3835579,-0.08378832787275314,0.040056146681308746,0.998803973197937,0.5219751000404358,4.257761478424072,1.9260587692260742,-0.5594720244407654,-0.8324583768844604,-0.28948551416397095,0.07087205350399017,0.13999497890472412,0.04654254764318466
443,3835588,3835589,-0.5093140602111816,-0.19026689231395721,1.0781501531600952,-0.7105420827865601,5.204859256744385,2.3505585193634033,-0.554972231388092,-0.8189590573310852,-0.28798559308052063,-0.01983780413866043,0.1345437914133072,0.06744661927223206
444,3835598,3835599,-0.16900822520256042,-0.03997938707470894,0.9871289730072021,-0.002969764405861497,4.313458442687988,1.711849570274353,-0.554972231388092,-0.8129593133926392,-0.28198590874671936,-0.04141007363796234,0.1264614313840866,0.08835228532552719
445,3835608,3835609,-0.24521984159946442,-0.19315463304519653,0.9846288561820984,-0.25108134746551514,3.0486786365509033,2.003833055496216,-0.5534723401069641,-0.8264586329460144,-0.28048595786094666,-0.12397918850183487,0.12064629048109055,0.10536692291498184
446,3835618,3835619,-0.17985126376152039,-0.04629497602581978,0.9745290279388428,-1.8089436292648315,2.5435307025909424,1.7449411153793335,-0.5459727048873901,-0.8069596290588379,-0.28798559308052063,-0.11190889775753021,0.10977987200021744,0.12299735844135284
447,3835628,3835629,-0.538796067237854,-0.06905803829431534,0.9966004490852356,-2.848179817199707,0.8491831421852112,1.6390838623046875,-0.5609719157218933,-0.8159592151641846,-0.28198590874671936,-0.16384950280189514,0.0006972692790441215,0.1414487063884735
448,3835638,3835639,-0.7779597640037537,-0.054070137441158295,0.9663955569267273,-3.870224714279175,-1.4635578393936157,1.0723166465759277,-0.5534723401069641,-0.8084595799446106,-0.2864856719970703,-0.18495692312717438,0.015148291364312172,0.1530144214630127
449,3835648,3835649,-0.42698994278907776,-0.22686077654361725,0.9824706315994263,-2.5408172607421875,-2.9109959602355957,0.802532434463501,-0.5474725961685181,-0.8264586329460144,-0.2924853563308716,-0.16944000124931335,-0.039167169481515884,0.16257716715335846
450,3835658,3835659,-0.22134904563426971,-0.41451728343963623,0.9933286309242249,0.91715008020401,-4.225841999053955,1.4505228996276855,-0.5384730696678162,-0.8264586329460144,-0.2834858298301697,-0.14371824264526367,-0.06896480172872543,0.17175035178661346
451,3835668,3835669,-0.10577481985092163,-0.10312964767217636,1.0179919004440308,2.557756185531616,-3.3592264652252197,2.153367519378662,-0.5534723401069641,-0.8354582190513611,-0.2924853563308716,-0.10021337866783142,-0.05163855850696564,0.18847088515758514
452,3835678,3835679,-0.8365024328231812,-0.07068415731191635,0.9896098971366882,4.427260398864746,-2.4814648628234863,2.1483047008514404,-0.5474725961685181,-0.8294585347175598,-0.3014849126338959,-0.06787943094968796,0.0023482146207243204,0.21048864722251892
453,3835688,3835689,-0.9405316114425659,-0.24399371445178986,1.002139687538147,5.253645896911621,-0.8168639540672302,2.3986876010894775,-0.5369731187820435,-0.836958110332489,-0.29098543524742126,-0.06115527078509331,0.07801660895347595,0.23114457726478577
454,3835698,3835699,-0.4168756604194641,-0.21583303809165955,1.0083156824111938,5.29831075668335,1.0339921712875366,1.7460134029388428,-0.5489725470542908,-0.8339582681655884,-0.2939853072166443,-0.08168039470911026,0.15519969165325165,0.2510923743247986
455,3835708,3835709,-0.15059342980384827,-0.3130497932434082,0.9844273924827576,4.621307373046875,2.5689311027526855,1.5745664834976196,-0.5444727540016174,-0.8324583768844604,-0.3044847846031189,0.011501696892082691,0.22106917202472687,0.2676551938056946
456,3835718,3835719,-0.1873408854007721,-0.3306315541267395,0.9840494394302368,2.721926212310791,3.3344409465789795,1.8508974313735962,-0.5519723892211914,-0.8279585838317871,-0.2969851493835449,-0.0635090246796608,0.21458278596401215,0.2856769859790802
457,3835728,3835729,-0.4532717764377594,-0.05921987444162369,1.0118811130523682,-0.49081653356552124,5.1468505859375,1.302034616470337,-0.5459727048873901,-0.8249587416648865,-0.29998499155044556,-0.14852529764175415,0.24099573493003845,0.30255648493766785
458,3835738,3835739,-0.3185734748840332,-0.6755422949790955,1.017101764678955,-1.8785947561264038,3.1450583934783936,1.9593254327774048,-0.5474725961685181,-0.8384580612182617,-0.29848507046699524,-0.0933913066983223,0.22463712096214294,0.320048987865448
459,3835748,3835749,-0.13380904495716095,-0.6967552304267883,0.9645905494689941,-4.688147068023682,4.100193500518799,1.138399600982666,-0.5399730205535889,-0.836958110332489,-0.2969851493835449,-0.18330517411231995,0.17059330642223358,0.335243821144104
460,3835758,3835759,-0.3526783883571625,-0.14435268938541412,1.0076698064804077,-4.925776481628418,3.648695468902588,0.8992735147476196,-0.5519723892211914,-0.836958110332489,-0.29998499155044556,-0.13036949932575226,0.08631081879138947,0.3467136025428772
461,3835768,3835769,-0.43583568930625916,0.09917837381362915,1.0180282592773438,-3.9249980449676514,1.7029515504837036,2.1703596115112305,-0.5504724383354187,-0.8294585347175598,-0.2954852283000946,-0.20220549404621124,0.014513988979160786,0.36311423778533936
462,3835778,3835779,-0.06760450452566147,0.002593615557998419,1.0029711723327637,-3.51546573638916,3.3852882385253906,0.8805038928985596,-0.5459727048873901,-0.8279585838317871,-0.29998499155044556,-0.06387431919574738,-0.04597722366452217,0.37893956899642944
463,3835788,3835789,0.01939443312585354,0.05998193472623825,0.9683727622032166,-1.5691094398498535,2.0683822631835938,1.087907314300537,-0.5474725961685181,-0.8294585347175598,-0.28948551416397095,-0.151483952999115,-0.09145256131887436,0.3890351355075836
464,3835798,3835799,-0.07579869031906128,-0.10129090398550034,0.9886195063591003,-0.4313810467720032,2.954254150390625,0.6217580437660217,-0.5414729118347168,-0.850457489490509,-0.3014849126338959,-0.164529949426651,-0.10996030271053314,0.39685311913490295
465,3835808,3835809,-0.2567765712738037,-0.06863983720541,1.0183701515197754,1.1562644243240356,4.165557384490967,0.6424508094787598,-0.5369731187820435,-0.8399580121040344,-0.28798559308052063,-0.11839848011732101,-0.09215492010116577,0.40361499786376953
