,timestamp_start,timestamp_end,acc.x,acc.y,acc.z,gyro.x,gyro.y,gyro.z,mag.x,mag.y,mag.z,stabilizer.pitch,stabilizer.roll,stabilizer.yaw
0,3593807,3593809,-0.10677912831306458,-0.4003658592700958,0.9817839860916138,26.016759872436523,6.28674840927124,2.581996202468872,-0.5384730696678162,-0.844457745552063,-0.2924853563308716,0.4891843795776367,1.283613681793213,-1.0442628860473633
1,3593817,3593819,-0.2557131052017212,-0.3568112254142761,0.9896538853645325,14.457016944885254,12.151972770690918,2.579923391342163,-0.5459727048873901,-0.8549572229385376,-0.3029848337173462,0.26216280460357666,1.6452957391738892,-1.0311675071716309
2,3593827,3593829,-0.05689241364598274,-0.058654043823480606,0.9958571791648865,1.5514216423034668,14.411232948303223,2.4688162803649902,-0.5594720244407654,-0.8594570159912109,-0.3014849126338959,-0.011668394319713116,1.7980213165283203,-1.0153347253799438
3,3593837,3593839,-0.018988564610481262,-0.3651927709579468,0.9914858341217041,-15.996111869812012,13.947029113769531,1.9974427223205566,-0.5429728627204895,-0.8609569072723389,-0.2939853072166443,-0.22315342724323273,1.705925464630127,-0.9901490807533264
4,3593847,3593849,-0.5125748515129089,-0.34293898940086365,1.0987908840179443,-28.45807456970215,11.092381477355957,2.102402448654175,-0.5474725961685181,-0.8564571738243103,-0.31048446893692017,-0.3376961350440979,1.0471025705337524,-0.9351429343223572
5,3593857,3593859,-0.24975810945034027,-0.06789670884609222,1.0850908756256104,-35.9294548034668,5.210885047912598,1.2330795526504517,-0.5489725470542908,-0.8579570651054382,-0.3029848337173462,-0.42985641956329346,0.7880683541297913,-0.9124016165733337
6,3593867,3593869,-0.0014579945709556341,0.0430467315018177,1.0210810899734497,-35.65468978881836,-0.9559241533279419,1.7994511127471924,-0.5339732766151428,-0.8429578542709351,-0.2939853072166443,-0.5355080962181091,0.37279561161994934,-0.9082626104354858
7,3593877,3593879,-0.020788423717021942,-0.12792512774467468,1.034652590751648,-26.936344146728516,-5.987442493438721,1.6598848104476929,-0.5474725961685181,-0.8474575877189636,-0.28948551416397095,-0.477458119392395,-0.1390528529882431,-0.8809602856636047
8,3593887,3593889,0.09056048095226288,-0.04641462862491608,0.9991225600242615,-14.639914512634277,-9.30225658416748,1.4817349910736084,-0.5429728627204895,-0.851957380771637,-0.29098543524742126,-0.3406330347061157,-0.4716363251209259,-0.8534813523292542
9,3593897,3593899,-0.07037485390901566,-0.1623397171497345,1.0249097347259521,0.2083890438079834,-10.414292335510254,1.8013637065887451,-0.5369731187820435,-0.836958110332489,-0.30898454785346985,-0.29888930916786194,-0.6166527271270752,-0.8473846912384033
10,3593907,3593909,-0.03285274654626846,0.006574780680239201,1.0156534910202026,16.43155860900879,-10.98607063293457,1.8212138414382935,-0.5429728627204895,-0.8489575386047363,-0.30898454785346985,0.1389409899711609,-0.46766167879104614,-0.792723536491394
11,3593917,3593919,-0.21552500128746033,-0.015743311494588852,1.041529893875122,26.89999771118164,-8.708732604980469,0.8027049899101257,-0.5459727048873901,-0.851957380771637,-0.3029848337173462,0.29444971680641174,-0.11489377915859222,-0.7721071243286133
12,3593927,3593929,-0.505646824836731,-0.3799068033695221,1.0386189222335815,32.45597839355469,-4.841876029968262,0.6663910746574402,-0.5474725961685181,-0.8594570159912109,-0.30748462677001953,0.33174633979797363,0.3749658465385437,-0.7706145644187927
13,3593937,3593939,-0.2833092510700226,-0.10978613048791885,1.0374277830123901,30.954607009887695,0.19770947098731995,0.7742039561271667,-0.5444727540016174,-0.8474575877189636,-0.3044847846031189,-0.16521546244621277,1.8800052404403687,-0.810829222202301
14,3593947,3593949,-0.14711305499076843,-0.2520311772823334,1.0112038850784302,22.136280059814453,3.2492425441741943,0.7512794733047485,-0.5264736413955688,-0.8654567003250122,-0.31048446893692017,0.13561905920505524,1.8717288970947266,-0.7803328037261963
15,3593957,3593959,-0.25945061445236206,-0.16541625559329987,1.0356042385101318,3.9375858306884766,4.693928241729736,0.12313913553953171,-0.5504724383354187,-0.8474575877189636,-0.3044847846031189,0.019370386376976967,2.0322532653808594,-0.7834365367889404
16,3593967,3593969,-0.17928197979927063,-0.013775632716715336,1.0340262651443481,-17.376916885375977,3.5237619876861572,-1.206309199333191,-0.5459727048873901,-0.8489575386047363,-0.29098543524742126,0.3133922517299652,1.7908985614776611,-0.7355655431747437
17,3593977,3593979,-0.05910243093967438,-0.031990181654691696,0.9821770787239075,-37.11506652832031,1.7832777500152588,-1.4219202995300293,-0.5369731187820435,-0.8399580121040344,-0.29998499155044556,0.2994825839996338,1.51209557056427,-0.7424537539482117
18,3593987,3593989,-0.27941346168518066,-0.12863397598266602,1.0194594860076904,-50.748573303222656,5.247134685516357,-1.6127209663391113,-0.5459727048873901,-0.8309584259986877,-0.2759861946105957,0.28163814544677734,0.7920688986778259,-0.7402747869491577
19,3593997,3593999,-0.29110854864120483,-0.19575177133083344,1.04533052444458,-55.159873962402344,5.06060266494751,-1.16976797580719,-0.5414729118347168,-0.8204589486122131,-0.3014849126338959,0.18893371522426605,-0.26892057061195374,-0.739098310470581
20,3594007,3594009,-0.05660907179117203,-0.07223089784383774,1.029350757598877,-48.88616180419922,4.86381721496582,-1.593926191329956,-0.5384730696678162,-0.8174591064453125,-0.2954852283000946,0.09810321778059006,-0.5705521106719971,-0.7715309858322144
21,3594017,3594019,-0.012567841447889805,0.0554201677441597,1.0150121450424194,-33.148155212402344,5.123887538909912,-1.1308164596557617,-0.5474725961685181,-0.8174591064453125,-0.2834858298301697,0.0034294298384338617,-1.5439202785491943,-0.7688993215560913
22,3594027,3594029,-0.3750338852405548,-0.27553027868270874,1.1066265106201172,-11.712890625,4.274564266204834,-0.8897224068641663,-0.5519723892211914,-0.8069596290588379,-0.27898603677749634,0.2931218147277832,-0.9187577366828918,-0.7874746918678284
23,3594037,3594039,-0.3134864270687103,-0.1515345722436905,0.9578794836997986,14.284988403320312,4.496053695678711,-0.021761616691946983,-0.554972231388092,-0.8309584259986877,-0.29098543524742126,0.25195127725601196,-0.9183619022369385,-0.7992889881134033
24,3594047,3594049,-0.21317420899868011,-0.034226659685373306,1.054192304611206,29.20931625366211,7.906009197235107,-0.22517575323581696,-0.5504724383354187,-0.8144592642784119,-0.2744862735271454,0.306284636259079,-0.8422107100486755,-0.788786768913269
25,3594057,3594059,-0.013896304182708263,-0.045757051557302475,1.009930968284607,37.8115348815918,8.9921236038208,-0.3959033191204071,-0.5594720244407654,-0.80545973777771,-0.2834858298301697,0.16548308730125427,-0.4457551836967468,-0.7969094514846802
26,3594067,3594069,-0.3332907557487488,-0.1944958120584488,0.9988121390342712,37.77360534667969,7.6778340339660645,-1.4991562366485596,-0.5639718174934387,-0.8219588994979858,-0.28498575091362,0.050827428698539734,-0.1505243331193924,-0.7974179983139038
27,3594077,3594079,-0.24699096381664276,-0.19431914389133453,1.001815676689148,29.37189483642578,7.627686500549316,-1.1511106491088867,-0.562471866607666,-0.8084595799446106,-0.2744862735271454,-0.12367917597293854,0.10253284871578217,-0.8012224435806274
28,3594087,3594089,-0.07241769880056381,-0.047937143594026566,0.9739136695861816,15.448137283325195,7.374363899230957,-1.1906204223632812,-0.5639718174934387,-0.8159592151641846,-0.2759861946105957,-0.025164414197206497,0.34906139969825745,-0.8153910040855408
29,3594097,3594099,0.012603040784597397,-0.03739606589078903,0.9763540625572205,0.9021785259246826,5.64935302734375,-0.7446198463439941,-0.5669716596603394,-0.8129593133926392,-0.28498575091362,0.07161504775285721,0.377395898103714,-0.8246097564697266
30,3594107,3594109,-0.044772543013095856,0.04331858828663826,1.0114871263504028,-11.874006271362305,5.572584629058838,-1.0838732719421387,-0.562471866607666,-0.80545973777771,-0.28948551416397095,0.027776939794421196,0.2618881165981293,-0.8286443948745728
31,3594117,3594119,-0.4762464165687561,-0.06629721820354462,0.9843930006027222,-20.384830474853516,7.884846210479736,-0.8101341724395752,-0.56997150182724,-0.8069596290588379,-0.28198590874671936,-0.02508169785141945,-0.037471503019332886,-0.8305789232254028
32,3594127,3594129,-0.15751320123672485,-0.06235367804765701,0.9724637866020203,-23.71161651611328,9.643447875976562,-0.48960739374160767,-0.5579720735549927,-0.8099594712257385,-0.27898603677749634,-0.173415407538414,-0.30612418055534363,-0.8336436152458191
33,3594137,3594139,0.003661165712401271,-0.020780615508556366,0.9599860906600952,-20.802734375,11.410614013671875,-0.48677194118499756,-0.5609719157218933,-0.8069596290588379,-0.28798559308052063,-0.4006390869617462,-0.455644816160202,-0.8420659899711609
34,3594147,3594149,-0.05975070968270302,-0.29918065667152405,0.9822447896003723,-12.697129249572754,13.577613830566406,-0.12753978371620178,-0.5669716596603394,-0.8159592151641846,-0.27898603677749634,-0.3280244469642639,-0.6277576088905334,-0.85318523645401
35,3594157,3594159,-0.045864880084991455,-0.34558045864105225,0.9655337929725647,-2.6006414890289307,12.47746753692627,-0.021200401708483696,-0.5714713931083679,-0.8084595799446106,-0.28048595786094666,-0.6416640877723694,-0.7881795763969421,-0.8551751375198364
36,3594167,3594169,-0.10381820052862167,-0.44636914134025574,0.9688013195991516,6.056360721588135,11.624886512756348,-0.14555169641971588,-0.5684715509414673,-0.8174591064453125,-0.277486115694046,-0.7560293078422546,-0.7225752472877502,-0.8569562435150146
37,3594177,3594179,-0.22159546613693237,-0.5188843607902527,0.9658235311508179,16.4493465423584,10.67634391784668,0.19245600700378418,-0.5789710283279419,-0.8039597868919373,-0.26998651027679443,-1.0792614221572876,-0.5777888298034668,-0.847283661365509
38,3594187,3594189,-0.0497690886259079,-0.2556024491786957,0.9536197185516357,22.795066833496094,6.68989372253418,-0.3189586102962494,-0.56997150182724,-0.8159592151641846,-0.27898603677749634,-0.9343223571777344,-0.8711481094360352,-0.8750491142272949
39,3594197,3594199,-0.08580368012189865,-0.1035635843873024,0.9644089937210083,24.72356414794922,3.7749056816101074,-0.5766998529434204,-0.5654717087745667,-0.8144592642784119,-0.2744862735271454,-0.9670705199241638,-0.6474992036819458,-0.8823539018630981
40,3594207,3594209,-0.0963132455945015,-0.08584894239902496,0.9583221077919006,25.851896286010742,-0.7615312337875366,-0.18910397589206696,-0.5684715509414673,-0.8084595799446106,-0.2834858298301697,-1.0119577646255493,-0.24958784878253937,-0.8836341500282288
41,3594217,3594219,-0.0981944277882576,-0.016655098646879196,0.9777008891105652,24.072507858276367,-2.40657639503479,-0.3826553225517273,-0.5684715509414673,-0.8144592642784119,-0.2924853563308716,-0.9311409592628479,-0.07857958227396011,-0.9017581343650818
42,3594227,3594229,-0.3163374662399292,-0.2794163227081299,0.967323899269104,19.597412109375,-3.316375970840454,-0.20036980509757996,-0.5729713439941406,-0.8219588994979858,-0.2759861946105957,-0.9660577178001404,0.13702574372291565,-0.9025294184684753
43,3594237,3594239,-0.6696552634239197,-0.40862178802490234,0.9258723855018616,14.746625900268555,-3.046746253967285,0.5550040006637573,-0.5714713931083679,-0.8114594221115112,-0.2834858298301697,-0.985557496547699,0.3597368001937866,-0.8992022275924683
44,3594247,3594249,-0.2884427011013031,-0.1972227692604065,0.9115601181983948,8.377558708190918,-0.7098422050476074,0.5821477770805359,-0.5744712948799133,-0.8234587907791138,-0.28048595786094666,-0.9821175336837769,0.49262887239456177,-0.89337557554245
45,3594257,3594259,-0.1455286741256714,-0.5476643443107605,0.9184160828590393,4.113241195678711,0.0261681005358696,0.28142809867858887,-0.5714713931083679,-0.8144592642784119,-0.28048595786094666,-1.0196094512939453,0.5281293392181396,-0.8872619271278381
46,3594267,3594269,-0.408523827791214,-0.5872219800949097,0.9669860005378723,1.1863945722579956,0.827560544013977,0.1326664686203003,-0.5744712948799133,-0.8204589486122131,-0.2834858298301697,-1.079317331314087,0.5555220246315002,-0.8823660612106323
47,3594277,3594279,-0.1508815437555313,-0.2856574058532715,0.9171849489212036,0.21221856772899628,1.108174443244934,0.4425099492073059,-0.5744712948799133,-0.8234587907791138,-0.28048595786094666,-1.1187529563903809,0.5585431456565857,-0.8802451491355896
48,3594287,3594289,-0.3064907491207123,-0.6196302175521851,0.902901828289032,0.01426282525062561,1.6040375232696533,0.3712160885334015,-0.5744712948799133,-0.8234587907791138,-0.28048595786094666,-1.0458115339279175,0.6024579405784607,-0.8729984164237976
49,3594297,3594299,-0.3459359109401703,-0.23894605040550232,0.886964738368988,1.7010209560394287,0.23209473490715027,0.016123775392770767,-0.5744712948799133,-0.8234587907791138,-0.28048595786094666,-1.1134692430496216,0.6605873703956604,-0.8629469871520996
50,3594307,3594309,-0.19711947441101074,-0.062180910259485245,0.9020947813987732,4.381495952606201,-0.6310644149780273,0.32631954550743103,-0.5729713439941406,-0.8189590573310852,-0.28798559308052063,-1.1203982830047607,0.7446828484535217,-0.8540092706680298
51,3594317,3594319,-0.6622621417045593,-0.3467802107334137,0.9089908599853516,4.430929183959961,-0.690948486328125,0.8093692660331726,-0.5639718174934387,-0.8249587416648865,-0.28198590874671936,-1.0602184534072876,0.8384833335876465,-0.8429126143455505
52,3594327,3594329,-0.5935353636741638,-0.15852873027324677,0.9803344011306763,5.579503059387207,-2.3552334308624268,0.8663895130157471,-0.56997150182724,-0.8339582681655884,-0.28198590874671936,-1.0780951976776123,0.9410473108291626,-0.8276383280754089
53,3594337,3594339,-0.2359943836927414,-0.19575010240077972,0.9328295588493347,4.053991794586182,-3.2693638801574707,0.43013831973075867,-0.5684715509414673,-0.8234587907791138,-0.277486115694046,-1.0245609283447266,1.053480625152588,-0.8106875419616699
54,3594347,3594349,-0.8359397649765015,-0.5085813403129578,0.9563020467758179,1.9657360315322876,-3.562932014465332,0.6345430016517639,-0.5654717087745667,-0.8204589486122131,-0.29848507046699524,-0.8591994643211365,1.1269718408584595,-0.7967532873153687
55,3594357,3594359,-0.6055111289024353,-0.2980782389640808,0.953577995300293,-1.4836132526397705,-4.862758636474609,0.11485942453145981,-0.5789710283279419,-0.8279585838317871,-0.28198590874671936,-0.8944205045700073,1.1792857646942139,-0.797236442565918
56,3594367,3594369,-0.12675519287586212,-0.23484784364700317,0.9499850273132324,-3.9822134971618652,-4.1037139892578125,0.9893416166305542,-0.5759711861610413,-0.8249587416648865,-0.28798559308052063,-0.862092912197113,1.170928955078125,-0.8003067970275879
57,3594377,3594379,-0.2781801223754883,-0.32353201508522034,0.9592309594154358,-7.199024677276611,-2.7941789627075195,1.3243110179901123,-0.5639718174934387,-0.8189590573310852,-0.28198590874671936,-0.7590376734733582,1.1634501218795776,-0.7805211544036865
58,3594387,3594389,-0.09540446847677231,-0.26274794340133667,0.9909737706184387,-8.515477180480957,-3.8546435832977295,1.8290596008300781,-0.5669716596603394,-0.8159592151641846,-0.28798559308052063,-0.6906423568725586,1.59369957447052,-0.691556453704834
59,3594397,3594399,-0.060384247452020645,-0.2757682800292969,0.9646282196044922,-10.098132133483887,-0.2405054271221161,0.9211599230766296,-0.5714713931083679,-0.8294585347175598,-0.2954852283000946,-0.6719409823417664,0.8784306049346924,-0.7673031687736511
60,3594407,3594409,-0.10918430984020233,-0.2847161293029785,0.9850165247917175,-11.111247062683105,1.9647923707962036,2.3245742321014404,-0.5669716596603394,-0.8189590573310852,-0.28498575091362,-0.7045987248420715,0.71965092420578,-0.7682509422302246
61,3594417,3594419,-0.5376304388046265,-0.4122160077095032,0.9919537305831909,-10.87902545928955,3.5233347415924072,1.8396856784820557,-0.562471866607666,-0.8114594221115112,-0.28048595786094666,-0.9771484732627869,1.088022232055664,-0.713074266910553
62,3594427,3594429,-0.29742345213890076,-0.15515634417533875,0.8932444453239441,-8.371659278869629,3.939732074737549,1.5983970165252686,-0.5729713439941406,-0.8129593133926392,-0.29098543524742126,-0.9630565047264099,0.9001769423484802,-0.7007539868354797
63,3594437,3594439,-0.23993678390979767,-0.27894359827041626,0.895691454410553,-7.522427082061768,1.8544865846633911,1.447801947593689,-0.5744712948799133,-0.8204589486122131,-0.2744862735271454,-0.9398194551467896,0.8101984858512878,-0.6760915517807007
64,3594447,3594449,-0.15358605980873108,-0.4617890417575836,0.874971866607666,-7.295527935028076,-0.40182602405548096,0.9708912372589111,-0.5714713931083679,-0.8234587907791138,-0.28048595786094666,-1.140084981918335,0.6661599278450012,-0.698082685470581
65,3594457,3594459,-0.2605879604816437,-0.14219793677330017,0.950541079044342,-7.552802085876465,-4.256303310394287,0.7103706002235413,-0.5669716596603394,-0.8129593133926392,-0.28798559308052063,-0.8349741101264954,0.6639025211334229,-0.642004668712616
66,3594467,3594469,-0.4144953489303589,-0.007156236097216606,0.9934780597686768,-7.558218002319336,-7.62211275100708,0.5095394849777222,-0.5654717087745667,-0.8234587907791138,-0.2864856719970703,-0.7714413404464722,0.5135340690612793,-0.6441274881362915
67,3594477,3594479,-0.3144610822200775,0.015002254396677017,0.9604085087776184,-8.217883110046387,-8.51968002319336,1.1095924377441406,-0.5759711861610413,-0.8249587416648865,-0.28798559308052063,-0.9349038600921631,0.3682831823825836,-0.6800186634063721
68,3594487,3594489,-0.07189459353685379,-0.015175454318523407,0.9068779349327087,-7.2795023918151855,-7.953920364379883,1.152458906173706,-0.5639718174934387,-0.8069596290588379,-0.28498575091362,-0.9269376397132874,0.23226790130138397,-0.6905549764633179
69,3594497,3594499,0.016749955713748932,-0.1158035472035408,0.9628700613975525,-6.926820278167725,-7.716949939727783,1.2657374143600464,-0.5579720735549927,-0.8129593133926392,-0.28198590874671936,-0.783149778842926,0.10269951075315475,-0.6809719204902649
70,3594507,3594509,-0.2034534215927124,-0.5217546820640564,0.9728097915649414,-4.661196231842041,-7.840680122375488,1.1912994384765625,-0.5684715509414673,-0.8174591064453125,-0.2864856719970703,-0.9137919545173645,0.0600743368268013,-0.6883161067962646
71,3594517,3594519,-0.08331166952848434,-0.16604873538017273,0.9138971567153931,-2.922189474105835,-7.7944231033325195,0.950061023235321,-0.5654717087745667,-0.8114594221115112,-0.2864856719970703,-0.7326409816741943,-0.07671336084604263,-0.682830810546875
72,3594527,3594529,-0.6844081878662109,-0.5539342761039734,0.9398348927497864,-1.1606594324111938,-8.677003860473633,1.3570654392242432,-0.5534723401069641,-0.8204589486122131,-0.2924853563308716,-0.5152961015701294,0.0159771665930748,-0.6490013003349304
73,3594537,3594539,-0.8212183117866516,-0.8680196404457092,0.974179208278656,0.12315940856933594,-8.743712425231934,0.845544159412384,-0.562471866607666,-0.8144592642784119,-0.2834858298301697,-0.35989323258399963,0.0579463429749012,-0.6261584758758545
74,3594547,3594549,-0.11376557499170303,-0.41454198956489563,0.9394885897636414,0.03932591527700424,-8.786001205444336,0.8379880785942078,-0.5579720735549927,-0.8099594712257385,-0.2759861946105957,-0.18315690755844116,0.0610199011862278,-0.6163346767425537
75,3594557,3594559,-0.10702183842658997,-0.31137341260910034,0.9378924369812012,-0.21386153995990753,-7.703344345092773,0.8347128033638,-0.5594720244407654,-0.8174591064453125,-0.2834858298301697,-0.007332703098654747,0.38993871212005615,-0.5728285312652588
76,3594567,3594569,-0.7828325629234314,-0.18798822164535522,0.9821712374687195,-0.9014162421226501,-4.520025730133057,0.6692630052566528,-0.562471866607666,-0.8174591064453125,-0.2924853563308716,0.09889505803585052,0.26373568177223206,-0.5722700953483582
77,3594577,3594579,-0.4081127643585205,-0.24905537068843842,0.9646039605140686,-2.593086004257202,-0.5971375703811646,1.840386986732483,-0.5534723401069641,-0.8264586329460144,-0.29848507046699524,0.1673903465270996,0.22778759896755219,-0.5683566331863403
78,3594587,3594589,-0.10925571620464325,-0.1376236528158188,0.9434424638748169,-4.8965277671813965,3.107309579849243,0.858660876750946,-0.5654717087745667,-0.80545973777771,-0.2864856719970703,0.17884555459022522,0.14603470265865326,-0.5521671772003174
79,3594597,3594599,-0.3268551230430603,-0.0633818581700325,0.9690791964530945,-6.120118618011475,6.600452899932861,0.35595664381980896,-0.5609719157218933,-0.8189590573310852,-0.2759861946105957,0.10927928239107132,0.02861388586461544,-0.5462005734443665
80,3594607,3594609,-0.7461973428726196,0.03304300457239151,0.9966589212417603,-8.362310409545898,9.239053726196289,0.4989924728870392,-0.5579720735549927,-0.8099594712257385,-0.29098543524742126,-0.00890329573303461,-0.03613435849547386,-0.5456758141517639
81,3594617,3594619,-0.26014238595962524,-0.0022288921754807234,0.9997382164001465,-9.3902006149292,9.523231506347656,0.17843446135520935,-0.562471866607666,-0.8114594221115112,-0.28048595786094666,-0.1524735391139984,-0.19248934090137482,-0.5425438284873962
82,3594627,3594629,-0.13641725480556488,-0.3335305452346802,0.9712216258049011,-9.097315788269043,7.921426296234131,-0.007694221567362547,-0.5684715509414673,-0.8084595799446106,-0.2834858298301697,-0.21244019269943237,-0.35909318923950195,-0.5375057458877563
83,3594637,3594639,-0.24247689545154572,-0.20362159609794617,0.9622546434402466,-5.981504440307617,5.927522659301758,-0.2860015332698822,-0.5534723401069641,-0.8144592642784119,-0.2834858298301697,-0.3235214352607727,-0.3579663038253784,-0.5385808944702148
84,3594647,3594649,-0.07108323276042938,0.06312542408704758,0.9581105709075928,-2.6978671550750732,1.9043724536895752,-1.0914472341537476,-0.5609719157218933,-0.8099594712257385,-0.28198590874671936,-0.3865862488746643,-0.4545249342918396,-0.5418596863746643
85,3594657,3594659,-0.10968203842639923,-0.09472360461950302,0.9622617959976196,0.9338452219963074,-1.776127815246582,-0.5158695578575134,-0.5579720735549927,-0.8219588994979858,-0.28798559308052063,-0.395079106092453,-0.5042440295219421,-0.5488336682319641
86,3594667,3594669,-0.36639469861984253,-0.11061644554138184,0.9635682702064514,3.606714963912964,-5.582861423492432,-0.9874692559242249,-0.554972231388092,-0.8009599447250366,-0.27298635244369507,-0.37707945704460144,-0.48382624983787537,-0.5532408952713013
87,3594677,3594679,-0.1303684413433075,-0.046049293130636215,0.9880189895629883,3.7263848781585693,-7.878231048583984,-1.1269919872283936,-0.562471866607666,-0.8144592642784119,-0.28948551416397095,-0.32182201743125916,-0.5013628602027893,-0.5606415271759033
88,3594687,3594689,-0.3674865961074829,-0.26772016286849976,1.0022128820419312,5.55753231048584,-9.738018989562988,-1.8990905284881592,-0.5669716596603394,-0.8129593133926392,-0.29098543524742126,-0.376415878534317,-0.4506054222583771,-0.5653929114341736
89,3594697,3594699,-0.9982085227966309,-0.3307409882545471,0.97493976354599,5.338425636291504,-10.2470064163208,-0.21612586081027985,-0.5504724383354187,-0.8174591064453125,-0.2834858298301697,-0.1745813935995102,-0.36154207587242126,-0.5849251747131348
90,3594707,3594709,-0.2810376286506653,-0.24853776395320892,0.9878458976745605,5.360655784606934,-11.619874954223633,-0.7022343873977661,-0.5414729118347168,-0.8204589486122131,-0.2924853563308716,-0.033043552190065384,-0.4215325117111206,-0.588487446308136
91,3594717,3594719,-0.6475121974945068,-0.7300001978874207,1.0602364540100098,3.505782127380371,-8.926228523254395,-0.1556868553161621,-0.5564721822738647,-0.8084595799446106,-0.277486115694046,0.17621707916259766,-0.349103182554245,-0.5994872450828552
92,3594727,3594729,-1.148862361907959,-0.8026771545410156,1.0415048599243164,3.1540441513061523,-6.538379669189453,-0.9373990893363953,-0.562471866607666,-0.8204589486122131,-0.2924853563308716,0.2668117880821228,-0.4257054626941681,-0.5997658967971802
93,3594737,3594739,-0.45564308762550354,-0.15808898210525513,0.9909393191337585,2.936182975769043,-2.0690627098083496,0.16976243257522583,-0.5579720735549927,-0.8189590573310852,-0.28798559308052063,0.37234237790107727,-0.4385623335838318,-0.6060510873794556
94,3594747,3594749,-0.21519342064857483,-0.05020960420370102,0.9740784764289856,5.244226455688477,1.679189920425415,0.45332518219947815,-0.5594720244407654,-0.80545973777771,-0.277486115694046,0.322567343711853,-0.3755546808242798,-0.5990895628929138
95,3594757,3594759,-0.13089317083358765,-0.21973103284835815,1.0253108739852905,7.4066338539123535,5.325205326080322,-0.9094705581665039,-0.5654717087745667,-0.8024598360061646,-0.2864856719970703,0.22336088120937347,-0.3336244523525238,-0.5894795060157776
96,3594767,3594769,-0.08393427729606628,-0.04746834188699722,1.0247321128845215,7.855790138244629,6.720430850982666,-0.48443904519081116,-0.5594720244407654,-0.8294585347175598,-0.277486115694046,0.13902397453784943,-0.21326258778572083,-0.5951690077781677
97,3594777,3594779,-0.03646080940961838,0.04499499499797821,0.9501566886901855,8.147326469421387,6.229918479919434,-0.8330983519554138,-0.5639718174934387,-0.8009599447250366,-0.28198590874671936,0.04607425257563591,-0.06564877182245255,-0.6044136881828308
98,3594787,3594789,0.0278021190315485,0.046914536505937576,1.0053715705871582,8.050004005432129,4.1545186042785645,-1.0291173458099365,-0.5609719157218933,-0.8129593133926392,-0.2669866383075714,0.030757131054997444,0.0062227314338088036,-0.616366446018219
99,3594797,3594799,-0.13837049901485443,-0.24596333503723145,0.9856513142585754,6.066998481750488,-0.18687030673027039,-1.1332963705062866,-0.5609719157218933,-0.8129593133926392,-0.26998651027679443,-0.010181444697082043,0.06536293774843216,-0.6236992478370667
100,3594807,3594809,-0.003857499221339822,0.013246696442365646,1.0208204984664917,3.217198371887207,-3.03879976272583,-1.1640645265579224,-0.5564721822738647,-0.80545973777771,-0.28048595786094666,-0.035652898252010345,0.06884761899709702,-0.6329057216644287
101,3594817,3594819,-0.17976310849189758,-0.3116224706172943,0.9738873243331909,0.8533603549003601,-6.015402793884277,-1.355798363685608,-0.5489725470542908,-0.8099594712257385,-0.28798559308052063,0.03355838730931282,-0.010250873863697052,-0.6412128210067749
102,3594827,3594829,-0.05752723664045334,-0.17644424736499786,0.9955974221229553,0.2362474650144577,-8.033941268920898,-0.9575509428977966,-0.5684715509414673,-0.8144592642784119,-0.28048595786094666,-0.08056202530860901,-0.27757108211517334,-0.6195424795150757
103,3594837,3594839,-0.07755477726459503,-0.07479528337717056,0.9814907312393188,0.02995544672012329,-9.930068969726562,-1.2515809535980225,-0.5459727048873901,-0.8189590573310852,-0.28798559308052063,0.0710327997803688,-0.23532460629940033,-0.6356546878814697
104,3594847,3594849,-0.4630482792854309,-0.614162027835846,0.9671708345413208,3.052150249481201,-9.445175170898438,-0.8691895008087158,-0.5489725470542908,-0.8339582681655884,-0.29098543524742126,0.2433381825685501,-0.17846985161304474,-0.6559774279594421
105,3594857,3594859,-0.2701585590839386,-0.27671799063682556,0.9511277079582214,6.8923187255859375,-9.022282600402832,0.24991706013679504,-0.5489725470542908,-0.8219588994979858,-0.29098543524742126,0.22529645264148712,-0.24074687063694,-0.6452710628509521
106,3594867,3594869,-0.20916150510311127,0.07929018139839172,0.9505684971809387,10.406723976135254,-6.935637474060059,-0.1843537539243698,-0.5384730696678162,-0.80545973777771,-0.2834858298301697,0.25427380204200745,-0.23152481019496918,-0.6401499509811401
107,3594877,3594879,-0.2640932500362396,-0.01808999665081501,1.0052095651626587,15.676143646240234,-5.820840358734131,-0.34112226963043213,-0.5504724383354187,-0.8264586329460144,-0.28948551416397095,0.32162609696388245,-0.12548811733722687,-0.6425076723098755
108,3594887,3594889,-0.2998516857624054,-0.02718987874686718,1.0428571701049805,18.63481330871582,-3.3749961853027344,-0.029946545138955116,-0.5369731187820435,-0.8159592151641846,-0.28498575091362,0.3539324998855591,0.17092572152614594,-0.6532854437828064
109,3594897,3594899,-0.09968157857656479,-0.012025333009660244,0.9554646015167236,20.395925521850586,-2.0968515872955322,0.24984587728977203,-0.562471866607666,-0.8084595799446106,-0.277486115694046,0.4209241569042206,0.37674134969711304,-0.6580941081047058
110,3594907,3594909,-0.11465036869049072,-0.053019795566797256,0.9808139801025391,17.91498565673828,0.5213974714279175,-0.05320846289396286,-0.5474725961685181,-0.8204589486122131,-0.2834858298301697,0.4513639509677887,0.6003401875495911,-0.6629601120948792
111,3594917,3594919,-0.22967861592769623,-0.3802863657474518,0.9555220603942871,15.824198722839355,-0.6359703540802002,-0.5657524466514587,-0.5654717087745667,-0.8264586329460144,-0.28948551416397095,0.47007158398628235,0.8425493836402893,-0.6711116433143616
112,3594927,3594929,-0.09584957361221313,0.0023513929918408394,1.0163615942001343,9.381844520568848,0.5580804347991943,-0.29287540912628174,-0.56997150182724,-0.8129593133926392,-0.27898603677749634,0.3904728889465332,0.8731701374053955,-0.6629295349121094
113,3594937,3594939,0.024357646703720093,0.12593890726566315,1.0414468050003052,3.6071970462799072,0.23645198345184326,-0.9528101682662964,-0.5609719157218933,-0.8279585838317871,-0.2939853072166443,0.3876132667064667,0.9636405110359192,-0.669954240322113
114,3594947,3594949,-0.03890743479132652,-0.1485605090856552,0.9731335639953613,-0.8313087821006775,-0.9241358637809753,-0.1448921412229538,-0.5594720244407654,-0.8264586329460144,-0.2864856719970703,0.26923903822898865,0.896391749382019,-0.6617794632911682
115,3594957,3594959,-0.0024863185826689005,-0.012321998365223408,0.9548956751823425,-4.245123863220215,-1.9266470670700073,-0.5899490118026733,-0.5594720244407654,-0.8234587907791138,-0.2924853563308716,0.3170930743217468,0.8956971764564514,-0.6630625128746033
116,3594967,3594969,-0.3615014851093292,-0.243461012840271,0.9618762135505676,-4.211750030517578,-3.089526891708374,-0.3442673683166504,-0.5534723401069641,-0.8264586329460144,-0.28048595786094666,0.3781851530075073,0.8619750142097473,-0.6687577962875366
117,3594977,3594979,-0.5527315139770508,-0.4976060390472412,0.9782810807228088,-4.018625736236572,-4.174717426300049,-0.34880396723747253,-0.5504724383354187,-0.8174591064453125,-0.30748462677001953,0.45142126083374023,0.8956251740455627,-0.6782189607620239
118,3594987,3594989,-0.08707305788993835,-0.03627457097172737,0.9973653554916382,-2.040189266204834,-4.917031764984131,-0.6954129934310913,-0.5489725470542908,-0.8339582681655884,-0.29098543524742126,0.3156449496746063,0.8536794781684875,-0.6828996539115906
119,3594997,3594999,-0.42145591974258423,-0.41436848044395447,0.985498309135437,-0.163556307554245,-4.650852203369141,-0.8911047577857971,-0.5504724383354187,-0.8264586329460144,-0.28948551416397095,0.4232977628707886,0.8584023118019104,-0.6885179877281189
120,3595007,3595009,-0.5155859589576721,-0.34593260288238525,0.9702409505844116,2.7815423011779785,-5.896541118621826,-0.2397278994321823,-0.5519723892211914,-0.8399580121040344,-0.28798559308052063,0.5409604907035828,0.892342209815979,-0.6968533992767334
121,3595017,3595019,-0.2757606506347656,-0.1369503289461136,0.9836726188659668,4.3132829666137695,-7.990909576416016,0.47089773416519165,-0.5534723401069641,-0.8354582190513611,-0.2954852283000946,0.6523404121398926,0.9330901503562927,-0.6962264776229858
122,3595027,3595029,-0.4396558701992035,-0.852625846862793,0.9620082378387451,4.091280937194824,-4.914974212646484,-0.5881475210189819,-0.5444727540016174,-0.844457745552063,-0.30748462677001953,0.6997480988502502,0.9448612928390503,-0.6940962672233582
123,3595037,3595039,-0.409609854221344,-0.8852807283401489,1.042138934135437,3.4992189407348633,-2.0974488258361816,-0.6435175538063049,-0.5564721822738647,-0.8264586329460144,-0.3044847846031189,0.8369051218032837,1.0302361249923706,-0.6969270706176758
124,3595047,3595049,-0.45209231972694397,-0.22283391654491425,0.9933103322982788,2.5991122722625732,0.1138920858502388,0.5082269310951233,-0.5474725961685181,-0.8534573316574097,-0.28948551416397095,0.8824025392532349,1.0274074077606201,-0.6930095553398132
125,3595057,3595059,-0.1733851283788681,-0.05221620202064514,1.001448631286621,2.126023530960083,3.2739005088806152,0.08548381924629211,-0.554972231388092,-0.8549572229385376,-0.2969851493835449,0.8731204867362976,1.0817322731018066,-0.6926425099372864
126,3595067,3595069,-0.49055472016334534,-0.3274492025375366,1.025855302810669,-0.14993402361869812,7.019318103790283,0.11387896537780762,-0.554972231388092,-0.8459576964378357,-0.3059847056865692,0.8325860500335693,1.1212319135665894,-0.6937439441680908
127,3595077,3595079,-0.7755501866340637,-0.5021460652351379,1.048356294631958,-3.723069667816162,7.781709671020508,-0.3694055378437042,-0.5489725470542908,-0.8459576964378357,-0.2939853072166443,0.7155579924583435,1.0980656147003174,-0.692693293094635
128,3595087,3595089,-0.1493629515171051,-0.059020087122917175,1.041029691696167,-4.222619533538818,8.664453506469727,-0.9952976703643799,-0.5519723892211914,-0.836958110332489,-0.2939853072166443,0.5581765174865723,1.0457993745803833,-0.7027682065963745
129,3595097,3595099,0.07150919735431671,0.07737289369106293,1.032928228378296,-4.592526435852051,7.169503211975098,-0.6987167596817017,-0.5474725961685181,-0.8384580612182617,-0.29848507046699524,0.4361816942691803,0.9777092933654785,-0.712803304195404
130,3595107,3595109,-0.4245385229587555,-0.029046623036265373,0.9627664685249329,-5.184902667999268,5.077816009521484,0.07055195420980453,-0.5444727540016174,-0.8384580612182617,-0.3014849126338959,0.3325485289096832,0.986262321472168,-0.7315277457237244
131,3595117,3595119,-0.3970187306404114,0.03019576147198677,1.0046287775039673,-6.436646461486816,3.144655227661133,-0.16727259755134583,-0.5579720735549927,-0.8279585838317871,-0.2939853072166443,0.27096033096313477,0.9675155878067017,-0.7376012802124023
132,3595127,3595129,-0.10704448074102402,-0.014181267470121384,1.0253424644470215,-5.2602009773254395,-4.160653591156006,1.475967526435852,-0.5459727048873901,-0.8399580121040344,-0.2969851493835449,0.3027656078338623,0.9252063632011414,-0.7335973978042603
133,3595137,3595139,-0.2515946924686432,-0.12350931018590927,1.0316410064697266,-5.874612331390381,-2.3993947505950928,-0.09409243613481522,-0.5474725961685181,-0.8414579033851624,-0.28948551416397095,0.3424486219882965,0.8931434750556946,-0.730498731136322
134,3595147,3595149,-0.1226043775677681,-0.07909322530031204,0.9914748668670654,-6.233174800872803,-3.2098371982574463,0.3210716247558594,-0.5474725961685181,-0.8414579033851624,-0.28948551416397095,0.3984698951244354,0.8590409159660339,-0.7337135076522827
135,3595157,3595159,-0.09396401792764664,-0.35673853754997253,1.004609227180481,-5.521026134490967,-3.6091396808624268,0.31539541482925415,-0.5474725961685181,-0.8414579033851624,-0.28948551416397095,0.4338725209236145,0.736842155456543,-0.7281090617179871
136,3595167,3595169,-0.015247458592057228,-0.12499664723873138,0.9634623527526855,-5.155385971069336,-2.6299424171447754,0.27877077460289,-0.5504724383354187,-0.8354582190513611,-0.2954852283000946,0.5006901621818542,0.7864547371864319,-0.7407075762748718
137,3595177,3595179,-0.03986299782991409,-0.14608314633369446,0.9813004732131958,-5.527029514312744,-1.464411973953247,0.658409059047699,-0.554972231388092,-0.8339582681655884,-0.29998499155044556,0.5947270393371582,0.6700913310050964,-0.7252036929130554
138,3595187,3595189,-0.4868757426738739,-0.3205355703830719,0.9818742871284485,-5.575959205627441,1.0232635736465454,0.776608943939209,-0.5459727048873901,-0.8429578542709351,-0.2969851493835449,0.638463020324707,0.5768252015113831,-0.716888964176178
139,3595197,3595199,-1.2712576389312744,-0.30412766337394714,0.9689106345176697,-5.816952228546143,3.6873137950897217,0.6363294720649719,-0.5519723892211914,-0.836958110332489,-0.2969851493835449,0.6882274150848389,0.4866713285446167,-0.7015272378921509
140,3595207,3595209,-0.4736276865005493,-0.3139793872833252,1.010931134223938,-6.126438617706299,7.671891212463379,0.7945568561553955,-0.5309734344482422,-0.8549572229385376,-0.2939853072166443,0.6232244968414307,0.3862403333187103,-0.6920605301856995
141,3595217,3595219,-0.039076365530490875,0.012833275832235813,1.0211788415908813,-6.0126729011535645,9.352767944335938,1.0283451080322266,-0.5354732275009155,-0.850457489490509,-0.3014849126338959,0.5604487657546997,0.37462058663368225,-0.689791738986969
142,3595227,3595229,-0.031020550057291985,-0.04410383105278015,1.1038264036178589,-5.2759881019592285,10.577857971191406,1.1514668464660645,-0.5474725961685181,-0.850457489490509,-0.3044847846031189,0.4509337544441223,0.4135047495365143,-0.6920589804649353
143,3595237,3595239,-0.2702512741088867,-0.23368778824806213,1.062886357307434,-5.69953727722168,12.774724960327148,1.0966893434524536,-0.5474725961685181,-0.8564571738243103,-0.31048446893692017,0.4660783112049103,0.3267418444156647,-0.6644933223724365
144,3595247,3595249,-0.2868094742298126,-0.19696299731731415,1.035502552986145,-3.0976223945617676,10.259256362915039,1.9700875282287598,-0.5459727048873901,-0.8459576964378357,-0.2969851493835449,0.4692003130912781,0.24416577816009521,-0.6365493535995483
145,3595257,3595259,-0.8991314768791199,-0.3612540066242218,0.9922298789024353,-3.5913710594177246,8.798824310302734,1.8655364513397217,-0.5429728627204895,-0.8549572229385376,-0.2969851493835449,0.20953044295310974,0.15586580336093903,-0.6269636750221252
146,3595267,3595269,-0.30758532881736755,-0.11763034015893936,1.0122737884521484,-2.025883197784424,6.008200645446777,1.4706096649169922,-0.5444727540016174,-0.8474575877189636,-0.2954852283000946,0.059280287474393845,0.16338197886943817,-0.6202924251556396
147,3595277,3595279,-0.19071491062641144,-0.07232213765382767,1.0594768524169922,-1.3487435579299927,4.707006454467773,1.1544808149337769,-0.5459727048873901,-0.8639568090438843,-0.3059847056865692,-0.056017667055130005,0.19013333320617676,-0.61463862657547
148,3595287,3595289,-0.3574501574039459,-0.1414690464735031,1.0413720607757568,-1.8692976236343384,4.234060764312744,1.6794357299804688,-0.5594720244407654,-0.8474575877189636,-0.30748462677001953,0.0008679243619553745,0.21027643978595734,-0.6023581624031067
149,3595297,3595299,-0.15411365032196045,-0.1863185614347458,1.0226836204528809,-1.446792483329773,2.656444549560547,1.6171702146530151,-0.5324733853340149,-0.8564571738243103,-0.31048446893692017,-0.07138048857450485,0.1601378619670868,-0.5839626789093018
150,3595307,3595309,-0.08270355314016342,-0.11991437524557114,1.0300610065460205,-2.320260763168335,1.3327391147613525,1.3680713176727295,-0.5264736413955688,-0.850457489490509,-0.3014849126338959,-0.07648622989654541,0.21111708879470825,-0.5718428492546082
151,3595317,3595319,-0.15474770963191986,-0.11417250335216522,1.1012506484985352,-3.7883782386779785,1.3365641832351685,1.4627728462219238,-0.5519723892211914,-0.8459576964378357,-0.2939853072166443,-0.08031292259693146,0.1352660357952118,-0.548620879650116
152,3595327,3595329,-0.13107426464557648,0.07112360745668411,1.064385175704956,-4.360622406005859,3.3154854774475098,1.2536770105361938,-0.5474725961685181,-0.850457489490509,-0.2924853563308716,-0.048735205084085464,0.13058920204639435,-0.5341331958770752
153,3595337,3595339,-0.16854976117610931,-9.54812639974989e-05,1.082650899887085,-3.749790668487549,0.12378008663654327,2.0202858448028564,-0.5504724383354187,-0.8474575877189636,-0.28948551416397095,-0.08942601084709167,0.16986916959285736,-0.5221598148345947
154,3595347,3595349,-0.15144658088684082,-0.03008919022977352,1.0658671855926514,-6.477297782897949,4.499589920043945,1.0774319171905518,-0.5579720735549927,-0.8399580121040344,-0.29098543524742126,-0.18795618414878845,0.05397345870733261,-0.5076197385787964
155,3595357,3595359,-0.05711885169148445,-0.10556554794311523,1.0010993480682373,-5.6019439697265625,4.192291259765625,1.4409431219100952,-0.5519723892211914,-0.8249587416648865,-0.28498575091362,-0.266567587852478,0.0006038508145138621,-0.5006058812141418
156,3595367,3595369,-0.3317960202693939,-0.27636733651161194,0.9956991076469421,-5.480008602142334,4.201457500457764,1.9398763179779053,-0.5519723892211914,-0.8339582681655884,-0.29998499155044556,-0.3868817985057831,0.012093578465282917,-0.49463358521461487
157,3595377,3595379,-0.19234827160835266,-0.21996310353279114,1.000816822052002,-5.1499342918396,2.3392748832702637,1.307865858078003,-0.5564721822738647,-0.8384580612182617,-0.28948551416397095,-0.35404977202415466,-0.09402433037757874,-0.4786951541900635
158,3595387,3595389,-0.1340598613023758,-0.1658058613538742,1.0085049867630005,-4.4674177169799805,0.6829606294631958,1.8973942995071411,-0.5534723401069641,-0.8354582190513611,-0.3014849126338959,-0.38361769914627075,-0.07927116751670837,-0.46281835436820984
159,3595397,3595399,-0.03285081684589386,0.007902506738901138,1.0264335870742798,-3.3321690559387207,-0.38971319794654846,2.1124844551086426,-0.5459727048873901,-0.8249587416648865,-0.2939853072166443,-0.38903146982192993,-0.11087533831596375,-0.4443911015987396
160,3595407,3595409,-0.039922066032886505,-0.13872601091861725,1.0907201766967773,-3.4944145679473877,-2.496229410171509,1.7770179510116577,-0.5654717087745667,-0.8354582190513611,-0.2924853563308716,-0.35082972049713135,-0.20642590522766113,-0.4184834659099579
161,3595417,3595419,-0.015963125973939896,0.09311031550168991,1.0632662773132324,-2.831376552581787,-2.8532071113586426,1.4458202123641968,-0.5579720735549927,-0.8189590573310852,-0.28798559308052063,-0.32250741124153137,-0.27954864501953125,-0.3994753956794739
162,3595427,3595429,-0.07822359353303909,0.07081648707389832,1.071710467338562,-2.8812735080718994,-3.5868961811065674,1.6214313507080078,-0.5594720244407654,-0.8204589486122131,-0.2864856719970703,-0.19553478062152863,-0.28095337748527527,-0.38041576743125916
163,3595437,3595439,-0.17183345556259155,-0.09571821242570877,1.0704097747802734,-3.1913108825683594,-2.24538254737854,1.2967361211776733,-0.5534723401069641,-0.8264586329460144,-0.28948551416397095,-0.20417077839374542,-0.36637407541275024,-0.3676322102546692
164,3595447,3595449,-0.16382326185703278,-0.19608266651630402,0.9901919960975647,-1.6436126232147217,-1.4331600666046143,1.8886226415634155,-0.5609719157218933,-0.8009599447250366,-0.28198590874671936,-0.15962889790534973,-0.3699575960636139,-0.35573121905326843
165,3595457,3595459,-0.19067350029945374,-0.5392259955406189,0.99107426404953,-0.14544856548309326,0.3678152561187744,1.5351440906524658,-0.5594720244407654,-0.8174591064453125,-0.2834858298301697,-0.23878934979438782,-0.4217079281806946,-0.33606192469596863
166,3595467,3595469,-0.9585475325584412,-0.7949011325836182,0.9676418304443359,-0.8672024607658386,2.880082607269287,1.4951200485229492,-0.5564721822738647,-0.8174591064453125,-0.2864856719970703,-0.21124081313610077,-0.37960442900657654,-0.33075231313705444
167,3595477,3595479,-0.6463252305984497,-0.6326784491539001,0.9913671612739563,-0.7041292786598206,2.7581064701080322,1.9391820430755615,-0.5714713931083679,-0.8174591064453125,-0.2834858298301697,-0.1365378499031067,-0.4206785559654236,-0.3242625594139099
168,3595487,3595489,-0.3701452314853668,-0.2997995913028717,0.9599202275276184,-0.8435523509979248,3.3351824283599854,1.7293022871017456,-0.5609719157218933,-0.8159592151641846,-0.28498575091362,-0.16605880856513977,-0.3892469108104706,-0.30627191066741943
169,3595497,3595499,-0.17738458514213562,-0.055565476417541504,0.9598461985588074,0.010943819768726826,2.662747621536255,1.7570286989212036,-0.5564721822738647,-0.8174591064453125,-0.2924853563308716,-0.1684788465499878,-0.3982577323913574,-0.29338744282722473
170,3595507,3595509,-0.08999123424291611,-0.12607607245445251,0.9720207452774048,-1.2956604957580566,3.1765880584716797,1.5396034717559814,-0.5609719157218933,-0.8189590573310852,-0.28498575091362,-0.09772098809480667,-0.3598361015319824,-0.2779664993286133
171,3595517,3595519,-0.7767910361289978,-0.05213285610079765,0.9813427925109863,-2.487455368041992,3.4890780448913574,1.6538528203964233,-0.5519723892211914,-0.8279585838317871,-0.28498575091362,-0.06625514477491379,-0.2637138366699219,-0.26459309458732605
172,3595527,3595529,-0.6547409296035767,-0.2941820025444031,1.0106241703033447,-3.130417585372925,2.692082643508911,1.4628642797470093,-0.5519723892211914,-0.8189590573310852,-0.28798559308052063,-0.06839285790920258,-0.3112274408340454,-0.24642696976661682
173,3595537,3595539,-0.22844980657100677,-0.08765672892332077,1.0102595090866089,-3.6190366744995117,2.921879768371582,1.3444689512252808,-0.5519723892211914,-0.8159592151641846,-0.28498575091362,-0.1241861879825592,-0.3941987156867981,-0.2268419861793518
174,3595547,3595549,-0.3890678882598877,-0.15929947793483734,1.0043762922286987,-5.471724033355713,3.4331207275390625,1.3280164003372192,-0.5489725470542908,-0.8249587416648865,-0.27898603677749634,-0.18842971324920654,-0.4208657741546631,-0.20848825573921204
175,3595557,3595559,-0.8273833990097046,-0.2610301077365875,1.025475263595581,-5.851418972015381,2.55452561378479,1.8128330707550049,-0.5489725470542908,-0.8099594712257385,-0.2759861946105957,-0.23810429871082306,-0.5342181324958801,-0.18764722347259521
176,3595567,3595569,-0.4481334686279297,-0.03496575355529785,0.9781559109687805,-5.68088960647583,1.5862678289413452,1.8537427186965942,-0.5519723892211914,-0.8159592151641846,-0.27898603677749634,-0.29298853874206543,-0.5781365036964417,-0.1642727255821228
177,3595577,3595579,-0.01694570481777191,0.17407777905464172,1.02631413936615,-3.1031882762908936,1.6914554834365845,1.9495311975479126,-0.5654717087745667,-0.8234587907791138,-0.2864856719970703,-0.3793935179710388,-0.6777142882347107,-0.14720815420150757
178,3595587,3595589,-0.09501827508211136,0.003604200202971697,1.0176371335983276,0.502825140953064,-0.9469485878944397,1.8670756816864014,-0.554972231388092,-0.8309584259986877,-0.27898603677749634,-0.4118109345436096,-0.5919649600982666,-0.1228998675942421
179,3595597,3595599,0.00020215916447341442,-0.17640621960163116,0.9989680051803589,1.4863851070404053,-0.4486173391342163,1.8651739358901978,-0.5654717087745667,-0.8264586329460144,-0.2924853563308716,-0.49306097626686096,-0.6227753162384033,-0.10323525965213776
180,3595607,3595609,-0.24964876472949982,-0.3027345538139343,0.9650408625602722,4.457677364349365,-3.0191280841827393,2.2610416412353516,-0.5609719157218933,-0.8189590573310852,-0.28798559308052063,-0.4227776527404785,-0.6020577549934387,-0.09798707067966461
181,3595617,3595619,-0.1724022775888443,-0.5602409839630127,1.0291098356246948,3.9953908920288086,-4.0761823654174805,1.8334159851074219,-0.554972231388092,-0.8189590573310852,-0.28498575091362,-0.38415029644966125,-0.5471437573432922,-0.0793408751487732
182,3595627,3595629,-0.0496489554643631,-0.9063646793365479,0.9447392821311951,5.12237548828125,-3.564662218093872,2.3301546573638916,-0.5579720735549927,-0.8159592151641846,-0.28198590874671936,-0.4559113085269928,-0.49335452914237976,-0.05345221981406212
183,3595637,3595639,-0.2978789210319519,-0.31281569600105286,0.977940559387207,4.035706996917725,-4.596951007843018,1.5715014934539795,-0.562471866607666,-0.8234587907791138,-0.28948551416397095,-0.38922441005706787,-0.43548327684402466,-0.03612275421619415
184,3595647,3595649,-0.26549771428108215,-0.24192428588867188,0.9729073643684387,4.20924711227417,-3.6820170879364014,1.6599793434143066,-0.5654717087745667,-0.8264586329460144,-0.2834858298301697,-0.307652086019516,-0.464214950799942,-0.025508755818009377
185,3595657,3595659,-0.2847196161746979,-0.4062196612358093,0.9738022685050964,0.4775943458080292,-2.865791082382202,1.8429991006851196,-0.5564721822738647,-0.8174591064453125,-0.28048595786094666,-0.31478676199913025,-0.4142366051673889,-0.004134297836571932
186,3595667,3595669,-0.5123608112335205,-0.6247468590736389,1.0083383321762085,0.35496869683265686,-1.2375677824020386,1.7143136262893677,-0.5489725470542908,-0.8219588994979858,-0.29098543524742126,-0.26537686586380005,-0.41231054067611694,0.011611721478402615
187,3595677,3595679,-0.22321084141731262,-0.3430575132369995,1.0081346035003662,-0.14750607311725616,-0.08211643248796463,1.4804790019989014,-0.5429728627204895,-0.8129593133926392,-0.28798559308052063,-0.22033068537712097,-0.4266144335269928,0.028893860056996346
188,3595687,3595689,-0.08129309862852097,-0.09707212448120117,1.0412161350250244,0.5025126934051514,1.3551256656646729,1.8816457986831665,-0.554972231388092,-0.8219588994979858,-0.28198590874671936,-0.18381446599960327,-0.42296504974365234,0.04353334382176399
189,3595697,3595699,-0.40742385387420654,-0.0680287703871727,1.017611026763916,0.2491409033536911,2.3819828033447266,1.7243832349777222,-0.5474725961685181,-0.8204589486122131,-0.28048595786094666,-0.2151186764240265,-0.4369622766971588,0.06512840837240219
190,3595707,3595709,-0.26237037777900696,-0.10526546090841293,1.049697995185852,-0.2328016757965088,1.780814290046692,1.9051047563552856,-0.5594720244407654,-0.80545973777771,-0.2924853563308716,-0.24932830035686493,-0.4569302499294281,0.08619697391986847
191,3595717,3595719,-0.06461431831121445,-0.2570510804653168,0.9967412948608398,2.806427001953125,1.4244916439056396,1.958317518234253,-0.5579720735549927,-0.8189590573310852,-0.28198590874671936,-0.2723945379257202,-0.4541296064853668,0.10658123344182968
192,3595727,3595729,-0.08106374740600586,0.0015897711273282766,1.0607701539993286,3.320143461227417,0.00405972870066762,2.614323139190674,-0.5714713931083679,-0.8174591064453125,-0.28048595786094666,-0.2707322835922241,-0.4145137667655945,0.1330471932888031
193,3595737,3595739,-0.13028717041015625,0.07665060460567474,1.0558631420135498,3.2975821495056152,-1.2931792736053467,2.066366195678711,-0.554972231388092,-0.8099594712257385,-0.26098695397377014,-0.22023038566112518,-0.380691260099411,0.15266960859298706
194,3595747,3595749,0.025186285376548767,0.1469528079032898,1.04401695728302,3.301910161972046,-1.824149489402771,1.9735935926437378,-0.5654717087745667,-0.80545973777771,-0.2744862735271454,-0.2869415283203125,-0.32591772079467773,0.17744192481040955
195,3595757,3595759,-0.006228250451385975,-0.08465603739023209,1.0281615257263184,4.94761848449707,-3.704439401626587,1.3873066902160645,-0.5594720244407654,-0.80545973777771,-0.27148643136024475,-0.1826704889535904,-0.3403427302837372,0.18435412645339966
196,3595767,3595769,-0.05969880148768425,-0.17488086223602295,1.0034832954406738,4.021064281463623,-4.03111457824707,1.7380330562591553,-0.5639718174934387,-0.8039597868919373,-0.27898603677749634,-0.22934894263744354,-0.28135308623313904,0.20693007111549377
197,3595777,3595779,-0.038868919014930725,0.028740037232637405,0.9986373782157898,3.671276569366455,-4.0864338874816895,1.6692514419555664,-0.5639718174934387,-0.797960102558136,-0.27898603677749634,-0.1922185868024826,-0.22885553538799286,0.2174486517906189
198,3595787,3595789,-0.13146114349365234,0.03808465972542763,1.0120618343353271,3.5600945949554443,-4.713372230529785,2.0084662437438965,-0.554972231388092,-0.8009599447250366,-0.28198590874671936,-0.26118558645248413,-0.23930807411670685,0.24078728258609772
199,3595797,3595799,-0.23901212215423584,-0.05361197143793106,0.9716013669967651,2.658350706100464,-4.3142924308776855,1.9560023546218872,-0.5669716596603394,-0.8099594712257385,-0.2669866383075714,-0.21922262012958527,-0.1927594542503357,0.2572839856147766
200,3595807,3595809,-0.07477536797523499,-0.05476325377821922,0.9814947247505188,2.29624080657959,-5.002397537231445,2.1931562423706055,-0.5609719157218933,-0.8069596290588379,-0.27298635244369507,-0.18310004472732544,-0.16674239933490753,0.27051299810409546
201,3595817,3595819,-0.20659178495407104,-0.23255555331707,0.9748800992965698,0.7418540716171265,-5.969906330108643,2.2281084060668945,-0.56997150182724,-0.8069596290588379,-0.27298635244369507,-0.16327252984046936,-0.12825599312782288,0.2915293276309967
202,3595827,3595829,-0.7630941271781921,-0.468696266412735,0.9480448961257935,0.412822425365448,-6.08389949798584,2.1903038024902344,-0.5579720735549927,-0.8069596290588379,-0.28498575091362,-0.08399765193462372,-0.12501589953899384,0.31108590960502625
203,3595837,3595839,-0.2937573194503784,-0.17570090293884277,0.9474075436592102,0.1457892656326294,-6.759397506713867,1.9824447631835938,-0.554972231388092,-0.8069596290588379,-0.28498575091362,-0.03558049723505974,-0.12802021205425262,0.3282355070114136
204,3595847,3595849,0.0005873460322618484,0.054729435592889786,0.947648823261261,-0.21267692744731903,-7.68637228012085,1.8544554710388184,-0.5534723401069641,-0.8024598360061646,-0.27148643136024475,-0.03311995416879654,-0.1248830258846283,0.34529590606689453
205,3595857,3595859,-0.6782802939414978,-0.4901985228061676,0.9135934114456177,1.674086332321167,-8.140852928161621,2.4805641174316406,-0.562471866607666,-0.8234587907791138,-0.2834858298301697,0.07016532123088837,-0.11893703788518906,0.36012744903564453
206,3595867,3595869,-0.4959277808666229,-0.5988572239875793,0.9949765801429749,1.7829798460006714,-7.956975936889648,2.5506131649017334,-0.5489725470542908,-0.8039597868919373,-0.28798559308052063,0.18846891820430756,-0.17193734645843506,0.380741685628891
207,3595877,3595879,-0.0730368122458458,-0.21656034886837006,0.9462348222732544,1.1422057151794434,-6.542438507080078,2.6945154666900635,-0.5399730205535889,-0.8099594712257385,-0.29098543524742126,0.23262715339660645,-0.14306168258190155,0.4036993086338043
208,3595887,3595889,-0.0678216964006424,-0.017206789925694466,0.9821674227714539,1.7604717016220093,-4.716761112213135,3.1630969047546387,-0.5534723401069641,-0.8294585347175598,-0.2924853563308716,0.3169388771057129,-0.12691715359687805,0.42743930220603943
209,3595897,3595899,-0.16559366881847382,-0.3009016513824463,0.9279754161834717,4.066805839538574,-1.4403718709945679,3.378126859664917,-0.554972231388092,-0.8159592151641846,-0.27298635244369507,0.3550797998905182,-0.09049560874700546,0.45926493406295776
210,3595907,3595909,-0.11295939236879349,-0.7903740406036377,0.8876811861991882,4.070908546447754,1.1164559125900269,2.4390196800231934,-0.5534723401069641,-0.8294585347175598,-0.28948551416397095,0.17486301064491272,-0.02726762928068638,0.500487208366394
211,3595917,3595919,-0.03665294498205185,-0.6089127659797668,0.9748021960258484,4.448648452758789,3.0111489295959473,2.316470146179199,-0.5384730696678162,-0.8324583768844604,-0.3014849126338959,0.1511392891407013,0.030252747237682343,0.5236555337905884
212,3595927,3595929,0.02320309728384018,-0.2256542444229126,0.914158046245575,3.2602481842041016,3.8167452812194824,2.2206575870513916,-0.5444727540016174,-0.8324583768844604,-0.2954852283000946,0.11939980089664459,0.03680245950818062,0.5446778535842896
213,3595937,3595939,-0.09074216336011887,-0.023245705291628838,0.9810699820518494,2.390892267227173,2.8458099365234375,1.8851367235183716,-0.5519723892211914,-0.8249587416648865,-0.3059847056865692,0.07779764384031296,0.09112566709518433,0.5661232471466064
214,3595947,3595949,-0.17744570970535278,-0.32227039337158203,0.9230098724365234,0.47373268008232117,1.2321983575820923,1.8502488136291504,-0.5519723892211914,-0.8399580121040344,-0.2969851493835449,0.023537110537290573,0.11245179176330566,0.5838111639022827
215,3595957,3595959,-0.22747570276260376,-0.16876837611198425,0.9939520955085754,-1.2036513090133667,-1.3270663022994995,2.3644943237304688,-0.5339732766151428,-0.8309584259986877,-0.2939853072166443,0.03457061946392059,0.10685016959905624,0.6008312106132507
216,3595967,3595969,-0.5563793182373047,-0.15574900805950165,0.9575842618942261,-1.2412166595458984,-4.148210525512695,2.212073802947998,-0.5459727048873901,-0.836958110332489,-0.29098543524742126,0.12854740023612976,0.09832897782325745,0.6253454685211182
217,3595977,3595979,-0.7963071465492249,-0.22354353964328766,0.9758394956588745,-2.819411039352417,-4.612401962280273,2.0284650325775146,-0.5489725470542908,-0.8309584259986877,-0.2939853072166443,0.2292117178440094,0.07192862778902054,0.6509473919868469
218,3595987,3595989,-0.2224668264389038,-0.10252274572849274,1.0112859010696411,-3.9754161834716797,-5.110377311706543,1.3704679012298584,-0.5399730205535889,-0.8309584259986877,-0.2969851493835449,0.3193124234676361,0.09536492079496384,0.668371319770813
219,3595997,3595999,-0.04020969197154045,-0.004563532304018736,1.0398693084716797,-3.2076046466827393,-5.180037021636963,1.6199367046356201,-0.5369731187820435,-0.836958110332489,-0.29998499155044556,0.4400825798511505,0.036909688264131546,0.6884614825248718
220,3596007,3596009,-0.040117137134075165,-0.09635364264249802,1.0248587131500244,-2.331841468811035,-2.3412153720855713,1.5964741706848145,-0.5369731187820435,-0.836958110332489,-0.29998499155044556,0.5165013670921326,-0.016742249950766563,0.7119532823562622
221,3596017,3596019,-0.028950925916433334,-0.03025580383837223,1.004321813583374,-1.2721723318099976,0.5032197833061218,1.1630018949508667,-0.5369731187820435,-0.836958110332489,-0.29998499155044556,0.5260825753211975,-0.05101519823074341,0.728593111038208
222,3596027,3596029,0.002869271207600832,-0.15261892974376678,1.046751856803894,-0.4690113365650177,4.23351526260376,1.2852283716201782,-0.5369731187820435,-0.836958110332489,-0.29998499155044556,0.4669617712497711,-0.059631604701280594,0.7451047301292419
223,3596037,3596039,-0.04957568272948265,-0.2113078534603119,1.0462030172348022,0.3537140488624573,5.1871843338012695,1.1222730875015259,-0.5354732275009155,-0.8354582190513611,-0.2954852283000946,0.34152328968048096,-0.08308052271604538,0.7592705488204956
224,3596047,3596049,-0.07183137536048889,-0.07069344073534012,1.03627610206604,1.21527099609375,5.838988304138184,1.6327075958251953,-0.5399730205535889,-0.8309584259986877,-0.2939853072166443,0.3174833059310913,-0.07153026759624481,0.7695742249488831
225,3596057,3596059,-0.22135473787784576,-0.1344384104013443,1.0021626949310303,2.568643093109131,4.592346668243408,1.4561750888824463,-0.5429728627204895,-0.8309584259986877,-0.3029848337173462,0.2547228932380676,-0.04110795259475708,0.7841101288795471
226,3596067,3596069,-0.558456540107727,-0.265694797039032,1.0045950412750244,1.5797004699707031,4.716676235198975,1.717335820198059,-0.5429728627204895,-0.8279585838317871,-0.29098543524742126,0.19629749655723572,-0.012514791451394558,0.7983462810516357
227,3596077,3596079,-0.7816001176834106,-0.1457938700914383,0.9919538497924805,0.4794251620769501,3.679138660430908,1.7144619226455688,-0.5444727540016174,-0.8294585347175598,-0.28948551416397095,0.23094423115253448,0.01808043010532856,0.8092505931854248
228,3596087,3596089,-0.3541709780693054,-0.054770324379205704,0.980714738368988,0.03859156370162964,1.582111120223999,2.088317632675171,-0.5474725961685181,-0.8294585347175598,-0.2954852283000946,0.2737054228782654,0.03855692967772484,0.82929927110672
229,3596097,3596099,-0.15317901968955994,-0.1026788055896759,1.0834131240844727,-0.3752945363521576,1.3254377841949463,2.5033464431762695,-0.5444727540016174,-0.8414579033851624,-0.2924853563308716,0.35018911957740784,0.031150974333286285,0.8541749119758606
230,3596107,3596109,-0.06129150465130806,-0.012805894017219543,1.064295768737793,1.3315478563308716,1.2046805620193481,2.1885342597961426,-0.5444727540016174,-0.8324583768844604,-0.2954852283000946,0.3286292552947998,0.05119547247886658,0.8772496581077576
231,3596117,3596119,-0.19660942256450653,-0.06457915902137756,1.052188515663147,0.24358190596103668,1.387203574180603,3.304065227508545,-0.5444727540016174,-0.8324583768844604,-0.31048446893692017,0.29218095541000366,0.06712613254785538,0.9050921201705933
232,3596127,3596129,-0.07034794986248016,-0.09698569029569626,1.028596043586731,0.22546914219856262,1.7984293699264526,3.5086615085601807,-0.5429728627204895,-0.851957380771637,-0.28798559308052063,0.24331872165203094,0.06107938289642334,0.9376612305641174
233,3596137,3596139,-0.009101653471589088,0.029318654909729958,1.0079786777496338,-1.1658698320388794,3.9177045822143555,2.7371513843536377,-0.5474725961685181,-0.8324583768844604,-0.2924853563308716,0.18666520714759827,0.12168528139591217,0.9658942222595215
234,3596147,3596149,-0.08305766433477402,-0.1183650866150856,1.0739099979400635,-0.4726198613643646,5.000875473022461,2.7940802574157715,-0.5414729118347168,-0.8354582190513611,-0.3014849126338959,0.1115645244717598,0.0908050686120987,0.9949626922607422
235,3596157,3596159,-0.13032034039497375,-0.26357632875442505,1.0025405883789062,0.41000038385391235,5.868022441864014,2.6959102153778076,-0.5459727048873901,-0.8249587416648865,-0.2969851493835449,0.19801700115203857,0.06814131140708923,1.0212262868881226
236,3596167,3596169,-0.1465483009815216,-0.11615277081727982,0.9902865290641785,0.894583523273468,5.08153772354126,2.513146162033081,-0.554972231388092,-0.8339582681655884,-0.28798559308052063,0.18936693668365479,0.08956796675920486,1.0487347841262817
237,3596177,3596179,-0.20385074615478516,-0.017133641988039017,1.0165722370147705,1.818360447883606,6.2355241775512695,2.4312973022460938,-0.5519723892211914,-0.8279585838317871,-0.2969851493835449,0.08864498883485794,0.09373757988214493,1.0755577087402344
238,3596187,3596189,-0.22199824452400208,-0.05278187245130539,1.0778167247772217,2.1962594985961914,7.0698771476745605,1.7652990818023682,-0.5474725961685181,-0.8264586329460144,-0.28948551416397095,-0.0359017439186573,0.1215914636850357,1.0980818271636963
239,3596197,3596199,-0.19877760112285614,0.07427719980478287,1.086054801940918,1.5477286577224731,6.6078691482543945,1.1902521848678589,-0.5489725470542908,-0.8309584259986877,-0.29098543524742126,-0.0014504470163956285,0.15433429181575775,1.1199696063995361
240,3596207,3596209,-0.8322789669036865,-0.18546918034553528,1.0383226871490479,1.5875178575515747,5.400262355804443,1.6584793329238892,-0.554972231388092,-0.8249587416648865,-0.28498575091362,-0.05404999852180481,0.16446459293365479,1.1339370012283325
241,3596217,3596219,-0.7844712138175964,-0.12134329974651337,1.0199369192123413,0.6825717091560364,5.183139324188232,1.1979851722717285,-0.5444727540016174,-0.8264586329460144,-0.28948551416397095,-0.14004410803318024,0.16784198582172394,1.1441627740859985
242,3596227,3596229,-0.29148179292678833,0.09857215732336044,0.9938234090805054,1.335412859916687,4.180891513824463,1.1041486263275146,-0.5594720244407654,-0.8144592642784119,-0.28948551416397095,-0.19174952805042267,0.1748497188091278,1.151554822921753
243,3596237,3596239,-0.06975981593132019,-0.4059666097164154,0.9597012996673584,1.3758668899536133,2.699781894683838,1.7206614017486572,-0.5489725470542908,-0.8189590573310852,-0.28798559308052063,-0.30931878089904785,0.173508420586586,1.159566879272461
244,3596247,3596249,-0.018109790980815887,-0.25930753350257874,1.0001477003097534,-0.48334717750549316,2.797293186187744,1.878083348274231,-0.5519723892211914,-0.8189590573310852,-0.28198590874671936,-0.3775928020477295,0.17395871877670288,1.1739130020141602
245,3596257,3596259,-0.08254249393939972,-0.16474705934524536,1.0077866315841675,0.1468004286289215,1.4812190532684326,1.302333950996399,-0.5639718174934387,-0.8249587416648865,-0.2759861946105957,-0.4216195344924927,0.1682209074497223,1.1895145177841187
246,3596267,3596269,-0.0647059977054596,0.0066270846873521805,0.9952540993690491,-0.1695934683084488,1.4783542156219482,2.016010284423828,-0.5564721822738647,-0.8294585347175598,-0.28048595786094666,-0.4508758783340454,0.15852539241313934,1.203726887702942
247,3596277,3596279,-0.08031883090734482,-0.11454461514949799,1.0002094507217407,-0.6078553795814514,0.6206435561180115,1.4589089155197144,-0.5474725961685181,-0.8294585347175598,-0.2834858298301697,-0.4114792048931122,0.14733180403709412,1.2245533466339111
248,3596287,3596289,-0.09781970083713531,-0.04301902651786804,1.0055558681488037,-0.1696780025959015,-0.4414293169975281,1.4086410999298096,-0.5489725470542908,-0.8279585838317871,-0.29098543524742126,-0.39231255650520325,0.21722453832626343,1.2439085245132446
249,3596297,3596299,-0.09117680042982101,-0.17313243448734283,1.0198692083358765,-0.6448701620101929,-0.5137743949890137,1.3339647054672241,-0.5489725470542908,-0.8309584259986877,-0.28198590874671936,-0.3826824724674225,0.2073792964220047,1.260590672492981
250,3596307,3596309,-0.46662455797195435,-0.03578675538301468,1.057741403579712,0.2671380639076233,-0.15027432143688202,0.9094188213348389,-0.5489725470542908,-0.8189590573310852,-0.28498575091362,-0.38238686323165894,0.11824492365121841,1.2748453617095947
251,3596317,3596319,-0.28379908204078674,0.02415212243795395,1.0881136655807495,-0.01582922227680683,-0.018499961122870445,0.8381679654121399,-0.5594720244407654,-0.8234587907791138,-0.28048595786094666,-0.389264315366745,0.3269484341144562,1.2899810075759888
252,3596327,3596329,-0.03686441108584404,-0.09497576206922531,0.9616765379905701,-0.35614821314811707,1.2091997861862183,0.8477997183799744,-0.5579720735549927,-0.8189590573310852,-0.28498575091362,-0.42166462540626526,0.2993926405906677,1.2945634126663208
253,3596337,3596339,-0.037223782390356064,-0.08083144575357437,0.9999819993972778,-1.4198192358016968,0.0753137469291687,1.4605965614318848,-0.5534723401069641,-0.8234587907791138,-0.2864856719970703,-0.44199100136756897,0.26952335238456726,1.3021010160446167
254,3596347,3596349,-0.030189665034413338,0.07062909007072449,1.0084229707717896,-2.75626277923584,0.4836733937263489,0.8616825342178345,-0.5564721822738647,-0.8264586329460144,-0.2924853563308716,-0.2851015627384186,0.21728914976119995,1.3157392740249634
255,3596357,3596359,-0.29166895151138306,0.16987331211566925,1.032230019569397,-3.4903409481048584,0.11536168307065964,0.9317704439163208,-0.5459727048873901,-0.8189590573310852,-0.28798559308052063,-0.4755008816719055,0.22584456205368042,1.3162509202957153
256,3596367,3596369,-0.32527124881744385,-0.06491021066904068,0.9769782423973083,-3.5450901985168457,0.5771450996398926,2.178149938583374,-0.5579720735549927,-0.8159592151641846,-0.28798559308052063,-0.37857958674430847,0.1341303139925003,1.3261979818344116
257,3596377,3596379,-0.08969434350728989,-0.12389326840639114,0.9449242949485779,-4.265490531921387,-0.49000856280326843,1.7444615364074707,-0.5459727048873901,-0.8099594712257385,-0.28498575091362,-0.4452386498451233,0.11776447296142578,1.33912193775177
258,3596387,3596389,-0.03853563591837883,0.008500815369188786,0.9698392748832703,-3.7570371627807617,-0.7976748943328857,1.5668902397155762,-0.5579720735549927,-0.8189590573310852,-0.28498575091362,-0.4541284739971161,0.17207707464694977,1.3605706691741943
259,3596397,3596399,-0.19365254044532776,-0.168732151389122,0.9994019269943237,-3.106248617172241,-0.315195769071579,1.3212850093841553,-0.5474725961685181,-0.8174591064453125,-0.277486115694046,-0.45819398760795593,0.08031731098890305,1.3721888065338135
260,3596407,3596409,-0.1987977772951126,-0.06268568336963654,0.9866237044334412,-3.4115941524505615,-0.48268449306488037,1.2606858015060425,-0.5609719157218933,-0.8279585838317871,-0.28498575091362,-0.45890021324157715,0.007548714987933636,1.3807905912399292
261,3596417,3596419,-0.2877487540245056,-0.11623755842447281,0.9886367917060852,-2.4704315662384033,-0.3823779225349426,1.3880492448806763,-0.5534723401069641,-0.8324583768844604,-0.28948551416397095,-0.39056986570358276,-0.049244966357946396,1.3916374444961548
262,3596427,3596429,-0.13874995708465576,-0.0346626341342926,0.9646331667900085,-1.1621800661087036,-0.9229544401168823,1.0068689584732056,-0.5474725961685181,-0.8144592642784119,-0.28948551416397095,-0.34743037819862366,-0.08980784565210342,1.4073058366775513
263,3596437,3596439,-0.16499421000480652,-0.15545415878295898,0.9817458987236023,-0.7363901734352112,0.03203018754720688,1.2249027490615845,-0.5519723892211914,-0.8159592151641846,-0.28198590874671936,-0.16688641905784607,-0.12224690616130829,1.4290727376937866
264,3596447,3596449,-0.5270416736602783,-0.04354703798890114,1.0781034231185913,0.8856472373008728,0.9350966215133667,0.30608493089675903,-0.5384730696678162,-0.8204589486122131,-0.2864856719970703,-0.2535468637943268,-0.13823248445987701,1.4416497945785522
265,3596457,3596459,-0.20830388367176056,-0.043327219784259796,1.0106408596038818,1.1372499465942383,3.1655659675598145,1.0679655075073242,-0.5429728627204895,-0.8279585838317871,-0.2669866383075714,-0.29109251499176025,-0.13554108142852783,1.4475287199020386
266,3596467,3596469,-0.11745205521583557,0.04108868166804314,1.026336431503296,1.9458341598510742,3.8593294620513916,1.006280779838562,-0.5534723401069641,-0.8234587907791138,-0.28948551416397095,-0.2606325149536133,-0.12370804697275162,1.4646097421646118
267,3596477,3596479,-0.14046019315719604,-0.03936417028307915,1.0201741456985474,2.3920843601226807,4.384085178375244,0.7938464283943176,-0.5474725961685181,-0.8234587907791138,-0.2924853563308716,-0.3393964469432831,-0.032893337309360504,1.4797990322113037
268,3596487,3596489,-0.0404457151889801,-0.07461357116699219,1.0234135389328003,1.7719395160675049,4.999313831329346,0.6561266779899597,-0.5519723892211914,-0.8309584259986877,-0.3059847056865692,-0.3180641531944275,-0.01972799375653267,1.4838712215423584
269,3596497,3596499,-0.009672640822827816,-0.07859195023775101,1.03976309299469,0.8798131942749023,4.477431774139404,0.6807916164398193,-0.5609719157218933,-0.8249587416648865,-0.28498575091362,-0.4261852204799652,-0.007850457914173603,1.4886292219161987
270,3596507,3596509,-0.001294362940825522,-0.11829358339309692,0.993208646774292,0.028810907155275345,3.1318395137786865,1.119652509689331,-0.5504724383354187,-0.8324583768844604,-0.28948551416397095,-0.5125497579574585,-0.014099757187068462,1.494640827178955
271,3596517,3596519,-0.0980675145983696,-0.03349807485938072,1.0083452463150024,-1.9814938306808472,1.1783617734909058,0.7268805503845215,-0.5459727048873901,-0.8189590573310852,-0.27898603677749634,-0.4296822249889374,-0.036612965166568756,1.5029733180999756
272,3596527,3596529,-0.006110494490712881,0.03750225529074669,0.9910091757774353,-2.7517197132110596,0.9101136326789856,1.8183578252792358,-0.554972231388092,-0.8279585838317871,-0.28498575091362,-0.40310990810394287,-0.07710129767656326,1.5107868909835815
273,3596537,3596539,-0.08919574320316315,-0.16435661911964417,1.0207337141036987,-2.2857089042663574,-0.011899709701538086,0.9595728516578674,-0.5534723401069641,-0.8324583768844604,-0.28948551416397095,-0.43954893946647644,-0.1299608051776886,1.5249650478363037
274,3596547,3596549,-0.08744779229164124,-0.3611697852611542,1.0017619132995605,-2.37365460395813,0.9242954850196838,1.110148549079895,-0.5384730696678162,-0.8234587907791138,-0.28948551416397095,-0.47004640102386475,-0.17987245321273804,1.5323920249938965
275,3596557,3596559,-0.11230277270078659,-0.23015235364437103,1.0215940475463867,-0.9479258060455322,1.5233685970306396,1.5760530233383179,-0.5609719157218933,-0.8189590573310852,-0.28798559308052063,-0.5077528357505798,-0.15062889456748962,1.5471372604370117
276,3596567,3596569,-0.25443825125694275,-0.09065395593643188,0.99779212474823,1.0044305324554443,2.6742634773254395,1.40043044090271,-0.5444727540016174,-0.8204589486122131,-0.3044847846031189,-0.5475649237632751,-0.1636170893907547,1.5617716312408447
277,3596577,3596579,-0.10199980437755585,-0.01783190853893757,0.9954284429550171,2.9422686100006104,2.3715035915374756,1.423167109489441,-0.5429728627204895,-0.8219588994979858,-0.2939853072166443,-0.5928454995155334,-0.15195602178573608,1.5765907764434814
278,3596587,3596589,-0.12859614193439484,-0.08871710300445557,1.03367280960083,3.7843668460845947,2.3813817501068115,0.896908700466156,-0.5534723401069641,-0.8144592642784119,-0.2834858298301697,-0.638038694858551,-0.10477828234434128,1.5922335386276245
279,3596597,3596599,-0.2311265915632248,-0.1547044813632965,1.0255534648895264,3.5232458114624023,1.9164097309112549,1.2960768938064575,-0.5474725961685181,-0.8234587907791138,-0.2954852283000946,-0.6716063022613525,-0.049282047897577286,1.6036899089813232
280,3596607,3596609,-0.08846897631883621,-0.010734637267887592,0.9888400435447693,3.3220083713531494,0.04016988351941109,1.3067213296890259,-0.5474725961685181,-0.8234587907791138,-0.2864856719970703,-0.6904268860816956,-0.0014906036667525768,1.6175134181976318
281,3596617,3596619,-0.007217710372060537,0.022989235818386078,1.0111055374145508,2.130688428878784,-2.1326305866241455,1.7203280925750732,-0.5504724383354187,-0.8264586329460144,-0.2924853563308716,-0.6116909980773926,0.03989522159099579,1.6314525604248047
282,3596627,3596629,-0.10091544687747955,-0.10050264745950699,1.0155231952667236,1.1106308698654175,-2.7507832050323486,1.3067570924758911,-0.5489725470542908,-0.8159592151641846,-0.2939853072166443,-0.593247652053833,0.06075550243258476,1.6482665538787842
283,3596637,3596639,-0.6872559785842896,-0.39269521832466125,1.028013825416565,0.15069347620010376,-3.8850290775299072,1.1684491634368896,-0.56997150182724,-0.8279585838317871,-0.27898603677749634,-0.5734178423881531,0.06357122957706451,1.6606106758117676
284,3596647,3596649,-0.6792051196098328,-0.07378905266523361,0.9975380897521973,-1.9504001140594482,-4.151568412780762,2.2106776237487793,-0.5504724383354187,-0.8264586329460144,-0.2954852283000946,-0.5326241850852966,0.04100019857287407,1.6718976497650146
285,3596657,3596659,-0.11574714630842209,-0.08114077150821686,1.0113937854766846,-2.936751127243042,-4.125275611877441,2.601574659347534,-0.5399730205535889,-0.8309584259986877,-0.28498575091362,-0.4842897355556488,-0.003321452531963587,1.6901743412017822
286,3596667,3596669,-0.3358534872531891,-0.03542668744921684,1.0001518726348877,-2.9477455615997314,-2.99607515335083,2.786531925201416,-0.5444727540016174,-0.8174591064453125,-0.29848507046699524,-0.4334189295768738,-0.05887103080749512,1.7121978998184204
287,3596677,3596679,-0.8803992867469788,-0.3704747259616852,1.030046820640564,-1.6364213228225708,-0.9840366244316101,2.321295976638794,-0.5579720735549927,-0.8309584259986877,-0.2939853072166443,-0.41094380617141724,-0.10784751176834106,1.7364630699157715
288,3596687,3596689,-0.54848712682724,-0.5247412323951721,1.011674404144287,0.34233641624450684,-0.02439359575510025,2.611569404602051,-0.5564721822738647,-0.8204589486122131,-0.2834858298301697,-0.4827859699726105,-0.12743383646011353,1.7609533071517944
289,3596697,3596699,-0.32434219121932983,-0.4144560396671295,1.0368142127990723,0.18044933676719666,1.1279386281967163,2.9056477546691895,-0.5684715509414673,-0.8114594221115112,-0.28048595786094666,-0.48680612444877625,0.00015097841969691217,1.797101616859436
290,3596707,3596709,-0.20331628620624542,-0.11653972417116165,1.0146156549453735,1.3462249040603638,0.5153210759162903,2.2861812114715576,-0.5564721822738647,-0.8174591064453125,-0.2834858298301697,-0.49212661385536194,0.007093888241797686,1.8248298168182373
291,3596717,3596719,-0.10594648867845535,0.03343638777732849,0.9817732572555542,0.9648111462593079,0.911790668964386,3.1649372577667236,-0.5594720244407654,-0.8174591064453125,-0.277486115694046,-0.49310824275016785,0.021791934967041016,1.8510541915893555
292,3596727,3596729,-0.27449074387550354,-0.552732527256012,1.0078867673873901,0.4508224129676819,-0.43614661693573,2.325613021850586,-0.5459727048873901,-0.8129593133926392,-0.28498575091362,-0.5581262111663818,0.027277464047074318,1.8828555345535278
293,3596737,3596739,-0.5213696956634521,-0.577626645565033,1.024234652519226,1.564343810081482,-1.1577415466308594,1.9671590328216553,-0.5504724383354187,-0.8324583768844604,-0.2864856719970703,-0.5237613320350647,0.03007524646818638,1.9043655395507812
294,3596747,3596749,-0.14331437647342682,-0.004340829327702522,1.0047316551208496,-1.4675483703613281,-4.276941776275635,1.7457258701324463,-0.5519723892211914,-0.8189590573310852,-0.27898603677749634,-0.4257393181324005,0.04263820871710777,1.9280427694320679
295,3596757,3596759,-0.12027960270643234,0.010857253335416317,1.0157899856567383,-4.584153175354004,-6.256525993347168,1.8599356412887573,-0.5279735922813416,-0.8249587416648865,-0.28498575091362,-0.40540358424186707,-0.0017120799748227,1.946081519126892
296,3596767,3596769,-0.07647135853767395,-0.27733081579208374,0.978565514087677,-4.427066802978516,-7.75796365737915,2.0573651790618896,-0.5459727048873901,-0.8249587416648865,-0.28198590874671936,-0.2932884693145752,-0.0783722773194313,1.9623225927352905
297,3596777,3596779,-0.5571995377540588,-0.7117522358894348,0.9789992570877075,-4.126105785369873,-7.491424083709717,2.238445997238159,-0.5474725961685181,-0.8234587907791138,-0.28048595786094666,-0.31346872448921204,-0.01853010803461075,1.9907946586608887
298,3596787,3596789,-0.5739312767982483,-0.8629703521728516,1.0085208415985107,-3.5386345386505127,-7.413642406463623,2.232999801635742,-0.5489725470542908,-0.8279585838317871,-0.29098543524742126,-0.1907014101743698,-0.10034812986850739,2.010904312133789
299,3596797,3596799,-0.024867771193385124,-0.25874975323677063,1.0138630867004395,-1.973837971687317,-7.135469436645508,2.1499853134155273,-0.5579720735549927,-0.8189590573310852,-0.28198590874671936,-0.19833636283874512,-0.18500159680843353,2.0335865020751953
300,3596807,3596809,0.027604134753346443,-0.002658125013113022,1.0221655368804932,-1.8701964616775513,-6.710031986236572,2.3232336044311523,-0.5474725961685181,-0.8144592642784119,-0.29848507046699524,-0.14304015040397644,-0.24657376110553741,2.050135374069214
301,3596817,3596819,0.020260509103536606,0.04219900071620941,0.9783099889755249,-1.200096845626831,-6.259545803070068,2.170806884765625,-0.5234737992286682,-0.8354582190513611,-0.2864856719970703,-0.11393655091524124,-0.28039464354515076,2.067999839782715
302,3596827,3596829,-0.3947521448135376,-0.3449220657348633,0.9679620862007141,-0.03016790933907032,-5.126524448394775,2.432173252105713,-0.5504724383354187,-0.8294585347175598,-0.2924853563308716,0.012704428285360336,-0.3042575418949127,2.0887370109558105
303,3596837,3596839,-0.6341781616210938,-0.5847145318984985,0.9574598073959351,2.0363099575042725,-3.7035105228424072,2.9097044467926025,-0.5489725470542908,-0.8189590573310852,-0.28498575091362,0.10820841044187546,-0.30906471610069275,2.1111724376678467
304,3596847,3596849,-0.21464386582374573,-0.24731487035751343,0.9750719666481018,3.0994932651519775,-3.1362180709838867,1.6837955713272095,-0.5429728627204895,-0.8069596290588379,-0.2969851493835449,0.1971728354692459,-0.27042561769485474,2.1326231956481934
305,3596857,3596859,0.06284235417842865,0.013163786381483078,0.9743261933326721,3.240231990814209,-1.3326425552368164,1.779240369796753,-0.5324733853340149,-0.8324583768844604,-0.29848507046699524,0.2499804049730301,-0.2245565503835678,2.149655342102051
306,3596867,3596869,-0.043447915464639664,-0.035698626190423965,0.9871424436569214,4.296051025390625,-1.0347293615341187,1.465167760848999,-0.5444727540016174,-0.8324583768844604,-0.2864856719970703,0.21284335851669312,-0.15922687947750092,2.1734697818756104
307,3596877,3596879,-0.20038284361362457,-0.05623239278793335,1.0015887022018433,3.2392351627349854,1.011596441268921,1.662543535232544,-0.5579720735549927,-0.8219588994979858,-0.28498575091362,0.25579628348350525,-0.10475946962833405,2.1929965019226074
308,3596887,3596889,-0.12176364660263062,-0.19814921915531158,0.984614908695221,2.190250873565674,2.0244626998901367,1.347619891166687,-0.5579720735549927,-0.8219588994979858,-0.28498575091362,0.23874618113040924,-0.06128555163741112,2.210287094116211
309,3596897,3596899,-0.09836070984601974,-0.23036158084869385,1.0319572687149048,1.0519179105758667,2.855337142944336,1.0867928266525269,-0.5579720735549927,-0.8219588994979858,-0.28498575091362,0.16965211927890778,-0.032923102378845215,2.224972724914551
310,3596907,3596909,0.04390981048345566,-0.09528973698616028,1.031702995300293,-0.8433548808097839,2.054263114929199,1.7736531496047974,-0.5354732275009155,-0.844457745552063,-0.28948551416397095,0.09834481030702591,-0.037667710334062576,2.2405920028686523
311,3596917,3596919,-0.044733818620443344,0.01564168743789196,0.9949638247489929,-1.0645408630371094,-0.36906930804252625,1.6352441310882568,-0.5399730205535889,-0.8219588994979858,-0.2939853072166443,0.07433494180440903,-0.06118354946374893,2.257337808609009
312,3596927,3596929,-0.049494680017232895,-0.05719282105565071,1.0145446062088013,-4.038503646850586,-2.2595789432525635,1.0257891416549683,-0.5504724383354187,-0.8294585347175598,-0.2954852283000946,0.048849139362573624,-0.10965301841497421,2.267866849899292
313,3596937,3596939,0.03981645405292511,0.026635104790329933,0.9797622561454773,-3.693376064300537,-4.206698894500732,1.0153082609176636,-0.5294735431671143,-0.8414579033851624,-0.3014849126338959,0.11604933440685272,-0.1760263293981552,2.2716610431671143
314,3596947,3596949,-0.08310464769601822,-0.15168875455856323,0.9769210815429688,-3.0730886459350586,-5.012692928314209,1.0216542482376099,-0.5519723892211914,-0.8279585838317871,-0.29098543524742126,0.24888364970684052,-0.2408522069454193,2.280099868774414
315,3596957,3596959,-0.1343473345041275,-0.13990075886249542,0.951095700263977,-0.7257874011993408,-5.20871114730835,1.4560948610305786,-0.5309734344482422,-0.8279585838317871,-0.2939853072166443,0.373755544424057,-0.28116440773010254,2.2885656356811523
316,3596967,3596969,-0.15271621942520142,-0.03896241635084152,1.0196863412857056,1.4609451293945312,-3.2762413024902344,1.3233798742294312,-0.5279735922813416,-0.8459576964378357,-0.2939853072166443,0.31348279118537903,-0.2767736613750458,2.306175947189331
317,3596977,3596979,-0.02887880615890026,0.0803433433175087,0.9937316179275513,2.7908713817596436,-2.1176555156707764,1.2533479928970337,-0.5339732766151428,-0.8489575386047363,-0.29098543524742126,0.3745754659175873,-0.2391287237405777,2.3188891410827637
318,3596987,3596989,-0.011110644787549973,0.006473896559327841,1.0511138439178467,4.05562686920166,-0.8890560865402222,2.1579225063323975,-0.5279735922813416,-0.8399580121040344,-0.2939853072166443,0.3862110376358032,-0.19475705921649933,2.3376874923706055
319,3596997,3596999,0.010815709829330444,-0.0004034181183669716,1.0555603504180908,5.595237731933594,-0.30134204030036926,1.883784294128418,-0.5384730696678162,-0.844457745552063,-0.3044847846031189,0.3209780156612396,-0.14008828997612,2.360175609588623
320,3597007,3597009,0.05535174533724785,0.025860201567411423,1.0238231420516968,3.259559392929077,0.9908066391944885,1.5108354091644287,-0.5294735431671143,-0.8204589486122131,-0.2954852283000946,0.275874525308609,-0.06173773482441902,2.3729021549224854
321,3597017,3597019,-0.12778739631175995,-0.08945468813180923,1.0688577890396118,2.437541961669922,1.028257131576538,1.6742982864379883,-0.5354732275009155,-0.8414579033851624,-0.3044847846031189,0.2698759436607361,-0.015762263908982277,2.3849544525146484
322,3597027,3597029,-0.17175953090190887,-0.12111813575029373,0.9951608777046204,0.36582478880882263,1.1591665744781494,1.6135046482086182,-0.5369731187820435,-0.8459576964378357,-0.2939853072166443,0.2960200011730194,-0.004025595728307962,2.399937391281128
323,3597037,3597039,-0.1462862640619278,-0.1176626905798912,1.0145260095596313,-0.3132309913635254,0.8057568073272705,1.7742916345596313,-0.5459727048873901,-0.8309584259986877,-0.2939853072166443,0.311671644449234,0.0029964393470436335,2.413892984390259
324,3597047,3597049,-0.13281112909317017,0.09245476126670837,1.0128469467163086,-2.169524908065796,0.8146668076515198,1.7366288900375366,-0.5339732766151428,-0.8399580121040344,-0.2969851493835449,0.3334139585494995,0.010666419751942158,2.4351792335510254
325,3597057,3597059,0.018428893759846687,0.11224904656410217,1.0226975679397583,-4.516573429107666,0.7115001678466797,1.890421986579895,-0.5429728627204895,-0.8249587416648865,-0.29998499155044556,0.3274005651473999,-0.030717330053448677,2.4641106128692627
326,3597067,3597069,-0.1739630252122879,-0.014628360979259014,1.0659635066986084,-3.8831517696380615,1.0793614387512207,2.076869487762451,-0.5324733853340149,-0.8354582190513611,-0.2924853563308716,0.2583948075771332,-0.11823415756225586,2.490173816680908
327,3597077,3597079,-0.0953812524676323,-0.029789933934807777,1.0742714405059814,-2.8563811779022217,0.411108136177063,1.3776495456695557,-0.5414729118347168,-0.8294585347175598,-0.2954852283000946,0.19559456408023834,-0.05134177953004837,2.494683027267456
328,3597087,3597089,-0.0043677822686731815,-0.06385169923305511,1.0113075971603394,-2.5527219772338867,0.27118051052093506,1.1215771436691284,-0.5459727048873901,-0.8309584259986877,-0.2939853072166443,0.23365066945552826,-0.1112164780497551,2.507197618484497
329,3597097,3597099,-0.12684288620948792,-0.17621998488903046,0.9678356647491455,-1.328358769416809,1.5515426397323608,1.4597541093826294,-0.5279735922813416,-0.8279585838317871,-0.28798559308052063,0.2806532680988312,-0.16501955687999725,2.5210764408111572
330,3597107,3597109,-0.12775205075740814,0.005314632784575224,0.9950032830238342,-0.36745575070381165,2.712836265563965,1.3265326023101807,-0.5504724383354187,-0.8414579033851624,-0.2834858298301697,0.3478524386882782,-0.03301228955388069,2.520275115966797
331,3597117,3597119,-0.11670667678117752,-0.06972911208868027,1.022454857826233,0.544475257396698,2.811922550201416,1.1888872385025024,-0.5399730205535889,-0.8399580121040344,-0.28498575091362,0.30151116847991943,-0.11457188427448273,2.540945053100586
332,3597127,3597129,-0.025282952934503555,-0.02818373776972294,1.0777833461761475,0.4349120259284973,2.5898678302764893,1.1426671743392944,-0.5459727048873901,-0.836958110332489,-0.28798559308052063,0.23722222447395325,-0.04954584687948227,2.5535948276519775
333,3597137,3597139,-0.2021809220314026,0.07991961389780045,1.0002820491790771,-0.06658434867858887,1.9326962232589722,1.4031732082366943,-0.5339732766151428,-0.8249587416648865,-0.28798559308052063,0.18480676412582397,-0.05948861688375473,2.5681917667388916
334,3597147,3597149,-0.18690411746501923,-0.04589426890015602,1.019560694694519,-0.28597140312194824,2.0871071815490723,0.6578547954559326,-0.5459727048873901,-0.836958110332489,-0.28798559308052063,0.1187647357583046,-0.07619013637304306,2.5758845806121826
335,3597157,3597159,-0.059531860053539276,-0.03233207389712334,1.0015130043029785,-1.150310754776001,1.708747148513794,0.7999772429466248,-0.5489725470542908,-0.8279585838317871,-0.2969851493835449,0.13203133642673492,-0.09533017873764038,2.5799076557159424
336,3597167,3597169,0.04933558404445648,0.015767324715852737,0.9912207126617432,-0.8144627809524536,2.1794610023498535,1.226011872291565,-0.5444727540016174,-0.8114594221115112,-0.2924853563308716,0.18431013822555542,-0.051314495503902435,2.583298683166504
337,3597177,3597179,-0.06179124116897583,-0.048407260328531265,1.0056625604629517,-2.052093267440796,1.4752298593521118,1.2153489589691162,-0.5534723401069641,-0.8294585347175598,-0.28048595786094666,0.16669024527072906,-0.14990267157554626,2.6029884815216064
338,3597187,3597189,-0.023016812279820442,0.15471221506595612,1.029126524925232,-1.5999330282211304,1.814960241317749,0.4668453335762024,-0.5384730696678162,-0.8204589486122131,-0.28048595786094666,0.20797403156757355,-0.09658322483301163,2.6110751628875732
339,3597197,3597199,0.0075606610625982285,-0.033610690385103226,1.0920038223266602,-1.173358678817749,1.8314030170440674,1.380012035369873,-0.5399730205535889,-0.8399580121040344,-0.29098543524742126,0.15057547390460968,-0.057596322149038315,2.6179378032684326
340,3597207,3597209,0.0015557627193629742,0.05233092978596687,0.9991416335105896,-1.3180114030838013,1.2233071327209473,1.5369139909744263,-0.5429728627204895,-0.8309584259986877,-0.2939853072166443,0.1077931821346283,-0.095521479845047,2.634910821914673
341,3597217,3597219,-0.013582739047706127,-0.03546127676963806,1.014378547668457,-2.177229404449463,1.4335484504699707,0.9052397012710571,-0.5414729118347168,-0.8354582190513611,-0.28048595786094666,0.07096107304096222,-0.14378340542316437,2.649873733520508
342,3597227,3597229,-0.09318844228982925,0.020049910992383957,0.9937488436698914,-2.4376142024993896,2.5178871154785156,0.6015883088111877,-0.5489725470542908,-0.8339582681655884,-0.29998499155044556,0.06654907017946243,-0.18864551186561584,2.654764175415039
343,3597237,3597239,-0.01935495436191559,0.010372975841164589,0.9643707871437073,-2.694218873977661,3.2964797019958496,1.0674809217453003,-0.5384730696678162,-0.8324583768844604,-0.28948551416397095,0.07740654796361923,-0.16006557643413544,2.6593308448791504
344,3597247,3597249,-0.07653157413005829,-0.0636582002043724,1.0021477937698364,-3.5013484954833984,4.016225814819336,0.5832287073135376,-0.5354732275009155,-0.8324583768844604,-0.3044847846031189,0.026874415576457977,-0.23081444203853607,2.675354480743408
345,3597257,3597259,-0.00013147213030606508,0.11761561036109924,1.020811676979065,-1.5855401754379272,4.373976707458496,0.1792205572128296,-0.5399730205535889,-0.8279585838317871,-0.30898454785346985,-0.07745878398418427,-0.20808565616607666,2.680452585220337
346,3597267,3597269,0.007869727909564972,0.07949865609407425,1.0792732238769531,-1.1049607992172241,4.072152137756348,0.56809002161026,-0.5474725961685181,-0.8264586329460144,-0.2834858298301697,-0.17955228686332703,-0.2397233247756958,2.687389373779297
347,3597277,3597279,-0.033240437507629395,-0.03374289721250534,1.0300043821334839,-1.366927981376648,3.0339765548706055,0.5091301798820496,-0.5429728627204895,-0.8339582681655884,-0.28798559308052063,-0.2697284519672394,-0.2852400243282318,2.6964190006256104
348,3597287,3597289,0.011929680593311787,-0.1187596321105957,0.9789413809776306,-1.4998900890350342,-0.14224646985530853,0.23168224096298218,-0.5324733853340149,-0.8414579033851624,-0.31048446893692017,-0.32214364409446716,-0.3307633399963379,2.6939752101898193
349,3597297,3597299,-0.06014687195420265,-0.0381699874997139,1.0252811908721924,-0.3244889974594116,-3.371774196624756,-0.2641226053237915,-0.5504724383354187,-0.8234587907791138,-0.28948551416397095,-0.29213273525238037,-0.2858339846134186,2.689908027648926
350,3597307,3597309,-0.022709133103489876,0.05384022742509842,1.0019795894622803,1.5725321769714355,-5.962003707885742,-0.36653009057044983,-0.5519723892211914,-0.8279585838317871,-0.3029848337173462,-0.20503471791744232,-0.29661887884140015,2.687397003173828
351,3597317,3597319,-0.037176430225372314,-0.08000541478395462,1.0030473470687866,1.163137674331665,-6.617604732513428,-0.290805846452713,-0.5339732766151428,-0.8189590573310852,-0.29098543524742126,-0.1010078638792038,-0.28551778197288513,2.690647840499878
352,3597327,3597329,-0.046974778175354004,0.08299409598112106,1.0517313480377197,2.094608783721924,-6.3951239585876465,-0.9836012721061707,-0.5519723892211914,-0.8279585838317871,-0.28198590874671936,-0.037528008222579956,-0.26916834712028503,2.688910961151123
353,3597337,3597339,0.02174643985927105,0.1441725641489029,1.0846325159072876,2.47748064994812,-4.058162212371826,-0.5541691184043884,-0.5459727048873901,-0.8279585838317871,-0.2939853072166443,-0.04021980240941048,-0.24504780769348145,2.6799991130828857
354,3597347,3597349,0.019628172740340233,-0.07633854448795319,1.0105191469192505,2.4622139930725098,-2.986492156982422,-1.0103780031204224,-0.5444727540016174,-0.8234587907791138,-0.2954852283000946,0.08272401243448257,-0.2205425500869751,2.670234441757202
355,3597357,3597359,-0.03863317891955376,-0.12105897814035416,0.9457449316978455,2.0843608379364014,-0.9417666792869568,0.009542024694383144,-0.5414729118347168,-0.8234587907791138,-0.28048595786094666,0.05592668429017067,-0.19584089517593384,2.65798020362854
356,3597367,3597369,-0.0918554812669754,-0.07291992753744125,0.9723464846611023,0.3543284237384796,0.7914308309555054,-0.6560813784599304,-0.5459727048873901,-0.8189590573310852,-0.29098543524742126,0.083506278693676,-0.17480753362178802,2.6518948078155518
357,3597377,3597379,-0.028994420543313026,0.07865902036428452,1.0019638538360596,-0.8976559638977051,2.771761178970337,-0.18316411972045898,-0.5414729118347168,-0.8204589486122131,-0.2954852283000946,0.09649558365345001,-0.17169737815856934,2.648465156555176
358,3597387,3597389,0.03418099135160446,0.023153970018029213,1.0015665292739868,-2.0046329498291016,3.7422852516174316,-0.6073812246322632,-0.5264736413955688,-0.8174591064453125,-0.28948551416397095,0.05117160081863403,-0.19955995678901672,2.6478569507598877
359,3597397,3597399,-0.08029063791036606,-0.0396059975028038,1.0184305906295776,-2.085632801055908,4.137198448181152,-0.6982956528663635,-0.5399730205535889,-0.836958110332489,-0.28198590874671936,-0.019263319671154022,-0.2450871616601944,2.6440398693084717
360,3597407,3597409,0.026084033772349358,0.0749523788690567,1.0236563682556152,-2.164001226425171,4.866459846496582,-1.5276215076446533,-0.5474725961685181,-0.8174591064453125,-0.28948551416397095,-0.06303098052740097,-0.2848028242588043,2.631631374359131
361,3597417,3597419,-0.026826459914445877,0.0018185490043833852,1.032488226890564,-0.24265053868293762,3.9582717418670654,-1.5285694599151611,-0.5534723401069641,-0.8294585347175598,-0.2954852283000946,-0.13374274969100952,-0.3152495324611664,2.6131832599639893
362,3597427,3597429,-0.011642925441265106,-0.015024985186755657,1.0138375759124756,1.5520341396331787,2.840468406677246,-1.4538791179656982,-0.5384730696678162,-0.8174591064453125,-0.28048595786094666,-0.11776738613843918,-0.24502211809158325,2.5935428142547607
363,3597437,3597439,-0.17966032028198242,-0.06138860061764717,0.9969428181648254,1.3823798894882202,1.1706211566925049,-1.69314444065094,-0.5399730205535889,-0.8009599447250366,-0.28498575091362,-0.15144795179367065,-0.23104703426361084,2.5754575729370117
364,3597447,3597449,0.013624836690723896,0.0021724936086684465,0.9769442677497864,3.0597965717315674,-1.57096266746521,-2.0452427864074707,-0.5429728627204895,-0.8219588994979858,-0.28798559308052063,-0.15001581609249115,-0.2061804085969925,2.5563018321990967
365,3597457,3597459,-0.08552008122205734,0.025298621505498886,1.014000415802002,3.6876189708709717,-3.496626853942871,-1.9642558097839355,-0.5414729118347168,-0.8294585347175598,-0.277486115694046,-0.07748741656541824,-0.2124832421541214,2.541999578475952
366,3597467,3597469,0.00910868402570486,0.036827556788921356,1.0042660236358643,4.292433738708496,-3.9983768463134766,-1.7352803945541382,-0.5384730696678162,-0.8234587907791138,-0.29848507046699524,-0.018693087622523308,-0.14465847611427307,2.5300638675689697
367,3597477,3597479,-0.043240416795015335,-0.0008732971036806703,0.9990752339363098,2.652487277984619,-2.7555692195892334,-2.336293935775757,-0.5489725470542908,-0.8219588994979858,-0.28798559308052063,0.09768068790435791,-0.08605241775512695,2.509229898452759
368,3597487,3597489,0.02560160495340824,0.04976511374115944,1.0327939987182617,2.7431812286376953,-0.0053781429305672646,-2.1964974403381348,-0.5384730696678162,-0.8324583768844604,-0.28948551416397095,0.000554083613678813,-0.04975443333387375,2.48520565032959
369,3597497,3597499,-0.022044949233531952,-0.037917543202638626,1.0139501094818115,2.0091593265533447,1.9876840114593506,-2.280745506286621,-0.5564721822738647,-0.8204589486122131,-0.2924853563308716,-0.017920004203915596,-0.01623431220650673,2.4619085788726807
370,3597507,3597509,-0.03063144162297249,-0.21542365849018097,0.9675706624984741,0.0823231115937233,3.498744010925293,-2.0421249866485596,-0.5339732766151428,-0.8249587416648865,-0.28798559308052063,-0.03947359696030617,-0.0066844988614320755,2.4384865760803223
371,3597517,3597519,-0.11921100318431854,-0.2001924365758896,0.9330036640167236,-2.246309518814087,4.9802961349487305,-2.1113080978393555,-0.5339732766151428,-0.8069596290588379,-0.28198590874671936,-0.02534991316497326,-0.021510999649763107,2.4117960929870605
372,3597527,3597529,-0.028029780834913254,-0.045935116708278656,0.9453582763671875,-3.5192649364471436,4.7374372482299805,-1.72682785987854,-0.5444727540016174,-0.8114594221115112,-0.2864856719970703,-0.0877997949719429,-0.19694438576698303,2.389174461364746
373,3597537,3597539,0.00033270387211814523,0.04341511428356171,0.9801523685455322,-4.296655654907227,3.769470691680908,-2.397334337234497,-0.5444727540016174,-0.8174591064453125,-0.2834858298301697,-0.12141718715429306,-0.16500204801559448,2.3744161128997803
374,3597547,3597549,-0.05594781041145325,0.0032522534020245075,1.0077731609344482,-2.4190335273742676,2.833089828491211,-2.1384201049804688,-0.5429728627204895,-0.8279585838317871,-0.29098543524742126,-0.17538902163505554,-0.15258537232875824,2.353745698928833
375,3597557,3597559,0.0341201052069664,0.03974829986691475,0.9856347441673279,-1.2742820978164673,1.1418819427490234,-2.2644035816192627,-0.5399730205535889,-0.8279585838317871,-0.29098543524742126,-0.224655419588089,-0.18913601338863373,2.3338170051574707
376,3597567,3597569,-0.03474322333931923,-0.06014564633369446,0.9954103231430054,0.4222053289413452,-0.042253416031599045,-2.5585975646972656,-0.5429728627204895,-0.8249587416648865,-0.2939853072166443,-0.17896270751953125,-0.19988128542900085,2.3100013732910156
377,3597577,3597579,-0.20337647199630737,-0.0006338981911540031,1.00021231174469,1.6799639463424683,-1.4960801601409912,-1.966821551322937,-0.5309734344482422,-0.8219588994979858,-0.29098543524742126,-0.11147993803024292,-0.18869513273239136,2.28378963470459
378,3597587,3597589,-0.027235276997089386,-0.058225542306900024,0.995212972164154,2.324807643890381,-1.5329639911651611,-0.906840443611145,-0.5429728627204895,-0.8249587416648865,-0.28498575091362,-0.033274777233600616,-0.16059988737106323,2.262993097305298
379,3597597,3597599,-0.00974550936371088,-0.020772719755768776,0.9981072545051575,3.795027732849121,-1.3966643810272217,-0.9524053335189819,-0.5459727048873901,-0.8279585838317871,-0.2969851493835449,-0.025618158280849457,-0.11354784667491913,2.2527127265930176
380,3597607,3597609,-0.06831397116184235,-0.02778906561434269,1.0106369256973267,3.6534624099731445,-0.013057442381978035,-0.8951888680458069,-0.5504724383354187,-0.8294585347175598,-0.29848507046699524,-0.1560629904270172,-0.12335973232984543,2.243364095687866
381,3597617,3597619,0.03300050273537636,0.006971670780330896,0.9832818508148193,2.1204748153686523,0.8936716318130493,-1.0144884586334229,-0.5429728627204895,-0.8279585838317871,-0.29998499155044556,-0.07828783988952637,-0.06187650188803673,2.234905958175659
382,3597627,3597629,-0.0655156597495079,-0.03253673017024994,1.012032151222229,0.823750913143158,1.4089947938919067,-1.6783573627471924,-0.5444727540016174,-0.8294585347175598,-0.2834858298301697,-0.16745837032794952,-0.03999050706624985,2.2248523235321045
383,3597637,3597639,-0.062410712242126465,-0.038272663950920105,0.9940353631973267,-0.19303911924362183,1.819052815437317,-1.7796014547348022,-0.5459727048873901,-0.8159592151641846,-0.3029848337173462,-0.2006426602602005,-0.029462255537509918,2.209296226501465
384,3597647,3597649,-0.10857902467250824,-0.11818358302116394,1.0164923667907715,-0.25067371129989624,1.760912299156189,-1.020237922668457,-0.5474725961685181,-0.8174591064453125,-0.2834858298301697,-0.23848052322864532,-0.10297278314828873,2.192716121673584
385,3597657,3597659,-0.11009880900382996,0.01838168315589428,1.0046128034591675,-1.118592619895935,0.9453656077384949,-0.6005059480667114,-0.5249737501144409,-0.8219588994979858,-0.28498575091362,-0.13271664083003998,-0.11104292422533035,2.182920217514038
386,3597667,3597669,0.04991345852613449,0.028505602851510048,0.983128011226654,-0.07757502794265747,-0.5513893961906433,-0.14897361397743225,-0.5594720244407654,-0.8264586329460144,-0.2954852283000946,-0.15811382234096527,-0.05702589452266693,2.1779823303222656
387,3597677,3597679,-0.07668916881084442,-0.053867921233177185,1.014325499534607,1.072371482849121,-0.47768905758857727,-0.5068952441215515,-0.5429728627204895,-0.8279585838317871,-0.3029848337173462,-0.15575358271598816,-0.059333402663469315,2.1741926670074463
388,3597687,3597689,-0.014952956698834896,0.06037253513932228,0.9863358736038208,0.20259425044059753,0.2991570234298706,-0.9185225963592529,-0.5309734344482422,-0.8129593133926392,-0.28798559308052063,-0.14724352955818176,-0.05299490690231323,2.1675965785980225
389,3597697,3597699,-0.0194991584867239,-0.032754868268966675,0.9917086362838745,1.862998366355896,0.20534995198249817,-0.5775259733200073,-0.5354732275009155,-0.8234587907791138,-0.2864856719970703,-0.14196935296058655,-0.1072731539607048,2.158468723297119
390,3597707,3597709,-0.04125369340181351,-0.08476067334413528,1.0098849534988403,2.632373571395874,0.12872162461280823,-0.793334424495697,-0.5384730696678162,-0.8144592642784119,-0.28948551416397095,-0.14405407011508942,-0.06405828148126602,2.1531965732574463
391,3597717,3597719,-0.3463708162307739,-0.05126728489995003,1.008479118347168,3.028917074203491,0.6425216794013977,-0.3986082077026367,-0.5474725961685181,-0.8204589486122131,-0.2864856719970703,-0.15477468073368073,-0.005771406926214695,2.1475002765655518
392,3597727,3597729,-0.11768786609172821,-0.008687826804816723,0.9751712679862976,2.047591209411621,0.10129348188638687,-1.0508794784545898,-0.5504724383354187,-0.8204589486122131,-0.28948551416397095,-0.16978837549686432,0.038751255720853806,2.1450979709625244
393,3597737,3597739,-0.08475486189126968,-0.030624352395534515,1.005387544631958,0.953032374382019,-0.5840570330619812,-1.1613205671310425,-0.5579720735549927,-0.8249587416648865,-0.3029848337173462,-0.18355345726013184,0.06343746930360794,2.1352550983428955
394,3597747,3597749,-0.08282157778739929,0.03214237466454506,0.9949179887771606,0.9371402859687805,-1.0924428701400757,-1.2032034397125244,-0.5444727540016174,-0.8264586329460144,-0.2924853563308716,-0.18638482689857483,0.0027027688920497894,2.120908737182617
395,3597757,3597759,-0.06075860932469368,-0.025005334988236427,0.9848995804786682,0.7863463759422302,-0.4911705255508423,-1.0551010370254517,-0.5444727540016174,-0.8264586329460144,-0.2924853563308716,-0.1781967133283615,0.029211079701781273,2.1094889640808105
396,3597767,3597769,-0.13200156390666962,-0.11158594489097595,1.0101324319839478,1.5640263557434082,0.16180142760276794,-0.6141195297241211,-0.5444727540016174,-0.8264586329460144,-0.2924853563308716,-0.17009897530078888,0.04993335157632828,2.098998546600342
397,3597777,3597779,-0.3982744812965393,-0.08863919228315353,0.9970308542251587,2.016556739807129,0.7424042820930481,-0.32084718346595764,-0.5444727540016174,-0.8264586329460144,-0.2924853563308716,-0.16697223484516144,0.00803727749735117,2.090172290802002
398,3597787,3597789,-0.17797192931175232,0.035166144371032715,0.9811393618583679,2.211611270904541,1.124995470046997,-0.35606127977371216,-0.5489725470542908,-0.8189590573310852,-0.2969851493835449,-0.16786469519138336,0.11790062487125397,2.0869228839874268
399,3597797,3597799,-0.03980977460741997,-0.03458112105727196,1.0087904930114746,2.183237075805664,0.981353223323822,0.19775784015655518,-0.5339732766151428,-0.8159592151641846,-0.2969851493835449,-0.17730110883712769,0.09334050863981247,2.0824193954467773
400,3597807,3597809,-0.058941613882780075,-0.003284881357103586,1.0011961460113525,1.518399715423584,-0.27719148993492126,-0.19106680154800415,-0.5399730205535889,-0.8249587416648865,-0.2939853072166443,-0.17829421162605286,0.12844273447990417,2.081972360610962
401,3597817,3597819,0.03841385990381241,-0.023968977853655815,0.9793731570243835,0.04862559214234352,-1.084671139717102,-0.06493336707353592,-0.5384730696678162,-0.8234587907791138,-0.2924853563308716,-0.17696045339107513,0.14639341831207275,2.0804312229156494
402,3597827,3597829,-0.026202579960227013,-0.27727025747299194,1.0057774782180786,-0.7254208326339722,-0.3052249848842621,0.3574669361114502,-0.5414729118347168,-0.8354582190513611,-0.2834858298301697,-0.180902898311615,0.14509612321853638,2.0804667472839355
403,3597837,3597839,-0.26272067427635193,-0.20908446609973907,1.0028727054595947,-0.28227320313453674,0.45880332589149475,0.6708769202232361,-0.5459727048873901,-0.8309584259986877,-0.28798559308052063,-0.1827162653207779,0.13855284452438354,2.0824220180511475
404,3597847,3597849,-0.1970360428094864,-0.085238017141819,1.0142602920532227,-0.8100057244300842,0.8480367660522461,0.20238237082958221,-0.5429728627204895,-0.8279585838317871,-0.28498575091362,-0.1989585906267166,0.130281001329422,2.086566209793091
405,3597857,3597859,0.001926418044604361,-0.011311031877994537,1.0000712871551514,-0.7416915893554688,0.5048385262489319,0.4336652457714081,-0.5489725470542908,-0.8279585838317871,-0.2939853072166443,-0.2188635617494583,0.12196128070354462,2.0877177715301514
406,3597867,3597869,-0.08296333253383636,-0.003380897454917431,1.0076297521591187,0.7710075378417969,0.1837986409664154,-0.06020963937044144,-0.5384730696678162,-0.8294585347175598,-0.29848507046699524,-0.21497981250286102,0.12077450752258301,2.089372158050537
407,3597877,3597879,0.028294209390878677,0.04366707056760788,0.9746702313423157,-0.041167642921209335,-0.8671007752418518,-0.7784695029258728,-0.5489725470542908,-0.8339582681655884,-0.28498575091362,-0.18956804275512695,0.1326914280653,2.087517261505127
408,3597887,3597889,-0.12517662346363068,-0.1103084534406662,1.0201584100723267,-0.5959693193435669,-1.7222849130630493,-0.3754991292953491,-0.5264736413955688,-0.8264586329460144,-0.2924853563308716,-0.1564624309539795,0.13151247799396515,2.082383871078491
409,3597897,3597899,-0.08187458664178848,-0.13926434516906738,1.0030627250671387,-0.782949686050415,-2.1011128425598145,-0.44443243741989136,-0.5534723401069641,-0.8234587907791138,-0.28048595786094666,-0.13018399477005005,0.12336987257003784,2.0799789428710938
410,3597907,3597909,-0.03233976289629936,-0.14634929597377777,1.010300636291504,-0.9026623964309692,-1.7789939641952515,-0.6032617092132568,-0.5369731187820435,-0.8339582681655884,-0.29098543524742126,-0.10221120715141296,0.11382965743541718,2.0750131607055664
411,3597917,3597919,-0.09006178379058838,0.01152876392006874,1.0168243646621704,0.3513544797897339,-0.9839659929275513,0.09726882725954056,-0.5354732275009155,-0.8324583768844604,-0.3014849126338959,-0.09116334468126297,0.09705818444490433,2.071101665496826
412,3597927,3597929,-0.07881134003400803,-0.17672304809093475,1.0211358070373535,0.2975533902645111,-0.3926739990711212,0.6371045708656311,-0.5444727540016174,-0.8264586329460144,-0.2864856719970703,-0.13366129994392395,0.08489533513784409,2.069361686706543
413,3597937,3597939,0.03235258534550667,-0.0842469185590744,0.9789118766784668,0.46649712324142456,-0.3418837785720825,0.31087425351142883,-0.5414729118347168,-0.8174591064453125,-0.28948551416397095,-0.22319938242435455,0.08893487602472305,2.066607713699341
414,3597947,3597949,-0.08496088534593582,-0.02141292579472065,1.013185977935791,0.8026326894760132,0.32712122797966003,0.3751347064971924,-0.5354732275009155,-0.8174591064453125,-0.28948551416397095,-0.20890922844409943,0.10173900425434113,2.070185661315918
415,3597957,3597959,-0.02585960552096367,0.02639409340918064,0.9829409122467041,0.5913506150245667,0.5693962574005127,-0.16776123642921448,-0.5474725961685181,-0.8174591064453125,-0.2864856719970703,-0.1936299204826355,0.10792633891105652,2.073720932006836
416,3597967,3597969,-0.05256461352109909,-0.14168085157871246,1.0265963077545166,1.3435765504837036,0.16626320779323578,-0.22451850771903992,-0.5444727540016174,-0.8294585347175598,-0.2834858298301697,-0.18379147350788116,0.13243001699447632,2.0741260051727295
417,3597977,3597979,-0.09255729615688324,-0.04496137425303459,1.01324462890625,0.36546820402145386,0.38218435645103455,-0.09535650908946991,-0.5429728627204895,-0.8339582681655884,-0.28798559308052063,-0.17292575538158417,0.14807076752185822,2.0727405548095703
418,3597987,3597989,-0.050707146525382996,-0.06061956658959389,1.018256425857544,1.2732763290405273,-1.9747309684753418,-0.8974511623382568,-0.5534723401069641,-0.8294585347175598,-0.29848507046699524,-0.09273138642311096,0.16330786049365997,2.0747203826904297
419,3597997,3597999,-0.026320483535528183,-0.027465155348181725,1.0107866525650024,0.2749135494232178,-4.015987873077393,-1.0844173431396484,-0.5414729118347168,-0.8264586329460144,-0.2834858298301697,-0.056582096964120865,0.17263154685497284,2.0659170150756836
420,3598007,3598009,-0.015623955987393856,0.011017119511961937,0.9693575501441956,-0.20256845653057098,-4.79194450378418,-0.38383713364601135,-0.5474725961685181,-0.8354582190513611,-0.2954852283000946,-0.04762725159525871,0.1697780340909958,2.053380250930786
421,3598017,3598019,-0.022665904834866524,-0.08112426847219467,0.9994391202926636,-0.39266157150268555,-0.9064767360687256,-0.12749789655208588,-0.5474725961685181,-0.8354582190513611,-0.29848507046699524,0.0007681886781938374,0.16400951147079468,2.0489752292633057
422,3598027,3598029,-0.03790105879306793,-0.07394397258758545,1.0186767578125,0.004276501014828682,1.3757010698318481,0.0632510706782341,-0.5354732275009155,-0.8204589486122131,-0.28948551416397095,0.007449336349964142,0.15984492003917694,2.0471513271331787
423,3598037,3598039,-0.17379751801490784,-0.18666012585163116,0.9632596969604492,-0.3755902349948883,3.4412968158721924,0.03887607529759407,-0.5429728627204895,-0.8309584259986877,-0.2939853072166443,0.022649209946393967,0.15547093749046326,2.048875093460083
424,3598047,3598049,-0.11141248047351837,-0.05686885863542557,1.01726496219635,0.26086726784706116,5.190410137176514,-0.4596113860607147,-0.5414729118347168,-0.8234587907791138,-0.28948551416397095,0.035010937601327896,0.15021207928657532,2.0491254329681396
425,3598057,3598059,-0.30514365434646606,-0.13175547122955322,1.0296880006790161,0.5761916637420654,5.498734474182129,0.2387390285730362,-0.554972231388092,-0.8249587416648865,-0.27898603677749634,-0.04738283157348633,0.15719766914844513,2.044215679168701
426,3598067,3598069,-0.1094808578491211,0.01970618963241577,0.9683623909950256,-0.4155952036380768,4.630227565765381,0.4032978117465973,-0.5414729118347168,-0.8384580612182617,-0.2864856719970703,-0.12988941371440887,0.16217826306819916,2.045074701309204
427,3598077,3598079,-0.06593009829521179,-0.04856889322400093,0.9854456186294556,-0.38119980692863464,2.810999631881714,0.2750638723373413,-0.5444727540016174,-0.8234587907791138,-0.2954852283000946,-0.1382293999195099,0.14985744655132294,2.0496957302093506
428,3598087,3598089,-0.05833600088953972,-0.002626144327223301,1.0039474964141846,-1.5519996881484985,0.9792072176933289,0.06851954013109207,-0.5489725470542908,-0.8279585838317871,-0.28798559308052063,-0.11975608766078949,0.135476216673851,2.0527472496032715
429,3598097,3598099,-0.038076356053352356,-0.08296168595552444,0.9932401776313782,-1.1530941724777222,0.7723840475082397,0.18123462796211243,-0.5429728627204895,-0.8249587416648865,-0.28798559308052063,-0.154065802693367,0.10881170630455017,2.0528159141540527
430,3598107,3598109,-0.003442427609115839,-0.07507448643445969,1.0153007507324219,-0.3872109353542328,0.6063255667686462,0.5001571774482727,-0.5354732275009155,-0.8384580612182617,-0.26848655939102173,-0.1764346957206726,0.08602321147918701,2.054262638092041
431,3598117,3598119,-0.2673605978488922,-0.09868640452623367,1.0017814636230469,1.1045889854431152,1.7220244407653809,1.2996649742126465,-0.5444727540016174,-0.8204589486122131,-0.2954852283000946,-0.19112956523895264,0.08233894407749176,2.059715986251831
432,3598127,3598129,-0.10535607486963272,-0.2550511062145233,0.9538930058479309,1.8071032762527466,0.4767778515815735,0.6769767999649048,-0.5399730205535889,-0.8249587416648865,-0.2939853072166443,-0.13577280938625336,0.10571528971195221,2.0739901065826416
433,3598137,3598139,-0.019748911261558533,-0.10420238971710205,0.9851833581924438,1.072309970855713,-0.15277737379074097,0.556665301322937,-0.5504724383354187,-0.8294585347175598,-0.2954852283000946,-0.12740640342235565,0.13003382086753845,2.0806334018707275
434,3598147,3598149,-0.08416584134101868,0.028584735468029976,1.0077836513519287,1.4591699838638306,-0.7223995327949524,1.6154167652130127,-0.5414729118347168,-0.8234587907791138,-0.29848507046699524,-0.12496066838502884,0.14960938692092896,2.0891306400299072
435,3598157,3598159,0.019642284139990807,-0.04739366099238396,1.0005905628204346,1.3448188304901123,0.13561059534549713,1.7310553789138794,-0.5519723892211914,-0.8279585838317871,-0.2969851493835449,-0.13418817520141602,0.1659560203552246,2.1037709712982178
436,3598167,3598169,-0.10860998183488846,-0.03320164978504181,1.007799506187439,1.5258902311325073,1.6319174766540527,1.6594181060791016,-0.5504724383354187,-0.8384580612182617,-0.28948551416397095,-0.16006425023078918,0.18765421211719513,2.1194941997528076
437,3598177,3598179,-0.00857457797974348,-0.10169557482004166,1.0075454711914062,2.1926558017730713,3.313699722290039,1.4994069337844849,-0.5444727540016174,-0.8414579033851624,-0.2924853563308716,-0.20568020641803741,0.21044205129146576,2.134143590927124
438,3598187,3598189,-0.11881508678197861,-0.0502985455095768,1.0376851558685303,0.9007658958435059,4.53679084777832,1.2469849586486816,-0.5489725470542908,-0.8279585838317871,-0.28498575091362,-0.26916399598121643,0.2340860515832901,2.147988796234131
439,3598197,3598199,-0.0069162845611572266,0.015574241988360882,0.9901045560836792,-0.03182468190789223,4.204447269439697,0.4543451964855194,-0.5504724383354187,-0.8324583768844604,-0.2864856719970703,-0.3399699926376343,0.23758330941200256,2.158372163772583
440,3598207,3598209,-0.11417708545923233,-0.05663153529167175,1.0158694982528687,-1.7295639514923096,2.5732920169830322,0.8111728429794312,-0.5309734344482422,-0.8339582681655884,-0.2939853072166443,-0.384524405002594,0.2277243584394455,2.162710428237915
441,3598217,3598219,-0.1133822649717331,0.007398927118629217,1.014811635017395,-2.015108585357666,-0.5046489238739014,0.9660505652427673,-0.5489725470542908,-0.8459576964378357,-0.29998499155044556,-0.33442422747612,0.19654914736747742,2.175542116165161
442,3598227,3598229,0.08839298039674759,0.010905526578426361,0.9883479475975037,-2.4146621227264404,-3.604320526123047,0.7206747531890869,-0.5459727048873901,-0.8459576964378357,-0.2939853072166443,-0.32198289036750793,0.15415671467781067,2.1867973804473877
443,3598237,3598239,-0.09090257436037064,-0.02625855803489685,1.0310263633728027,-4.863425254821777,-3.6935436725616455,1.0072147846221924,-0.5309734344482422,-0.8399580121040344,-0.30898454785346985,-0.2743285298347473,0.08776647597551346,2.193941593170166
444,3598247,3598249,-0.0008438491495326161,-0.08359075337648392,1.0012013912200928,-3.6745433807373047,-4.118837833404541,0.8493251800537109,-0.5354732275009155,-0.8324583768844604,-0.2834858298301697,-0.21592503786087036,0.017645910382270813,2.203305959701538
445,3598257,3598259,-0.307075172662735,-0.14751885831356049,1.0499463081359863,-1.520265817642212,-2.5792930126190186,1.326777696609497,-0.5369731187820435,-0.8309584259986877,-0.28798559308052063,-0.2286653071641922,0.02698666974902153,2.210771322250366
446,3598267,3598269,-0.3921036124229431,-0.23654255270957947,0.9815599918365479,0.45161813497543335,-1.9178744554519653,1.0239912271499634,-0.5339732766151428,-0.836958110332489,-0.2939853072166443,-0.24712060391902924,0.005543018225580454,2.2194974422454834
447,3598277,3598279,-0.3542705476284027,-0.49333351850509644,1.0062487125396729,0.9716848731040955,-1.6223424673080444,0.8348264098167419,-0.5369731187820435,-0.8249587416648865,-0.2939853072166443,-0.19732490181922913,0.01650416851043701,2.2294650077819824
448,3598287,3598289,-0.38731449842453003,-0.309355765581131,0.9934656620025635,2.843531370162964,-2.3686673641204834,1.1747715473175049,-0.5369731187820435,-0.8309584259986877,-0.2969851493835449,-0.16074393689632416,0.040254637598991394,2.2411022186279297
449,3598297,3598299,-0.018203474581241608,-0.06125270947813988,1.0074210166931152,3.2246804237365723,-3.349414587020874,1.2350356578826904,-0.5459727048873901,-0.8309584259986877,-0.29998499155044556,-0.1265239268541336,0.08444952219724655,2.254883289337158
450,3598307,3598309,-0.08659542351961136,0.00541283842176199,1.0200740098953247,1.3817540407180786,-1.572464108467102,1.4293941259384155,-0.5459727048873901,-0.8219588994979858,-0.2939853072166443,-0.09617193788290024,0.12026405334472656,2.266793966293335
451,3598317,3598319,0.04660458117723465,-0.04268436133861542,0.9936997890472412,1.3981019258499146,0.31247544288635254,1.5214060544967651,-0.5519723892211914,-0.8309584259986877,-0.29998499155044556,-0.08687860518693924,0.1337921917438507,2.2807371616363525
452,3598327,3598329,-0.05865936726331711,0.038114458322525024,1.0095372200012207,1.5380866527557373,2.6438705921173096,0.8979293704032898,-0.5474725961685181,-0.8324583768844604,-0.2924853563308716,-0.08949775248765945,0.1593419760465622,2.2946581840515137
453,3598337,3598339,0.00965096428990364,-0.02778032049536705,0.9999021291732788,0.884070634841919,4.445681571960449,0.6118670701980591,-0.5369731187820435,-0.8249587416648865,-0.27898603677749634,-0.13212938606739044,0.17518413066864014,2.303847312927246
454,3598347,3598349,-0.10872932523488998,-0.07986346632242203,1.0266011953353882,-0.010483786463737488,5.566575527191162,0.6395284533500671,-0.5459727048873901,-0.8399580121040344,-0.2969851493835449,-0.19907477498054504,0.18672297894954681,2.3074142932891846
455,3598357,3598359,-0.22184616327285767,-0.32485517859458923,1.0106967687606812,-1.4114222526550293,4.290078639984131,0.18739837408065796,-0.5399730205535889,-0.8249587416648865,-0.29098543524742126,-0.2757333219051361,0.17260463535785675,2.311450242996216
456,3598367,3598369,-0.10601595044136047,-0.2074567824602127,1.008012294769287,-2.766512393951416,1.164186954498291,-0.0571548156440258,-0.5474725961685181,-0.8354582190513611,-0.3044847846031189,-0.3359054625034332,0.13223497569561005,2.312596321105957
457,3598377,3598379,-0.09290944784879684,-0.021453741937875748,1.0189684629440308,-2.9740817546844482,-2.1177446842193604,0.36266010999679565,-0.5399730205535889,-0.8129593133926392,-0.28798559308052063,-0.34518182277679443,0.14801082015037537,2.31223726272583
458,3598387,3598389,0.08112000674009323,0.019731851294636726,0.9799595475196838,-5.145789623260498,-3.5375709533691406,0.5708028674125671,-0.5384730696678162,-0.8234587907791138,-0.2834858298301697,-0.300767719745636,0.08097846806049347,2.314474105834961
459,3598397,3598399,-0.13432815670967102,0.0010769728105515242,1.013954758644104,-3.2303361892700195,-4.720887660980225,0.6448346376419067,-0.5399730205535889,-0.8219588994979858,-0.2969851493835449,-0.22015714645385742,0.0021231668069958687,2.3210630416870117
460,3598407,3598409,-0.000720051524695009,-0.05758590251207352,0.9937319755554199,-2.7843000888824463,-4.3179755210876465,1.0164045095443726,-0.5369731187820435,-0.8249587416648865,-0.29098543524742126,-0.12941832840442657,0.01244291104376316,2.3313608169555664
461,3598417,3598419,-0.1283908486366272,0.019812891259789467,1.0113576650619507,-0.18709175288677216,-5.239828586578369,0.621394157409668,-0.5444727540016174,-0.8294585347175598,-0.3044847846031189,-0.049150723963975906,-0.019377313554286957,2.3414995670318604
462,3598427,3598429,-0.025010738521814346,-0.1705571860074997,1.0247458219528198,2.075253486633301,-5.000298976898193,-0.15742313861846924,-0.5309734344482422,-0.836958110332489,-0.2939853072166443,0.030778702348470688,-0.014728094451129436,2.346367120742798
463,3598437,3598439,-0.10048770159482956,-0.8629158139228821,1.0158215761184692,3.778487205505371,-3.366558313369751,0.2902142107486725,-0.5309734344482422,-0.8249587416648865,-0.3059847056865692,0.09400288015604019,0.02279866859316826,2.345383644104004
464,3598447,3598449,-0.15365439653396606,-0.40677326917648315,1.0245133638381958,2.5717337131500244,-1.2468270063400269,0.8749887347221375,-0.5354732275009155,-0.8324583768844604,-0.2924853563308716,0.12121898680925369,0.07650060206651688,2.3501269817352295
