,timestamp_start,timestamp_end,acc.x,acc.y,acc.z,gyro.x,gyro.y,gyro.z,mag.x,mag.y,mag.z,stabilizer.pitch,stabilizer.roll,stabilizer.yaw
0,3668659,3668661,-0.45267221331596375,-0.1581692099571228,1.1185986995697021,1.8333686590194702,-20.620826721191406,0.2588033080101013,-0.5399730205535889,-0.8579570651054382,-0.3149842321872711,-7.015162467956543,5.446066379547119,-3.048208713531494
1,3668669,3668671,-0.1569521278142929,-0.17720934748649597,1.1081714630126953,-3.368006944656372,-23.11349868774414,0.6294116377830505,-0.5384730696678162,-0.8684565424919128,-0.3254837095737457,-6.835058212280273,5.608857154846191,-2.8831679821014404
2,3668679,3668681,-0.07621723413467407,-0.17074881494045258,1.1039187908172607,-8.136467933654785,-23.892797470092773,-0.043953198939561844,-0.5309734344482422,-0.8759561777114868,-0.3209839463233948,-6.599819183349609,5.583671569824219,-2.8646240234375
3,3668689,3668691,-0.08809580653905869,-0.20539957284927368,1.1008353233337402,-11.317934036254883,-27.1973934173584,-0.5346407294273376,-0.5309734344482422,-0.8879556059837341,-0.32698363065719604,-6.311696529388428,5.605006217956543,-2.7333078384399414
4,3668699,3668701,-0.042076341807842255,-0.15295453369617462,1.1838161945343018,-14.410879135131836,-26.92520523071289,-0.7136882543563843,-0.5234737992286682,-0.8744562864303589,-0.31948402523994446,-6.126739025115967,5.400135517120361,-2.8814194202423096
5,3668709,3668711,-0.24926213920116425,0.009430332109332085,1.0482871532440186,-15.230045318603516,-32.006080627441406,-1.0650893449783325,-0.5369731187820435,-0.8729563355445862,-0.30898454785346985,-5.7880859375,5.287740230560303,-2.8591887950897217
6,3668719,3668721,-0.05420548841357231,-0.012512457557022572,1.0550540685653687,-17.776493072509766,-32.12710189819336,-0.0054689934477210045,-0.5234737992286682,-0.8624568581581116,-0.3044847846031189,-5.431210041046143,4.856544494628906,-3.1189563274383545
7,3668729,3668731,-0.010024627670645714,-0.10057646036148071,1.0886273384094238,-18.337039947509766,-31.776264190673828,0.5095192193984985,-0.5429728627204895,-0.8669566512107849,-0.3209839463233948,-5.318201065063477,4.616369247436523,-3.3236536979675293
8,3668739,3668741,-0.07953916490077972,-0.06820353865623474,1.0857620239257812,-15.44228458404541,-31.009187698364258,1.8065431118011475,-0.5159741640090942,-0.8639568090438843,-0.30898454785346985,-4.840941905975342,4.524177074432373,-3.15561842918396
9,3668749,3668751,-0.08748176693916321,-0.17296931147575378,1.1376889944076538,-11.699833869934082,-31.4923095703125,1.556686282157898,-0.5324733853340149,-0.850457489490509,-0.3044847846031189,-4.4832682609558105,4.448238849639893,-3.0887351036071777
10,3668759,3668761,-0.0215946976095438,-0.010176480747759342,1.0076689720153809,-7.459136962890625,-29.357234954833984,2.331622838973999,-0.5339732766151428,-0.851957380771637,-0.30898454785346985,-4.506500244140625,4.232968330383301,-3.418191432952881
11,3668769,3668771,-0.17677216231822968,0.04489642381668091,1.066253423690796,-7.313546657562256,-25.814729690551758,2.97948956489563,-0.5309734344482422,-0.8459576964378357,-0.3119843900203705,-4.146100997924805,4.2410759925842285,-3.2904598712921143
12,3668779,3668781,-0.18368567526340485,-0.11513762176036835,1.0731226205825806,-7.038955211639404,-26.33401107788086,2.9590256214141846,-0.5339732766151428,-0.8429578542709351,-0.29098543524742126,-4.18346643447876,4.111911773681641,-3.4967174530029297
13,3668789,3668791,-0.008840182796120644,-0.2243124097585678,1.0413984060287476,-8.35069751739502,-28.811386108398438,4.255498886108398,-0.5294735431671143,-0.8264586329460144,-0.3044847846031189,-3.89243483543396,4.034756660461426,-3.4739274978637695
14,3668799,3668801,-0.12192939966917038,-0.07780298590660095,1.0393190383911133,-7.987051963806152,-30.94546890258789,4.628633499145508,-0.5369731187820435,-0.8399580121040344,-0.3059847056865692,-3.553755521774292,4.002295017242432,-3.4062178134918213
15,3668809,3668811,-0.21213704347610474,-0.2603640854358673,1.0396909713745117,-11.582317352294922,-34.957916259765625,3.5225956439971924,-0.5219739079475403,-0.8399580121040344,-0.2939853072166443,-3.2894551753997803,3.995105028152466,-3.3759782314300537
16,3668819,3668821,-0.2204742729663849,-0.25357967615127563,1.1510233879089355,-14.780797004699707,-36.59326934814453,3.9005534648895264,-0.5249737501144409,-0.8279585838317871,-0.3029848337173462,-2.918452501296997,3.8467354774475098,-3.350975275039673
17,3668829,3668831,-0.04965709522366524,-0.029735177755355835,1.0293232202529907,-15.782479286193848,-39.61684799194336,3.814298391342163,-0.5189740657806396,-0.836958110332489,-0.29998499155044556,-2.6931426525115967,3.780888080596924,-3.3698384761810303
18,3668839,3668841,-0.3093389570713043,-0.16980856657028198,1.0745066404342651,-19.392736434936523,-41.36776351928711,4.382929801940918,-0.5249737501144409,-0.8189590573310852,-0.3059847056865692,-2.3487792015075684,3.586362600326538,-3.3719615936279297
19,3668849,3668851,-0.6093917489051819,-0.15273262560367584,1.0316705703735352,-20.55414390563965,-44.222904205322266,4.644783973693848,-0.5144742727279663,-0.8264586329460144,-0.2924853563308716,-1.806799054145813,3.3562943935394287,-3.3205580711364746
20,3668859,3668861,-0.7419278025627136,-0.3789147138595581,1.0560760498046875,-22.30697250366211,-42.133514404296875,5.013670921325684,-0.5189740657806396,-0.8249587416648865,-0.2969851493835449,-1.5552054643630981,3.0822696685791016,-3.370039224624634
21,3668869,3668871,-0.27692073583602905,-0.13843601942062378,0.9854444861412048,-22.5893611907959,-41.09638595581055,5.1882452964782715,-0.5069746375083923,-0.8069596290588379,-0.2969851493835449,-0.9508339762687683,2.7983713150024414,-3.2869927883148193
22,3668879,3668881,-0.31414270401000977,-0.767550528049469,1.0151145458221436,-22.117341995239258,-36.40653991699219,6.062664985656738,-0.5219739079475403,-0.8039597868919373,-0.3029848337173462,-0.8277411460876465,2.7016489505767822,-3.3030669689178467
23,3668889,3668891,-0.6154796481132507,-1.040984869003296,1.0391656160354614,-19.572723388671875,-33.89936828613281,6.284603118896484,-0.49947500228881836,-0.8084595799446106,-0.2834858298301697,-0.37735506892204285,2.4775571823120117,-3.229407787322998
24,3668899,3668901,-0.37593406438827515,-0.6263618469238281,1.025783658027649,-16.27621841430664,-29.29648780822754,5.9188103675842285,-0.5039747953414917,-0.8069596290588379,-0.2969851493835449,0.002690072637051344,2.3025448322296143,-3.1621439456939697
25,3668909,3668911,-0.1470525562763214,-0.31210267543792725,1.0695949792861938,-15.900430679321289,-25.590543746948242,6.256130218505859,-0.5054747462272644,-0.7994599938392639,-0.28948551416397095,0.11790315806865692,2.2113916873931885,-3.1543030738830566
26,3668919,3668921,-0.09438738971948624,-0.3086288571357727,0.9935446977615356,-12.61331558227539,-22.468910217285156,5.703284740447998,-0.509974479675293,-0.7949602603912354,-0.29098543524742126,0.5115554332733154,2.0122599601745605,-3.066549062728882
27,3668929,3668931,-0.03905920684337616,-0.07812429219484329,0.9513046145439148,-12.18215274810791,-20.918245315551758,6.236212730407715,-0.5054747462272644,-0.8024598360061646,-0.2924853563308716,0.3896504342556,2.035748243331909,-3.096052885055542
28,3668939,3668941,-0.07559626549482346,-0.3130033314228058,0.9761008620262146,-13.088040351867676,-20.23401641845703,6.4864420890808105,-0.5129743218421936,-0.7919603586196899,-0.28798559308052063,0.8082287311553955,1.8375279903411865,-2.9925537109375
29,3668949,3668951,-0.22825182974338531,-0.5192126035690308,0.9183789491653442,-15.334759712219238,-21.466243743896484,5.502100467681885,-0.5129743218421936,-0.7889605164527893,-0.28798559308052063,0.8067131638526917,1.7525897026062012,-2.9823551177978516
30,3668959,3668961,-0.11852780729532242,-0.10372406989336014,0.9132586717605591,-16.63142204284668,-22.64927864074707,5.711786270141602,-0.5009749531745911,-0.7919603586196899,-0.2759861946105957,1.1036007404327393,1.561825156211853,-2.9206948280334473
31,3668969,3668971,-0.5258950591087341,-0.08964311331510544,0.9470606446266174,-18.336750030517578,-25.34355926513672,6.016301155090332,-0.5039747953414917,-0.7769611477851868,-0.2759861946105957,1.5044231414794922,1.3478306531906128,-2.843000650405884
32,3668979,3668981,-0.2667579650878906,-0.10023583471775055,0.9456325173377991,-19.066173553466797,-29.911884307861328,7.25550651550293,-0.4934753179550171,-0.7874606251716614,-0.28948551416397095,1.7403335571289062,1.1835724115371704,-2.788313388824463
33,3668989,3668991,-0.06662044674158096,0.07627046853303909,1.0047343969345093,-20.048728942871094,-25.128664016723633,5.671751976013184,-0.48747560381889343,-0.7964601516723633,-0.28948551416397095,2.0994160175323486,0.9344756007194519,-2.7093615531921387
34,3668999,3669001,-0.09684503823518753,-0.09762756526470184,0.9377242922782898,-19.92797088623047,-22.53792953491211,6.295872211456299,-0.4859756827354431,-0.7739613056182861,-0.2669866383075714,2.278597593307495,0.7398624420166016,-2.655146360397339
35,3669009,3669011,-0.05721220746636391,-0.02714608795940876,0.9945387840270996,-18.25001335144043,-17.584266662597656,6.502233028411865,-0.47997599840164185,-0.7859606742858887,-0.27898603677749634,2.442627429962158,0.5490633249282837,-2.594024419784546
36,3669019,3669021,-0.21277524530887604,-0.36734631657600403,0.9346692562103271,-16.492237091064453,-14.774760246276855,6.809516906738281,-0.4829758405685425,-0.7679615616798401,-0.28798559308052063,2.7056679725646973,0.325479120016098,-2.5057761669158936
37,3669029,3669031,-0.17818598449230194,-0.2156011313199997,0.9965100884437561,-15.044715881347656,-10.862070083618164,7.314235687255859,-0.4919753968715668,-0.7769611477851868,-0.2759861946105957,2.844693899154663,0.1961829662322998,-2.4525718688964844
38,3669039,3669041,-0.10503685474395752,0.03472062200307846,0.9402621388435364,-12.266095161437988,-8.201142311096191,7.378026962280273,-0.48897555470466614,-0.7739613056182861,-0.28498575091362,2.90509033203125,-0.02953554317355156,-2.317939281463623
39,3669049,3669051,-0.07894407212734222,0.006449612323194742,0.976835310459137,-8.251960754394531,-5.5972819328308105,8.162064552307129,-0.502474844455719,-0.7844607830047607,-0.28948551416397095,2.858409881591797,0.010148528032004833,-2.3117215633392334
40,3669059,3669061,-0.1590942144393921,-0.12060938775539398,1.0186392068862915,-6.388043403625488,-3.290487766265869,8.157529830932617,-0.48147591948509216,-0.7694615125656128,-0.27148643136024475,3.0349323749542236,-0.1930316835641861,-2.1551828384399414
41,3669069,3669071,-0.3339160680770874,-0.41257041692733765,0.9770025610923767,-5.384740352630615,-0.8745825290679932,7.031511306762695,-0.49047547578811646,-0.7724613547325134,-0.27148643136024475,3.145023822784424,-0.2980477511882782,-2.069581985473633
42,3669079,3669081,-0.43579161167144775,-0.13004353642463684,0.9554331302642822,-4.185327053070068,-0.587872326374054,6.42533540725708,-0.4859756827354431,-0.7709614634513855,-0.28498575091362,3.072829246520996,-0.3053605854511261,-2.018490791320801
43,3669089,3669091,-0.3016532063484192,0.004801913630217314,0.9177539348602295,-4.735072135925293,-0.6833397150039673,6.659567356109619,-0.4934753179550171,-0.7694615125656128,-0.2654867172241211,3.1298367977142334,-0.31058600544929504,-1.9999796152114868
44,3669099,3669101,-0.21163807809352875,-0.1578129082918167,0.881580650806427,-4.031309127807617,-0.6929712891578674,6.550533771514893,-0.47847607731819153,-0.7634618282318115,-0.26848655939102173,3.1211230754852295,-0.45789480209350586,-1.8511055707931519
45,3669109,3669111,-0.23168593645095825,-0.3769526183605194,0.9118765592575073,-6.481566429138184,-0.5249994397163391,6.808448791503906,-0.48897555470466614,-0.7679615616798401,-0.28198590874671936,3.241243600845337,-0.4662037193775177,-1.8558664321899414
46,3669119,3669121,-0.1786508560180664,-0.06269247084856033,0.9062311053276062,-6.796002388000488,-1.1398215293884277,6.353718280792236,-0.48747560381889343,-0.7634618282318115,-0.28048595786094666,3.142216444015503,-0.6534557938575745,-1.6698169708251953
47,3669129,3669131,-0.03582819923758507,-0.007748795673251152,0.8903448581695557,-6.6447858810424805,-0.667533814907074,5.359156608581543,-0.4934753179550171,-0.7664616703987122,-0.2744862735271454,2.9815502166748047,-0.6865019798278809,-1.5895655155181885
48,3669139,3669141,-0.1623801290988922,-0.13676519691944122,0.9258804321289062,-6.224080562591553,1.0369300842285156,5.037786483764648,-0.4829758405685425,-0.7619618773460388,-0.2759861946105957,3.0719120502471924,-0.8545636534690857,-1.4932938814163208
49,3669149,3669151,-0.05161724239587784,-0.12243320792913437,0.9098598957061768,-5.891474723815918,2.404466390609741,4.638389587402344,-0.4934753179550171,-0.7694615125656128,-0.2744862735271454,3.0695078372955322,-0.8789456486701965,-1.4962986707687378
50,3669159,3669161,-0.34080544114112854,-0.5764464139938354,0.8921895623207092,-4.811622142791748,0.5616739988327026,4.799715042114258,-0.48147591948509216,-0.7694615125656128,-0.2744862735271454,3.0318117141723633,-0.9485414028167725,-1.419335126876831
51,3669169,3669171,-0.2359304577112198,-0.02008560486137867,1.0036396980285645,-2.077666997909546,0.9675171375274658,5.216287612915039,-0.48747560381889343,-0.7754611968994141,-0.2744862735271454,3.132768392562866,-0.9873455166816711,-1.4000729322433472
52,3669179,3669181,-0.11485682427883148,-0.26532402634620667,0.9440030455589294,-0.30600231885910034,0.7526123523712158,5.1195502281188965,-0.4754762053489685,-0.7784610390663147,-0.3014849126338959,3.0777947902679443,-1.0394563674926758,-1.2886362075805664
53,3669189,3669191,-0.23114778101444244,-0.5591994524002075,0.9346998333930969,2.6113834381103516,1.8602573871612549,3.9021506309509277,-0.48897555470466614,-0.7649617195129395,-0.2759861946105957,3.1334073543548584,-0.9905028939247131,-1.3013609647750854
54,3669199,3669201,-0.3595346510410309,-0.29801467061042786,0.93345707654953,4.963676929473877,3.915597438812256,3.8440122604370117,-0.4754762053489685,-0.7844607830047607,-0.277486115694046,3.1367499828338623,-0.9001162052154541,-1.318608045578003
55,3669209,3669211,-0.14876475930213928,-0.017283307388424873,0.9415696859359741,5.847856521606445,7.480597019195557,4.348593235015869,-0.47097644209861755,-0.7739613056182861,-0.28798559308052063,3.020280361175537,-0.8581399321556091,-1.249772310256958
56,3669219,3669221,-0.1049400344491005,-0.2568766474723816,0.9408347606658936,5.932985305786133,10.333685874938965,3.44270658493042,-0.48747560381889343,-0.7754611968994141,-0.2864856719970703,2.9236059188842773,-0.7997064590454102,-1.2140170335769653
57,3669229,3669231,-0.11884571611881256,-0.5436429977416992,0.8638012409210205,4.063383102416992,12.154844284057617,2.640774965286255,-0.48147591948509216,-0.7814609408378601,-0.2834858298301697,2.7754998207092285,-0.7536287307739258,-1.175508737564087
58,3669239,3669241,-0.03035617433488369,-0.2092839777469635,0.9247506856918335,0.5490057468414307,12.441214561462402,2.4167320728302,-0.48897555470466614,-0.7859606742858887,-0.28198590874671936,2.751042127609253,-0.753673255443573,-1.1819474697113037
59,3669249,3669251,-0.23778314888477325,-0.04489536210894585,0.8328610062599182,0.5506499409675598,11.961755752563477,1.6791187524795532,-0.4754762053489685,-0.7874606251716614,-0.28948551416397095,2.5784518718719482,-0.7810858488082886,-1.116459846496582
60,3669259,3669261,-0.4139035642147064,-0.13848701119422913,0.9181394577026367,-2.127279281616211,12.417983055114746,0.9024197459220886,-0.47097644209861755,-0.7739613056182861,-0.29098543524742126,2.4769904613494873,-0.8231444954872131,-1.0909396409988403
61,3669269,3669271,-0.17964377999305725,-0.08811913430690765,0.9337909817695618,-3.026554584503174,11.599834442138672,0.607961118221283,-0.4769761562347412,-0.7949602603912354,-0.2969851493835449,2.3061745166778564,-0.8933626413345337,-1.0301843881607056
62,3669279,3669281,-0.03458065539598465,-0.012832826934754848,0.9674593210220337,-2.9203293323516846,10.800992012023926,0.25458991527557373,-0.48897555470466614,-0.8129593133926392,-0.29998499155044556,2.3538334369659424,-0.96202152967453,-1.0678976774215698
63,3669289,3669291,-0.11843559145927429,-0.008900242857635021,0.9659837484359741,-0.7951652407646179,11.344398498535156,-0.6146715879440308,-0.4649767279624939,-0.8009599447250366,-0.2939853072166443,2.179858684539795,-1.007440447807312,-1.0198063850402832
64,3669299,3669301,-0.08125516027212143,-0.020896121859550476,0.9832329750061035,-0.48209959268569946,10.608800888061523,-0.12497877329587936,-0.46047696471214294,-0.7934603095054626,-0.3044847846031189,2.1469080448150635,-1.0359903573989868,-1.047257423400879
65,3669309,3669311,-0.1235266625881195,-0.11269763857126236,0.9967392683029175,2.4306163787841797,10.637421607971191,-1.1364121437072754,-0.4769761562347412,-0.8069596290588379,-0.29998499155044556,1.9728047847747803,-1.0255438089370728,-1.023995280265808
66,3669319,3669321,-0.6024502515792847,-0.2909664511680603,0.9825998544692993,6.94101619720459,7.982786655426025,-1.112038254737854,-0.47247636318206787,-0.7964601516723633,-0.3044847846031189,1.834110975265503,-0.9642228484153748,-1.020318627357483
67,3669329,3669331,-0.42476731538772583,-0.1458393931388855,1.015061378479004,8.062782287597656,12.894432067871094,-1.4647489786148071,-0.4919753968715668,-0.8069596290588379,-0.3059847056865692,1.7757383584976196,-0.8553984761238098,-1.0987322330474854
68,3669339,3669341,-0.6319882273674011,-0.037258949130773544,0.9812515377998352,8.745561599731445,10.199980735778809,-0.7171462774276733,-0.4919753968715668,-0.8069596290588379,-0.3059847056865692,1.6088950634002686,-0.7232954502105713,-1.1071579456329346
69,3669349,3669351,-0.6114370822906494,-0.7573822140693665,0.996041476726532,7.238297939300537,11.947237968444824,-1.2338271141052246,-0.4919753968715668,-0.8069596290588379,-0.3059847056865692,1.6438665390014648,-0.6021022796630859,-1.2109407186508179
70,3669359,3669361,-0.37793710827827454,-0.5463159084320068,0.9927330613136292,6.811796188354492,9.917158126831055,-0.7458623647689819,-0.47847607731819153,-0.790460467338562,-0.28948551416397095,1.4672385454177856,-0.5603033304214478,-1.1648313999176025
71,3669369,3669371,-0.6397792100906372,-0.5956839919090271,0.9964339733123779,6.152640342712402,10.503334999084473,-1.365220069885254,-0.4679765999317169,-0.8099594712257385,-0.2969851493835449,1.3681739568710327,-0.4611572325229645,-1.1909315586090088
72,3669379,3669381,-0.8805732727050781,-0.7375490665435791,1.0019949674606323,2.643904447555542,12.836429595947266,-1.6775482892990112,-0.48747560381889343,-0.8114594221115112,-0.3044847846031189,1.313323736190796,-0.3969286382198334,-1.243632197380066
73,3669389,3669391,-0.7303701639175415,-0.2574603855609894,1.0445102453231812,0.8911522030830383,13.570501327514648,-2.1332337856292725,-0.4829758405685425,-0.8099594712257385,-0.3059847056865692,1.2268269062042236,-0.5088102221488953,-1.212205410003662
74,3669399,3669401,-0.20011578500270844,0.024494759738445282,0.9875211715698242,-0.3291187286376953,16.103694915771484,-2.713430643081665,-0.47997599840164185,-0.8069596290588379,-0.2939853072166443,1.1730902194976807,-0.5678991675376892,-1.2405200004577637
75,3669409,3669411,-0.07487472891807556,-0.22493833303451538,1.0127804279327393,0.13127794861793518,15.306466102600098,-2.70922589302063,-0.47847607731819153,-0.7994599938392639,-0.3014849126338959,0.8905186057090759,-0.5628468990325928,-1.2200826406478882
76,3669419,3669421,-0.23498956859111786,-0.19633957743644714,1.0352990627288818,2.130565881729126,16.81052017211914,-3.19364333152771,-0.4679765999317169,-0.8279585838317871,-0.3059847056865692,0.8754130005836487,-0.5408859848976135,-1.3094632625579834
77,3669429,3669431,-0.08501201868057251,-0.03586283326148987,1.0266517400741577,4.406230449676514,17.034379959106445,-2.8618173599243164,-0.4859756827354431,-0.8159592151641846,-0.3059847056865692,0.6320156455039978,-0.5511671304702759,-1.2941583395004272
78,3669439,3669441,-0.5713818073272705,0.010429753921926022,1.0109306573867798,6.8514227867126465,16.25356101989746,-3.0841927528381348,-0.47247636318206787,-0.8084595799446106,-0.29848507046699524,0.39476460218429565,-0.45244041085243225,-1.3160970211029053
79,3669449,3669451,-0.22392813861370087,-0.05721990391612053,1.0179284811019897,7.817363262176514,15.519142150878906,-3.4128711223602295,-0.48147591948509216,-0.8174591064453125,-0.28948551416397095,0.30911126732826233,-0.3944515883922577,-1.3695361614227295
80,3669459,3669461,-0.08189068734645844,0.054410647600889206,0.9738122224807739,8.158933639526367,13.640198707580566,-3.624584197998047,-0.4844757616519928,-0.8234587907791138,-0.3014849126338959,0.15552355349063873,-0.3233483135700226,-1.4095001220703125
81,3669469,3669471,-0.05664697289466858,-0.002851322991773486,1.0065295696258545,6.507251739501953,10.894441604614258,-3.622455596923828,-0.47847607731819153,-0.8204589486122131,-0.2924853563308716,0.11701136827468872,-0.32669103145599365,-1.4488641023635864
82,3669479,3669481,-0.08185789734125137,-0.027317417785525322,1.0457746982574463,5.40048360824585,10.733556747436523,-3.303835868835449,-0.48147591948509216,-0.8234587907791138,-0.2954852283000946,-0.052455659955739975,-0.27901026606559753,-1.468469500541687
83,3669489,3669491,-0.012362299486994743,-0.06834834814071655,1.0481773614883423,6.231646537780762,7.338700771331787,-3.0809144973754883,-0.4829758405685425,-0.8129593133926392,-0.3059847056865692,-0.17393402755260468,-0.16126926243305206,-1.501648187637329
84,3669499,3669501,-0.0864214301109314,-0.016586842015385628,1.0401214361190796,6.100187301635742,6.488702774047852,-2.9580249786376953,-0.48747560381889343,-0.8204589486122131,-0.2954852283000946,-0.19651365280151367,-0.18793009221553802,-1.5291531085968018
85,3669509,3669511,0.04339651018381119,-0.15658344328403473,0.9463831186294556,4.196587085723877,6.071535587310791,-2.7974441051483154,-0.48897555470466614,-0.8189590573310852,-0.2939853072166443,-0.2678486406803131,-0.06815318763256073,-1.5618780851364136
86,3669519,3669521,-0.12635646760463715,-0.11925625056028366,0.9913561940193176,2.8472282886505127,6.306336879730225,-2.951207160949707,-0.49047547578811646,-0.8174591064453125,-0.3044847846031189,-0.3540590703487396,-0.07894660532474518,-1.5862175226211548
87,3669529,3669531,0.010827455669641495,-0.1075327917933464,0.9717442393302917,4.495388031005859,6.549220561981201,-2.9168248176574707,-0.4919753968715668,-0.8309584259986877,-0.29998499155044556,-0.3539384603500366,-0.054148025810718536,-1.6239631175994873
88,3669539,3669541,-0.4220254123210907,-0.2914856970310211,1.006919264793396,3.222486734390259,7.771372318267822,-3.1364364624023438,-0.4769761562347412,-0.8279585838317871,-0.3029848337173462,-0.37773755192756653,0.02427222765982151,-1.673742413520813
89,3669549,3669551,-0.8357963562011719,-0.3775964677333832,1.0332199335098267,4.116168975830078,8.284337043762207,-2.7679333686828613,-0.4934753179550171,-0.844457745552063,-0.31048446893692017,-0.5626375675201416,0.10449416935443878,-1.6823738813400269
90,3669559,3669561,-0.7531406879425049,-0.22640018165111542,1.094191074371338,4.679442405700684,8.150532722473145,-2.932166337966919,-0.49047547578811646,-0.8264586329460144,-0.2954852283000946,-0.653901994228363,0.12054494768381119,-1.702599048614502
91,3669569,3669571,-0.5242368578910828,-0.07195479422807693,1.0185238122940063,5.712234020233154,7.156866550445557,-3.689436912536621,-0.48147591948509216,-0.8264586329460144,-0.3044847846031189,-0.7372945547103882,0.22840113937854767,-1.7395397424697876
92,3669579,3669581,-0.1931132823228836,-0.003198657650500536,1.0272910594940186,2.5959339141845703,5.530613899230957,-3.294771671295166,-0.4919753968715668,-0.836958110332489,-0.29998499155044556,-0.729756772518158,0.16856226325035095,-1.7834830284118652
93,3669589,3669591,-0.19998791813850403,-0.125639870762825,1.0406705141067505,3.4933109283447266,4.041799068450928,-2.255559206008911,-0.4964751601219177,-0.8324583768844604,-0.30748462677001953,-0.6975691318511963,0.1661406010389328,-1.8272240161895752
94,3669599,3669601,-0.09590056538581848,-0.184695303440094,1.0382676124572754,1.8813599348068237,2.800384759902954,-1.8864731788635254,-0.49947500228881836,-0.8264586329460144,-0.3134843111038208,-0.7766461372375488,0.24281048774719238,-1.836290955543518
95,3669609,3669611,-0.019376015290617943,-0.07873380929231644,0.9997645616531372,1.9713610410690308,2.989708423614502,-1.4916523694992065,-0.49947500228881836,-0.8384580612182617,-0.29848507046699524,-0.845574140548706,0.3090422451496124,-1.8421870470046997
96,3669619,3669621,-0.08198396861553192,-0.1756228804588318,1.0315641164779663,-0.24555043876171112,2.800028085708618,-1.7225499153137207,-0.5009749531745911,-0.8189590573310852,-0.2969851493835449,-0.7660790085792542,0.20060855150222778,-1.8804457187652588
97,3669629,3669631,-0.053598541766405106,-0.08859514445066452,1.059788703918457,0.06182877719402313,3.227646827697754,-1.5952019691467285,-0.47997599840164185,-0.836958110332489,-0.2939853072166443,-0.8523319959640503,0.2245323210954666,-1.886604905128479
98,3669639,3669641,-0.06649135798215866,-0.08644967526197433,1.1166507005691528,0.489566445350647,6.263364315032959,-1.9078569412231445,-0.49947500228881836,-0.8354582190513611,-0.29848507046699524,-0.9016287922859192,0.2534981966018677,-1.9065370559692383
99,3669649,3669651,-0.3171602487564087,-0.011470379307866096,1.0879348516464233,3.077718496322632,4.62562370300293,-1.7552183866500854,-0.4949752390384674,-0.8129593133926392,-0.3059847056865692,-1.0048141479492188,0.308529257774353,-1.912745475769043
100,3669659,3669661,-0.1340431272983551,-0.13053838908672333,1.0839712619781494,3.5651116371154785,5.503040313720703,-1.5824873447418213,-0.502474844455719,-0.8294585347175598,-0.28948551416397095,-1.1317538022994995,0.3708209693431854,-1.9183423519134521
101,3669669,3669671,-0.32550883293151855,-0.45590823888778687,1.0773518085479736,3.9429783821105957,2.018362045288086,-0.2468867152929306,-0.502474844455719,-0.8144592642784119,-0.3014849126338959,-1.1331613063812256,0.4471137225627899,-1.919507622718811
102,3669679,3669681,-0.5517342686653137,-0.24008162319660187,1.078726887702942,4.74534273147583,1.5867867469787598,-1.4927198886871338,-0.4964751601219177,-0.8174591064453125,-0.3014849126338959,-1.1945682764053345,0.4593174457550049,-1.9329591989517212
103,3669689,3669691,-0.1721419095993042,-0.23489555716514587,0.940245509147644,2.5345466136932373,1.0183886289596558,-1.253300428390503,-0.5054747462272644,-0.8174591064453125,-0.2924853563308716,-1.1765536069869995,0.4688972532749176,-1.956408977508545
104,3669699,3669701,-0.20484794676303864,-0.2809862792491913,1.0153183937072754,2.09415602684021,-0.17335134744644165,-0.9095547795295715,-0.5009749531745911,-0.8129593133926392,-0.2939853072166443,-1.2071746587753296,0.5147754549980164,-1.9607138633728027
105,3669709,3669711,-0.09855641424655914,-0.05083093047142029,1.0441465377807617,0.6221891045570374,-1.700008511543274,-0.5600866079330444,-0.5009749531745911,-0.8219588994979858,-0.2759861946105957,-1.2079776525497437,0.5506465435028076,-1.9634795188903809
106,3669719,3669721,-0.12129686772823334,-0.01701555773615837,1.0425459146499634,0.28293871879577637,-3.511035442352295,-0.6741706132888794,-0.5144742727279663,-0.80545973777771,-0.28948551416397095,-1.1869205236434937,0.5635637044906616,-1.9694836139678955
107,3669729,3669731,-0.01660851016640663,-0.1339186280965805,0.9537580609321594,-0.15149611234664917,-5.459401607513428,-0.26838257908821106,-0.509974479675293,-0.8069596290588379,-0.2969851493835449,-1.1321481466293335,0.585500955581665,-1.9715971946716309
108,3669739,3669741,-0.0885077491402626,-0.1417175531387329,1.0185118913650513,-1.000476598739624,-4.760439872741699,-0.41574370861053467,-0.49797508120536804,-0.8069596290588379,-0.27898603677749634,-1.1371995210647583,0.5712991952896118,-1.9739835262298584
109,3669749,3669751,-0.08338350802659988,-0.3324347734451294,0.9507358074188232,-2.1272106170654297,-4.9796342849731445,-0.36028674244880676,-0.49047547578811646,-0.8084595799446106,-0.28948551416397095,-1.0710184574127197,0.5584596991539001,-1.9822735786437988
110,3669759,3669761,-0.036834392696619034,-0.24234221875667572,0.9785282015800476,-4.0176544189453125,-3.502807378768921,-0.3726765811443329,-0.4934753179550171,-0.7964601516723633,-0.28948551416397095,-1.088352084159851,0.5076898336410522,-1.9866163730621338
111,3669769,3669771,-0.07468678802251816,-0.2605784237384796,0.9265320897102356,-2.7234249114990234,-3.902669668197632,-0.08838297426700592,-0.5114744305610657,-0.8084595799446106,-0.2954852283000946,-1.039839506149292,0.46536585688591003,-1.9974398612976074
112,3669779,3669781,-0.2811209261417389,-0.5329237580299377,1.0020673274993896,-2.205444097518921,-3.6590540409088135,-0.03298734501004219,-0.49047547578811646,-0.80545973777771,-0.29848507046699524,-0.9748868346214294,0.4169652462005615,-1.9974185228347778
113,3669789,3669791,-0.13071309030056,-0.18078628182411194,0.9656052589416504,-1.3250489234924316,-4.058410167694092,-0.4750727117061615,-0.4934753179550171,-0.8144592642784119,-0.29848507046699524,-0.9971017241477966,0.398995965719223,-2.0070230960845947
114,3669799,3669801,-0.015750231221318245,0.17496074736118317,0.9639655947685242,0.6420179605484009,-2.8542585372924805,-0.9413423538208008,-0.5159741640090942,-0.797960102558136,-0.29998499155044556,-1.0089939832687378,0.39693787693977356,-2.0148885250091553
115,3669809,3669811,-0.12691938877105713,-0.006085629109293222,0.9156103134155273,1.4973118305206299,-5.4012770652771,0.4822274446487427,-0.5009749531745911,-0.8099594712257385,-0.2969851493835449,-0.938278079032898,0.4141305387020111,-2.0186941623687744
116,3669819,3669821,-0.05615914985537529,-0.16027089953422546,0.9581405520439148,0.7400447130203247,-7.482141971588135,0.9985946416854858,-0.5054747462272644,-0.7934603095054626,-0.2864856719970703,-0.8856005668640137,0.43598344922065735,-2.006667375564575
117,3669829,3669831,-0.22551535069942474,-0.0998716726899147,0.9153464436531067,1.8786290884017944,-7.757946968078613,0.838458240032196,-0.5069746375083923,-0.8159592151641846,-0.2969851493835449,-0.7669727206230164,0.4476442337036133,-2.006300926208496
118,3669839,3669841,-0.08809846639633179,-0.05404612794518471,0.992389976978302,1.1718693971633911,-7.494016170501709,1.2580281496047974,-0.5054747462272644,-0.7934603095054626,-0.28948551416397095,-0.6998236775398254,0.48158401250839233,-1.9904147386550903
119,3669849,3669851,-0.158943310379982,-0.41956689953804016,1.0054521560668945,0.9970009326934814,-8.08653736114502,0.9460006356239319,-0.5009749531745911,-0.797960102558136,-0.29098543524742126,-0.6297063827514648,0.5007389783859253,-1.979142665863037
120,3669859,3669861,-0.04653795436024666,-0.2318996787071228,0.9011479020118713,0.049900129437446594,-8.472639083862305,0.7691526412963867,-0.4964751601219177,-0.7964601516723633,-0.3014849126338959,-0.625496506690979,0.5780415534973145,-1.9629420042037964
121,3669869,3669871,-0.356635719537735,-0.22544854879379272,0.9924161434173584,-2.567840099334717,-6.79786491394043,0.5285506844520569,-0.48747560381889343,-0.8084595799446106,-0.29848507046699524,-0.5536583065986633,0.610551118850708,-1.9474221467971802
122,3669879,3669881,-0.33938467502593994,-0.19971466064453125,0.9990193843841553,-3.2163281440734863,-7.221891403198242,0.8200761675834656,-0.4964751601219177,-0.80545973777771,-0.2924853563308716,-0.4203791618347168,0.555281400680542,-1.9468460083007812
123,3669889,3669891,-0.4637739658355713,-0.14291436970233917,0.9145258069038391,-5.291483402252197,-7.64861536026001,0.27711963653564453,-0.5009749531745911,-0.8039597868919373,-0.29998499155044556,-0.3417867124080658,0.6140285134315491,-1.925154685974121
124,3669899,3669901,-0.42151111364364624,-0.075590580701828,0.9670353531837463,-5.256224632263184,-6.491540431976318,0.2970283031463623,-0.5039747953414917,-0.7889605164527893,-0.2969851493835449,-0.22128520905971527,0.5738279223442078,-1.9204602241516113
125,3669909,3669911,-0.02988627180457115,-0.14351294934749603,0.9353510141372681,-7.314558029174805,-5.730892181396484,0.4193866550922394,-0.4964751601219177,-0.7934603095054626,-0.2864856719970703,-0.315104216337204,0.3798810541629791,-1.939384937286377
126,3669919,3669921,-0.07619033753871918,-0.2326199859380722,0.9459976553916931,-7.424861431121826,-3.83849835395813,0.3056962192058563,-0.5009749531745911,-0.797960102558136,-0.28198590874671936,-0.29655054211616516,0.30460241436958313,-1.9345756769180298
127,3669929,3669931,-0.6687183976173401,-0.06630677729845047,0.9860180020332336,-7.391172409057617,-4.251847267150879,0.020292721688747406,-0.48747560381889343,-0.7994599938392639,-0.28948551416397095,-0.21962596476078033,0.16644889116287231,-1.9453778266906738
128,3669939,3669941,-0.6847274899482727,-0.4159807860851288,0.9878435134887695,-6.351269721984863,-5.1851887702941895,0.5000826120376587,-0.49797508120536804,-0.8039597868919373,-0.2969851493835449,-0.4010666310787201,0.10368131101131439,-1.9366836547851562
129,3669949,3669951,-0.6038849353790283,-0.1298280954360962,0.9870432615280151,-3.2955424785614014,-6.186411380767822,0.9002044796943665,-0.4934753179550171,-0.7964601516723633,-0.28948551416397095,-0.35771602392196655,0.07249896228313446,-1.9289426803588867
130,3669959,3669961,-0.8621912598609924,-0.3308044373989105,1.0077143907546997,-0.08767126500606537,-9.079445838928223,0.9286501407623291,-0.4949752390384674,-0.797960102558136,-0.28798559308052063,-0.31900882720947266,0.031562160700559616,-1.9198787212371826
131,3669969,3669971,-0.6977795958518982,-0.39946436882019043,0.9738499522209167,0.9778261184692383,-12.685417175292969,0.675969123840332,-0.4949752390384674,-0.7919603586196899,-0.2759861946105957,-0.0838368833065033,0.026093000546097755,-1.914290428161621
132,3669979,3669981,-0.32292670011520386,-0.42274051904678345,0.9993693828582764,2.469916343688965,-13.516685485839844,0.4879983961582184,-0.4859756827354431,-0.8099594712257385,-0.2939853072166443,-0.0267324261367321,0.044643353670835495,-1.906956672668457
133,3669989,3669991,-0.037586912512779236,-0.23517772555351257,1.0143078565597534,1.3713122606277466,-11.209837913513184,1.1720757484436035,-0.4829758405685425,-0.8039597868919373,-0.2939853072166443,0.1681661307811737,0.06811995059251785,-1.8929370641708374
134,3669999,3670001,-0.2615629732608795,-0.30633464455604553,0.9769397974014282,1.5358645915985107,-11.050714492797852,0.5491735339164734,-0.4964751601219177,-0.790460467338562,-0.28948551416397095,0.40397846698760986,0.08430089056491852,-1.8915042877197266
135,3670009,3670011,-0.42525073885917664,-0.4752103090286255,1.0008361339569092,1.4769208431243896,-10.793113708496094,0.8295264840126038,-0.5009749531745911,-0.8039597868919373,-0.28798559308052063,0.4952540695667267,0.09857825189828873,-1.885690450668335
136,3670019,3670021,-0.7592437267303467,-0.10250825434923172,0.9644770622253418,-0.6318101286888123,-8.955570220947266,0.6582168936729431,-0.4949752390384674,-0.8009599447250366,-0.29098543524742126,0.5582758784294128,0.09308547526597977,-1.8771435022354126
137,3670029,3670031,-0.35392794013023376,-0.15716955065727234,1.0182499885559082,-1.2073910236358643,-6.960598468780518,1.0761067867279053,-0.49947500228881836,-0.7844607830047607,-0.277486115694046,0.6101911067962646,0.0712561309337616,-1.8665940761566162
138,3670039,3670041,-0.7434521317481995,-0.26677823066711426,1.014342188835144,-1.9267596006393433,-3.6156461238861084,1.043662428855896,-0.5039747953414917,-0.7769611477851868,-0.28198590874671936,0.6264498233795166,0.03592047467827797,-1.8497779369354248
139,3670049,3670051,-0.5160902142524719,-0.9363331198692322,1.0163114070892334,-1.0339441299438477,-0.9450902342796326,1.5771362781524658,-0.49047547578811646,-0.7934603095054626,-0.2924853563308716,0.6933154463768005,0.010236463509500027,-1.8438950777053833
140,3670059,3670061,-0.32014724612236023,-0.7758665680885315,1.0394476652145386,-1.3165137767791748,2.3874740600585938,1.1119328737258911,-0.5039747953414917,-0.7859606742858887,-0.28498575091362,0.5713340640068054,-0.013667680323123932,-1.8268691301345825
141,3670069,3670071,-0.815645158290863,-0.6788299083709717,0.9688348174095154,0.44980937242507935,3.0309762954711914,1.5697113275527954,-0.4934753179550171,-0.7754611968994141,-0.28048595786094666,0.5566825866699219,-0.03175830841064453,-1.8145593404769897
142,3670079,3670081,-1.3187037706375122,-0.6963927745819092,0.8723936080932617,2.0025088787078857,1.2472963333129883,1.3890562057495117,-0.49797508120536804,-0.7769611477851868,-0.2669866383075714,0.5357076525688171,-0.014825443737208843,-1.8034658432006836
143,3670089,3670091,-0.6987743973731995,-0.2981177568435669,0.8638544678688049,2.1229515075683594,-0.020785881206393242,0.651040256023407,-0.4934753179550171,-0.7814609408378601,-0.27148643136024475,0.555107057094574,0.006326550152152777,-1.7924009561538696
144,3670099,3670101,-0.44500914216041565,-0.3667909502983093,0.9164679050445557,2.985861301422119,-0.506104588508606,1.1971869468688965,-0.4934753179550171,-0.7844607830047607,-0.2744862735271454,0.5745176076889038,0.038835860788822174,-1.7915493249893188
145,3670109,3670111,-0.8362783193588257,-0.35319438576698303,0.9862760305404663,3.12795090675354,-5.058560371398926,0.7362510561943054,-0.48897555470466614,-0.782960832118988,-0.28198590874671936,0.6143565773963928,0.08758025616407394,-1.7818111181259155
146,3670119,3670121,-0.35748758912086487,-0.4544534683227539,1.0225592851638794,1.7323511838912964,-5.506058216094971,1.3731745481491089,-0.49947500228881836,-0.7934603095054626,-0.2744862735271454,0.755195140838623,0.11985424160957336,-1.7730118036270142
147,3670129,3670131,-0.47707119584083557,-0.5143955945968628,0.9851550459861755,2.7360360622406006,-8.035420417785645,1.396408200263977,-0.49947500228881836,-0.7934603095054626,-0.2744862735271454,0.9100823402404785,0.08796267956495285,-1.756812572479248
148,3670139,3670141,-0.45981818437576294,-0.628663957118988,0.9466717839241028,1.8114519119262695,-7.286087512969971,2.189844846725464,-0.49947500228881836,-0.7934603095054626,-0.2744862735271454,1.052687168121338,0.13055863976478577,-1.7463003396987915
149,3670149,3670151,-0.5559070706367493,-0.4911688566207886,1.0274156332015991,0.4894404113292694,-4.426993370056152,2.235877513885498,-0.48747560381889343,-0.790460467338562,-0.2834858298301697,1.0352505445480347,0.15758801996707916,-1.7148953676223755
150,3670159,3670161,-0.44018658995628357,-0.22633233666419983,1.00087571144104,1.0171345472335815,0.06506773084402084,1.6315540075302124,-0.48897555470466614,-0.7889605164527893,-0.28498575091362,1.071131706237793,0.16843591630458832,-1.7000963687896729
151,3670169,3670171,-0.4861139953136444,-0.42244765162467957,0.9304808378219604,0.08451937884092331,4.47580623626709,1.7455428838729858,-0.49797508120536804,-0.7859606742858887,-0.28798559308052063,1.038183331489563,0.18206290900707245,-1.6832687854766846
152,3670179,3670181,-0.9927678108215332,-0.3776182532310486,0.9399973750114441,0.26561734080314636,8.897237777709961,1.049335241317749,-0.48897555470466614,-0.7769611477851868,-0.29098543524742126,0.9339061379432678,0.1683022379875183,-1.6659871339797974
153,3670189,3670191,-0.8791645765304565,-0.12588097155094147,0.9954496026039124,-1.1586689949035645,10.632465362548828,1.5713086128234863,-0.5009749531745911,-0.7859606742858887,-0.2669866383075714,0.7854816317558289,0.09007279574871063,-1.6409934759140015
154,3670199,3670201,-0.43677130341529846,-0.2485312670469284,0.9893909692764282,-0.7184837460517883,11.355884552001953,1.4401434659957886,-0.48897555470466614,-0.7949602603912354,-0.27298635244369507,0.6296647191047668,0.08360130339860916,-1.6214921474456787
155,3670209,3670211,-0.6708142757415771,-0.45363321900367737,0.8226386904716492,1.152758240699768,9.951469421386719,0.5963583588600159,-0.4859756827354431,-0.782960832118988,-0.28498575091362,0.5410333275794983,0.08360359072685242,-1.6185418367385864
156,3670219,3670221,-0.6824443936347961,-0.263904869556427,0.9720250964164734,-0.45820683240890503,5.1853766441345215,1.8798072338104248,-0.4919753968715668,-0.7799609899520874,-0.28498575091362,0.4510210156440735,0.014565961435437202,-1.5947421789169312
157,3670229,3670231,-0.7403223514556885,-0.8308448195457458,0.9864820837974548,1.1320416927337646,-0.3584294617176056,1.937488317489624,-0.508474588394165,-0.7844607830047607,-0.2834858298301697,0.5099666118621826,0.029000574722886086,-1.5810468196868896
158,3670239,3670241,-0.4813717007637024,-0.5744068622589111,0.9588519930839539,2.1818103790283203,-4.09425163269043,2.18312931060791,-0.4859756827354431,-0.7919603586196899,-0.29098543524742126,0.5510114431381226,0.05233177915215492,-1.5631786584854126
159,3670249,3670251,-0.43346935510635376,-0.3303944170475006,0.9252316355705261,2.671250820159912,-6.205740451812744,2.131042003631592,-0.4919753968715668,-0.8039597868919373,-0.29098543524742126,0.6328420639038086,0.10091759264469147,-1.550931692123413
160,3670259,3670261,-0.4640254080295563,-0.23637603223323822,0.9249482750892639,2.9940595626831055,-5.023954391479492,2.2786307334899902,-0.47997599840164185,-0.8039597868919373,-0.29998499155044556,0.7250465154647827,0.15036046504974365,-1.5294181108474731
161,3670269,3670271,-0.20418842136859894,-0.5253881812095642,0.8835251927375793,3.2414722442626953,-0.7668280005455017,2.112982749938965,-0.49797508120536804,-0.8039597868919373,-0.2939853072166443,0.7570738196372986,0.19730475544929504,-1.5151658058166504
162,3670279,3670281,0.05404330790042877,-0.4366052746772766,0.8615198731422424,3.3710837364196777,0.6394112706184387,2.3387808799743652,-0.47997599840164185,-0.797960102558136,-0.28798559308052063,0.7466526627540588,0.17700612545013428,-1.4891277551651
163,3670289,3670291,-0.07262479513883591,-0.564619779586792,0.9151051640510559,2.861450672149658,4.12573766708374,1.525823712348938,-0.48147591948509216,-0.80545973777771,-0.28948551416397095,0.7186107635498047,0.2234569787979126,-1.4691369533538818
164,3670299,3670301,-0.27605050802230835,-0.22254495322704315,0.9557859897613525,1.676849603652954,6.242692470550537,2.3396167755126953,-0.49047547578811646,-0.8174591064453125,-0.2954852283000946,0.6379203796386719,0.1951577216386795,-1.4395025968551636
165,3670309,3670311,-0.3238769471645355,-0.003197171725332737,0.9856138229370117,1.8651684522628784,8.795889854431152,1.9312654733657837,-0.4754762053489685,-0.8234587907791138,-0.29848507046699524,0.5901303887367249,0.23026935756206512,-1.419494390487671
166,3670319,3670321,-0.24314574897289276,-0.38611915707588196,0.9858400821685791,0.6809700727462769,9.303314208984375,1.4939217567443848,-0.4769761562347412,-0.8189590573310852,-0.29998499155044556,0.44555187225341797,0.2550038993358612,-1.4019578695297241
167,3670329,3670331,-0.15377314388751984,-0.341048926115036,0.9711986184120178,-1.0725171566009521,9.06247329711914,1.6294652223587036,-0.4829758405685425,-0.8249587416648865,-0.28798559308052063,0.37130945920944214,0.25353023409843445,-1.3857402801513672
168,3670339,3670341,-0.09051989763975143,-0.3745572865009308,1.008638858795166,-2.0098674297332764,8.586682319641113,2.2736783027648926,-0.4859756827354431,-0.8219588994979858,-0.2969851493835449,0.3050684630870819,0.23615111410617828,-1.3652513027191162
169,3670349,3670351,-0.08282589912414551,-0.09413513541221619,1.0722109079360962,-4.064026355743408,7.023326396942139,1.9548815488815308,-0.4829758405685425,-0.8129593133926392,-0.28798559308052063,0.3222300708293915,0.18736782670021057,-1.343138575553894
170,3670359,3670361,-0.2329670637845993,-0.06836405396461487,1.027199625968933,-4.2434983253479,4.814452648162842,2.584970474243164,-0.47847607731819153,-0.8144592642784119,-0.3014849126338959,0.29712972044944763,0.06272638589143753,-1.310927152633667
171,3670369,3670371,-0.4551837742328644,-0.259057879447937,1.1073094606399536,-2.8429737091064453,3.3993968963623047,3.0019912719726562,-0.4844757616519928,-0.8264586329460144,-0.2954852283000946,0.23956331610679626,0.010129027999937534,-1.2745599746704102
172,3670379,3670381,-0.28679803013801575,0.10937120765447617,1.0340089797973633,-0.593877375125885,3.8319528102874756,2.7057783603668213,-0.4919753968715668,-0.8279585838317871,-0.2969851493835449,0.17155934870243073,-0.0037507587112486362,-1.2485806941986084
173,3670389,3670391,-0.006738873664289713,0.11113733053207397,1.0741713047027588,1.083767056465149,2.883639097213745,3.0679595470428467,-0.48747560381889343,-0.8264586329460144,-0.2954852283000946,0.27345848083496094,0.07996464520692825,-1.22312593460083
174,3670399,3670401,-0.02984069101512432,-0.4109800457954407,1.0250539779663086,3.7079429626464844,2.9629831314086914,3.330357313156128,-0.4769761562347412,-0.8219588994979858,-0.2969851493835449,0.20866739749908447,0.12947458028793335,-1.1902692317962646
175,3670409,3670411,-0.03304995223879814,-0.51656174659729,1.0197196006774902,4.730686664581299,4.109155178070068,3.2448699474334717,-0.49047547578811646,-0.8174591064453125,-0.3044847846031189,0.14111849665641785,0.19659321010112762,-1.1573253870010376
176,3670419,3670421,-0.2869360148906708,-0.20149146020412445,1.0553925037384033,4.042479038238525,5.5329179763793945,3.2061729431152344,-0.48897555470466614,-0.8069596290588379,-0.2939853072166443,0.18766780197620392,0.19804680347442627,-1.1267529726028442
177,3670429,3670431,0.03932453691959381,0.07020091265439987,0.9976511597633362,3.694878578186035,4.660580635070801,3.338449716567993,-0.4949752390384674,-0.8069596290588379,-0.28798559308052063,0.09457054734230042,0.2756209075450897,-1.0941029787063599
178,3670439,3670441,-0.040240541100502014,-0.1313585788011551,1.0297596454620361,2.3336095809936523,5.651106357574463,4.097523212432861,-0.4844757616519928,-0.80545973777771,-0.28948551416397095,-0.004207429010421038,0.24955429136753082,-1.0512971878051758
179,3670449,3670451,-0.3594154715538025,-0.024261541664600372,1.0245110988616943,0.6331239938735962,5.216493129730225,3.825737237930298,-0.49947500228881836,-0.8024598360061646,-0.29848507046699524,0.045974358916282654,0.28544652462005615,-1.0149216651916504
180,3670459,3670461,-0.15825411677360535,0.006307762116193771,1.000130534172058,-1.0768259763717651,5.707546234130859,4.386946201324463,-0.49047547578811646,-0.8144592642784119,-0.2924853563308716,-0.06238231435418129,0.21637962758541107,-0.9675165414810181
181,3670469,3670471,-0.41662994027137756,0.08182182908058167,0.9816685318946838,-1.741274118423462,5.108816146850586,4.273830890655518,-0.4949752390384674,-0.8069596290588379,-0.2969851493835449,-0.1139959841966629,0.19727250933647156,-0.930752158164978
182,3670479,3670481,-0.5902567505836487,-0.02412543259561062,0.9844743013381958,-2.3725063800811768,4.209629535675049,4.0921406745910645,-0.4769761562347412,-0.8129593133926392,-0.29098543524742126,-0.1974354386329651,0.17438878118991852,-0.8873471021652222
183,3670489,3670491,-0.45705386996269226,-0.08352522552013397,1.0174540281295776,-2.136306047439575,2.4868078231811523,4.366937160491943,-0.48747560381889343,-0.8114594221115112,-0.29848507046699524,-0.20530056953430176,0.13763588666915894,-0.8453080058097839
184,3670499,3670501,-0.27649733424186707,-0.08739262819290161,1.0143852233886719,-1.971610188484192,3.0449330806732178,4.014852523803711,-0.48897555470466614,-0.8099594712257385,-0.2969851493835449,-0.12558405101299286,0.11205112934112549,-0.8073678612709045
185,3670509,3670511,-0.24153156578540802,-0.14356575906276703,0.9770503044128418,0.4952336847782135,3.5399515628814697,3.6435444355010986,-0.4859756827354431,-0.8009599447250366,-0.3059847056865692,-0.21155448257923126,0.09750436991453171,-0.7689369916915894
186,3670519,3670521,-0.19677932560443878,-0.0644659623503685,1.0162709951400757,1.535793423652649,3.229698657989502,3.456850051879883,-0.48897555470466614,-0.8099594712257385,-0.29098543524742126,-0.14855511486530304,0.1275290548801422,-0.7360458374023438
187,3670529,3670531,-0.07494714856147766,-0.14247265458106995,0.982123851776123,2.9247286319732666,3.134387969970703,3.2600436210632324,-0.502474844455719,-0.8174591064453125,-0.29848507046699524,-0.22333858907222748,0.1624477356672287,-0.6973587870597839
188,3670539,3670541,0.10510124266147614,0.052908629179000854,1.0478172302246094,4.865872383117676,3.575918197631836,3.285419225692749,-0.49047547578811646,-0.8084595799446106,-0.3044847846031189,-0.3055381774902344,0.23762147128582,-0.663604199886322
189,3670549,3670551,-0.26784273982048035,-0.014062805101275444,1.02339768409729,4.092945098876953,3.9901833534240723,3.1183621883392334,-0.4829758405685425,-0.8189590573310852,-0.2939853072166443,-0.3092293441295624,0.24525681138038635,-0.6277910470962524
190,3670559,3670561,-0.3397807776927948,-0.15515312552452087,1.0717189311981201,3.00982666015625,5.869309425354004,2.7429487705230713,-0.49047547578811646,-0.8234587907791138,-0.3014849126338959,-0.351532518863678,0.3062035143375397,-0.5973591804504395
191,3670569,3670571,-0.04616912081837654,0.0847834125161171,1.0695449113845825,2.3651347160339355,4.512702465057373,3.1306798458099365,-0.4754762053489685,-0.8264586329460144,-0.3014849126338959,-0.3065573275089264,0.3586663603782654,-0.5657646059989929
192,3670579,3670581,-0.026591647416353226,0.0001560919772600755,1.0864949226379395,-0.7887642979621887,4.6778564453125,2.9348130226135254,-0.47247636318206787,-0.8294585347175598,-0.30748462677001953,-0.4057258069515228,0.30691662430763245,-0.5313214659690857
193,3670589,3670591,0.03834651783108711,-0.061466824263334274,1.0108574628829956,-1.8388270139694214,2.7004618644714355,2.5285677909851074,-0.47997599840164185,-0.8219588994979858,-0.3059847056865692,-0.48274385929107666,0.29323968291282654,-0.5056180953979492
194,3670599,3670601,-0.02488282509148121,0.003501947969198227,1.0718587636947632,-3.3217973709106445,2.917755603790283,2.886395215988159,-0.4919753968715668,-0.8159592151641846,-0.2969851493835449,-0.5442085862159729,0.2643618881702423,-0.47355717420578003
195,3670609,3670611,0.0026547620072960854,-0.04394126310944557,1.052584171295166,-3.850048780441284,0.6303756237030029,2.6282408237457275,-0.4859756827354431,-0.8189590573310852,-0.30898454785346985,-0.5859100222587585,0.20737743377685547,-0.44803109765052795
196,3670619,3670621,-0.03521712124347687,-0.03272129222750664,1.0166699886322021,-2.4879953861236572,0.047262635082006454,3.211107015609741,-0.4949752390384674,-0.8219588994979858,-0.2969851493835449,-0.5366061925888062,0.1566528081893921,-0.418811559677124
197,3670629,3670631,-0.08355119824409485,-0.06792610883712769,1.0339272022247314,-0.783913254737854,-1.6825100183486938,3.3752031326293945,-0.49047547578811646,-0.8144592642784119,-0.28948551416397095,-0.5443295836448669,0.13434280455112457,-0.3842793405056
198,3670639,3670641,-0.05777556076645851,-0.09200327098369598,1.0289794206619263,-0.2392263561487198,-2.2024636268615723,3.183549404144287,-0.4964751601219177,-0.8174591064453125,-0.2864856719970703,-0.524273157119751,0.13216398656368256,-0.3517360985279083
199,3670649,3670651,-0.0926871970295906,-0.0592014379799366,1.029171109199524,2.2475693225860596,-2.2683370113372803,3.666792154312134,-0.4964751601219177,-0.8174591064453125,-0.2864856719970703,-0.5017504096031189,0.2242949903011322,-0.31186312437057495
200,3670659,3670661,0.03976428136229515,-0.20079033076763153,0.9689286947250366,3.4781715869903564,-3.6723341941833496,3.85193133354187,-0.4949752390384674,-0.8009599447250366,-0.2969851493835449,-0.4694197177886963,0.27538299560546875,-0.27780574560165405
201,3670669,3670671,-0.019166206941008568,-0.15180912613868713,0.9617544412612915,1.4376314878463745,-1.7636734247207642,4.530760765075684,-0.4949752390384674,-0.8009599447250366,-0.2969851493835449,-0.4291086792945862,0.3117429316043854,-0.2301945984363556
202,3670679,3670681,-0.0533156655728817,0.09892001748085022,0.9724211692810059,-0.5312407612800598,-1.0403021574020386,4.52074670791626,-0.4754762053489685,-0.8264586329460144,-0.30748462677001953,-0.41579046845436096,0.32093364000320435,-0.18916155397891998
203,3670689,3670691,-0.057017162442207336,-0.18689389526844025,1.005898118019104,-2.055415153503418,-1.5173665285110474,3.9478607177734375,-0.48747560381889343,-0.8234587907791138,-0.3014849126338959,-0.4027628004550934,0.29847079515457153,-0.14823156595230103
204,3670699,3670701,-0.149944007396698,-0.10014499723911285,1.068863034248352,-4.287261009216309,-0.3508228659629822,4.419473171234131,-0.4829758405685425,-0.8219588994979858,-0.30898454785346985,-0.4014054834842682,0.24900195002555847,-0.10593955963850021
205,3670709,3670711,-0.18182708323001862,-0.2543400228023529,1.0618995428085327,-6.127744197845459,-1.5581579208374023,4.37571907043457,-0.49047547578811646,-0.8114594221115112,-0.3014849126338959,-0.3875320553779602,0.16481822729110718,-0.06726159900426865
206,3670719,3670721,-0.07233719527721405,-0.01688196323812008,1.0232170820236206,-5.519632339477539,-3.213268518447876,4.660130500793457,-0.49047547578811646,-0.80545973777771,-0.3134843111038208,-0.3554527759552002,0.08004456013441086,-0.021882152184844017
207,3670729,3670731,0.05529681220650673,0.12967105209827423,1.0419738292694092,-4.70185661315918,-3.2766671180725098,4.798856735229492,-0.47097644209861755,-0.8129593133926392,-0.29998499155044556,-0.3254064917564392,0.0032575547229498625,0.01935400441288948
208,3670739,3670741,-0.09378643333911896,-0.10558629781007767,0.9947443008422852,-3.8537650108337402,-3.731893539428711,4.700363636016846,-0.47097644209861755,-0.8129593133926392,-0.29998499155044556,-0.2755391597747803,0.002542609814554453,0.06870388984680176
209,3670749,3670751,-0.2585861384868622,-0.24718444049358368,1.024750828742981,-2.3820009231567383,-3.3750784397125244,5.12055778503418,-0.4844757616519928,-0.8084595799446106,-0.2954852283000946,-0.2411806583404541,-0.041855715215206146,0.12026865780353546
210,3670759,3670761,-0.2850954830646515,-0.07831836491823196,1.0387232303619385,-1.7815139293670654,-2.224266290664673,4.917896270751953,-0.4829758405685425,-0.8099594712257385,-0.29998499155044556,-0.2028810679912567,-0.06683143973350525,0.16890043020248413
211,3670769,3670771,-0.2078971564769745,-0.13367527723312378,1.0120888948440552,0.9092564582824707,-1.6891894340515137,4.9561920166015625,-0.47847607731819153,-0.8144592642784119,-0.2924853563308716,-0.18375630676746368,0.0025507791433483362,0.22289586067199707
212,3670779,3670781,-0.024519583210349083,-0.05001232028007507,0.9700155258178711,2.6429831981658936,-1.1727734804153442,5.3338518142700195,-0.4859756827354431,-0.8099594712257385,-0.29998499155044556,-0.15593221783638,0.02891870215535164,0.2731136977672577
213,3670789,3670791,-0.1368105411529541,-0.3555383086204529,1.059156894683838,1.8603489398956299,0.5554923415184021,5.330885410308838,-0.4829758405685425,-0.8189590573310852,-0.30898454785346985,-0.14229875802993774,0.06326069682836533,0.33299916982650757
214,3670799,3670801,-0.11057759076356888,-0.2771730422973633,1.0667816400527954,1.4098243713378906,0.7376729249954224,4.6536545753479,-0.4739762842655182,-0.8099594712257385,-0.2969851493835449,-0.16222704946994781,0.09336842596530914,0.3852178156375885
215,3670809,3670811,-0.03205852210521698,-0.09842678904533386,1.076355218887329,0.4579803943634033,2.110633134841919,4.457796096801758,-0.4844757616519928,-0.8084595799446106,-0.3014849126338959,-0.1861245185136795,0.10933126509189606,0.43303975462913513
216,3670819,3670821,-0.23863375186920166,-0.379230797290802,1.0379194021224976,-1.8877918720245361,2.6031224727630615,4.1145453453063965,-0.4844757616519928,-0.8084595799446106,-0.3014849126338959,-0.2461262047290802,0.09419547766447067,0.4738996922969818
217,3670829,3670831,-0.7222450971603394,-0.676781177520752,0.9971240758895874,-3.6999053955078125,-3.516753911972046,5.26843786239624,-0.49047547578811646,-0.7934603095054626,-0.31048446893692017,-0.2189844846725464,-0.02015138976275921,0.5213843584060669
218,3670839,3670841,-0.43377822637557983,-0.470798522233963,1.0296913385391235,-2.6881823539733887,-1.9482816457748413,5.147684574127197,-0.4844757616519928,-0.8024598360061646,-0.2924853563308716,-0.20457801222801208,-0.07699001580476761,0.5728790163993835
219,3670849,3670851,-0.3871516287326813,-0.43378010392189026,1.0001660585403442,-2.019083261489868,-3.546280860900879,4.6473469734191895,-0.4844757616519928,-0.7964601516723633,-0.29848507046699524,-0.1840958148241043,0.02483493462204933,0.623124361038208
220,3670859,3670861,-0.7346153855323792,-0.5876432657241821,1.0172890424728394,-0.9936491250991821,-3.7716100215911865,5.026459217071533,-0.4844757616519928,-0.8084595799446106,-0.2954852283000946,-0.12432286888360977,-0.008580273948609829,0.674813449382782
221,3670869,3670871,-0.331821084022522,-0.2022036612033844,1.061794638633728,-0.21014244854450226,-0.8824232220649719,4.575765132904053,-0.4844757616519928,-0.8084595799446106,-0.2924853563308716,-0.09851415455341339,-0.03167847543954849,0.7238319516181946
222,3670879,3670881,-0.09814725071191788,-0.019462725147604942,1.0313377380371094,0.4738021492958069,0.09886350482702255,4.116705894470215,-0.47847607731819153,-0.8024598360061646,-0.2744862735271454,-0.09236852824687958,-0.02778494358062744,0.7654860615730286
223,3670889,3670891,-0.14790493249893188,-0.06500561535358429,1.061916470527649,1.231380581855774,0.11890092492103577,4.114915370941162,-0.4934753179550171,-0.80545973777771,-0.2834858298301697,-0.08551360666751862,-0.018074985593557358,0.8118302226066589
224,3670899,3670901,-0.0789208859205246,-0.013398059643805027,1.039509654045105,1.345901608467102,1.4367259740829468,3.7697439193725586,-0.4859756827354431,-0.7919603586196899,-0.28498575091362,-0.10949278622865677,-0.0054627093486487865,0.8460540175437927
225,3670909,3670911,-0.051528770476579666,-0.06680763512849808,0.9835991859436035,0.7172679305076599,0.9929948449134827,4.057656288146973,-0.4859756827354431,-0.7919603586196899,-0.28498575091362,-0.12799647450447083,0.010026129893958569,0.8855289816856384
226,3670919,3670921,-0.14271962642669678,-0.34931614995002747,0.9743332862854004,0.015118689276278019,0.41232830286026,3.4905412197113037,-0.4859756827354431,-0.7919603586196899,-0.28498575091362,-0.1517442911863327,-0.05298330634832382,0.9184378981590271
227,3670929,3670931,-0.008806997910141945,-0.05273972079157829,0.9718648195266724,0.3243885040283203,-2.8464601039886475,4.317875862121582,-0.48897555470466614,-0.7949602603912354,-0.28198590874671936,-0.1362520009279251,-0.05145684629678726,0.9592139720916748
228,3670939,3670941,-0.001929689198732376,-0.11972825229167938,0.9597395062446594,-0.9969183802604675,-3.1555254459381104,4.2558794021606445,-0.49797508120536804,-0.7799609899520874,-0.2969851493835449,-0.08811301738023758,-0.053807757794857025,1.003568172454834
229,3670949,3670951,-0.0900617241859436,-0.22768718004226685,0.9482185244560242,-0.025825750082731247,-2.722105026245117,4.044763565063477,-0.4934753179550171,-0.7964601516723633,-0.2864856719970703,-0.05340925604104996,-0.004071281757205725,1.0447640419006348
230,3670959,3670961,-0.15294575691223145,-0.0466017872095108,0.9842432737350464,-0.42045485973358154,-3.0068647861480713,4.38283634185791,-0.5039747953414917,-0.797960102558136,-0.28498575091362,-0.01312150526791811,-0.0005904404097236693,1.0870308876037598
231,3670969,3670971,-0.17658233642578125,-0.042093947529792786,1.003934621810913,-1.0247514247894287,-3.695995807647705,3.9350645542144775,-0.48747560381889343,-0.8024598360061646,-0.28048595786094666,-0.021826939657330513,-0.014854591339826584,1.1342637538909912
232,3670979,3670981,-0.050504010170698166,-0.0059557692147791386,1.003571629524231,-0.6673965454101562,-1.9570492506027222,3.311239242553711,-0.4964751601219177,-0.8084595799446106,-0.2864856719970703,0.022536559030413628,-0.03392089530825615,1.167710542678833
233,3670989,3670991,0.009445372968912125,-0.017221027985215187,0.9819195866584778,-1.582887053489685,-1.7712292671203613,3.3270139694213867,-0.48897555470466614,-0.8009599447250366,-0.28198590874671936,0.05590248480439186,-0.056162234395742416,1.2001478672027588
234,3670999,3671001,-0.04384038224816322,0.04106634110212326,1.0570493936538696,-1.6390947103500366,-0.8367317318916321,3.2932655811309814,-0.4829758405685425,-0.7859606742858887,-0.3029848337173462,0.08026158809661865,-0.0867217481136322,1.2372770309448242
235,3671009,3671011,0.031428851187229156,0.0105627765879035,1.0484683513641357,-1.6376532316207886,-1.4611016511917114,2.4221458435058594,-0.4634768068790436,-0.7874606251716614,-0.2954852283000946,0.08593674749135971,-0.11317969858646393,1.2647703886032104
236,3671019,3671021,-0.20011474192142487,-0.0630776658654213,1.008986234664917,0.4272153079509735,-3.7676005363464355,2.8631081581115723,-0.4829758405685425,-0.8009599447250366,-0.27898603677749634,0.1278078556060791,-0.11957848817110062,1.2911127805709839
237,3671029,3671031,-0.275103896856308,-0.25491878390312195,0.9668386578559875,0.4464010000228882,-2.8131299018859863,2.5931615829467773,-0.49797508120536804,-0.7949602603912354,-0.29098543524742126,0.16358700394630432,-0.11344537883996964,1.319562554359436
238,3671039,3671041,-0.4986562132835388,-0.39834892749786377,0.9928679466247559,2.3922605514526367,-1.917402744293213,2.4036943912506104,-0.48147591948509216,-0.7964601516723633,-0.2924853563308716,0.19039055705070496,-0.08566092699766159,1.3458689451217651
239,3671049,3671051,-0.27456218004226685,-0.3744373023509979,1.0133371353149414,2.213412284851074,-1.1342179775238037,2.438615083694458,-0.47997599840164185,-0.797960102558136,-0.29098543524742126,0.12912599742412567,-0.053850091993808746,1.374135136604309
240,3671059,3671061,-0.05140304937958717,-0.5058987736701965,0.9853434562683105,3.2098469734191895,-1.0601437091827393,2.3604345321655273,-0.47847607731819153,-0.80545973777771,-0.3014849126338959,0.14714272320270538,-0.08305563777685165,1.4010194540023804
241,3671069,3671071,-0.040290720760822296,-0.09522925317287445,0.9952875971794128,3.51693058013916,2.811357259750366,0.7087450623512268,-0.4754762053489685,-0.790460467338562,-0.2864856719970703,0.12045023590326309,-0.030172329396009445,1.4125666618347168
242,3671079,3671081,-0.052227940410375595,-0.35227254033088684,1.049907922744751,2.8019793033599854,2.150204658508301,0.7084681987762451,-0.49797508120536804,-0.797960102558136,-0.28498575091362,0.08740164339542389,0.022799154743552208,1.4204912185668945
243,3671089,3671091,-0.20130757987499237,-0.5999606251716614,1.055268406867981,2.343437433242798,2.5924863815307617,0.8821320533752441,-0.4934753179550171,-0.790460467338562,-0.2954852283000946,0.05444144830107689,0.07416381686925888,1.4330006837844849
244,3671099,3671101,-0.3264636993408203,-0.5493789911270142,1.0462594032287598,1.8582723140716553,3.6590523719787598,0.4584181606769562,-0.4964751601219177,-0.7964601516723633,-0.2834858298301697,0.009480300359427929,0.11212281882762909,1.443729043006897
245,3671109,3671111,-0.3699586093425751,-0.021914532408118248,1.0262737274169922,0.3086002767086029,3.4690487384796143,-0.37509024143218994,-0.48897555470466614,-0.7949602603912354,-0.27898603677749634,-0.04883628711104393,-0.010784244164824486,1.4442601203918457
246,3671119,3671121,-0.14198142290115356,-0.02878742665052414,1.0116161108016968,-0.19702714681625366,0.8814350962638855,0.15580584108829498,-0.4964751601219177,-0.7964601516723633,-0.2744862735271454,-0.07051479071378708,0.00796255562454462,1.444447636604309
247,3671129,3671131,0.030395394191145897,-0.020832784473896027,0.977038562297821,-0.5110877156257629,-0.632249116897583,0.23662979900836945,-0.47847607731819153,-0.7934603095054626,-0.2834858298301697,0.003059882204979658,0.011506273411214352,1.446088433265686
248,3671139,3671141,-0.005740276537835598,-0.006606726907193661,0.9948091506958008,-1.171297311782837,-1.5063667297363281,0.1188955083489418,-0.4859756827354431,-0.797960102558136,-0.28498575091362,0.008011161349713802,-0.000898134836461395,1.4441874027252197
249,3671149,3671151,0.010229850187897682,0.09343194216489792,0.9872037172317505,-0.3605240285396576,-3.5522713661193848,0.4931613802909851,-0.49047547578811646,-0.7994599938392639,-0.28048595786094666,0.052221015095710754,0.001728104311041534,1.4450469017028809
250,3671159,3671161,-0.002131047425791621,-0.2762864828109741,0.9908816814422607,0.5913002490997314,-3.825619697570801,0.1748763769865036,-0.49047547578811646,-0.7994599938392639,-0.28048595786094666,0.10448279976844788,0.01716081239283085,1.448734998703003
251,3671169,3671171,0.021729495376348495,-0.02878064289689064,0.9654186367988586,1.631334900856018,-3.6848530769348145,0.7076281309127808,-0.4844757616519928,-0.7994599938392639,-0.2924853563308716,0.08435185253620148,0.03779825195670128,1.455275297164917
252,3671179,3671181,0.02325407788157463,0.0002437807124806568,0.9465851187705994,1.4353967905044556,-4.178229331970215,0.3649790287017822,-0.4739762842655182,-0.7919603586196899,-0.28798559308052063,0.1440480351448059,0.0685373842716217,1.4554861783981323
253,3671189,3671191,-0.09980757534503937,-0.09981697797775269,0.9881283044815063,1.4941902160644531,-2.134465456008911,0.6341360211372375,-0.4919753968715668,-0.7889605164527893,-0.29098543524742126,0.18793337047100067,0.09738239645957947,1.458909273147583
254,3671199,3671201,-0.8562285304069519,-0.7304434776306152,0.9813824892044067,1.859398365020752,-2.498922348022461,-0.0660099983215332,-0.4859756827354431,-0.8129593133926392,-0.2939853072166443,0.21254289150238037,0.12972530722618103,1.4563590288162231
255,3671209,3671211,-0.6928938031196594,-0.3838447034358978,0.9736374616622925,2.989431142807007,-2.6867599487304688,0.83961021900177,-0.4739762842655182,-0.8009599447250366,-0.28798559308052063,0.24116212129592896,0.16369114816188812,1.4589241743087769
256,3671219,3671221,-0.06163233146071434,0.0676131471991539,0.9604253768920898,0.8170874714851379,-0.47811487317085266,0.680934488773346,-0.48897555470466614,-0.8159592151641846,-0.29098543524742126,0.2504701614379883,0.057189542800188065,1.4706588983535767
257,3671229,3671231,-0.4986177384853363,-0.5145087242126465,0.8939892649650574,0.7277680039405823,-1.0343010425567627,0.9049355983734131,-0.4859756827354431,-0.797960102558136,-0.29998499155044556,0.1262395977973938,0.0797552615404129,1.4811108112335205
258,3671239,3671241,-0.76423180103302,-0.5751078724861145,0.9819175004959106,1.3941658735275269,-1.3654851913452148,-0.04589226469397545,-0.4829758405685425,-0.8069596290588379,-0.3029848337173462,0.2884730100631714,0.10709766298532486,1.483054280281067
259,3671249,3671251,-0.5358471274375916,-0.13316752016544342,1.0881820917129517,1.2626856565475464,-0.8299289345741272,0.22425326704978943,-0.47997599840164185,-0.8159592151641846,-0.2969851493835449,0.3163679838180542,0.13943973183631897,1.4854460954666138
260,3671259,3671261,-0.5188263058662415,-0.011876866221427917,1.0503402948379517,1.8709861040115356,1.7859183549880981,-0.5027801990509033,-0.48147591948509216,-0.8084595799446106,-0.3014849126338959,0.23574377596378326,0.16818660497665405,1.4868191480636597
261,3671269,3671271,-0.2962406277656555,-0.10565534234046936,1.0090259313583374,2.8317525386810303,2.999049425125122,-0.9876882433891296,-0.4859756827354431,-0.8099594712257385,-0.3059847056865692,0.196858212351799,0.1419970840215683,1.4784486293792725
262,3671279,3671281,-0.00033587648067623377,-0.44424116611480713,1.0462751388549805,2.881976366043091,2.321779251098633,-1.436629295349121,-0.4754762053489685,-0.80545973777771,-0.29848507046699524,0.1648210734128952,0.20611068606376648,1.4706592559814453
263,3671289,3671291,0.062381356954574585,-0.23011308908462524,1.0048115253448486,2.864935874938965,-0.25188976526260376,-1.5437761545181274,-0.4934753179550171,-0.8174591064453125,-0.2954852283000946,0.21631845831871033,0.25010645389556885,1.4566789865493774
264,3671299,3671301,0.023249126970767975,-0.01687632128596306,0.9944295883178711,1.839471459388733,-0.9870141744613647,-1.7590041160583496,-0.4859756827354431,-0.8009599447250366,-0.2939853072166443,0.21145814657211304,0.22551672160625458,1.4361011981964111
265,3671309,3671311,0.01130610890686512,-0.008834575302898884,0.971612811088562,0.3893909454345703,-1.92471182346344,-1.5837920904159546,-0.4934753179550171,-0.7964601516723633,-0.3014849126338959,0.238352432847023,0.2605045437812805,1.4184926748275757
266,3671319,3671321,0.009054992347955704,-0.20058022439479828,0.995026707649231,0.3722934424877167,-1.1720980405807495,-0.9353663921356201,-0.48147591948509216,-0.8144592642784119,-0.2924853563308716,0.25225532054901123,0.27409493923187256,1.4083081483840942
267,3671329,3671331,-0.05055355280637741,-0.09931163489818573,0.9722684621810913,0.3658977150917053,-0.7831454873085022,-1.1338374614715576,-0.4829758405685425,-0.7889605164527893,-0.29098543524742126,0.256238728761673,0.2792604863643646,1.3931773900985718
268,3671339,3671341,-0.19830170273780823,-0.0797223225235939,0.9444786906242371,-1.2145251035690308,0.301980197429657,-0.9466019868850708,-0.4859756827354431,-0.8009599447250366,-0.28498575091362,0.26854264736175537,0.27533265948295593,1.384259819984436
269,3671349,3671351,-0.19944067299365997,-0.133301243185997,0.9809902310371399,-1.4401687383651733,3.255098819732666,-1.1804492473602295,-0.4859756827354431,-0.8009599447250366,-0.2939853072166443,0.2277671843767166,0.3232465088367462,1.3687094449996948
270,3671359,3671361,-0.9594330787658691,-0.4340364634990692,0.991982638835907,-2.44677472114563,2.4338784217834473,-1.7477017641067505,-0.48897555470466614,-0.8039597868919373,-0.29098543524742126,0.25616884231567383,0.3028143644332886,1.3519710302352905
271,3671369,3671371,-1.0368471145629883,-0.18284618854522705,0.9902978539466858,-2.932171583175659,4.277332305908203,-1.079048991203308,-0.4754762053489685,-0.80545973777771,-0.29848507046699524,0.19060809910297394,0.25309425592422485,1.3367958068847656
272,3671379,3671381,-0.5442883372306824,-0.523719310760498,1.0552520751953125,-2.874598979949951,3.211474657058716,-1.512362003326416,-0.47097644209861755,-0.8009599447250366,-0.2969851493835449,0.21282748878002167,0.20676350593566895,1.3284837007522583
273,3671389,3671391,-0.5896227955818176,-0.19290319085121155,1.046233892440796,-1.4342339038848877,3.0989277362823486,-1.3074604272842407,-0.47097644209861755,-0.8009599447250366,-0.3059847056865692,0.16522039473056793,0.17484553158283234,1.3122382164001465
274,3671399,3671401,-0.7786933779716492,-0.7307615280151367,1.0071114301681519,0.12317097187042236,2.5581014156341553,-1.6595197916030884,-0.4859756827354431,-0.8039597868919373,-0.2969851493835449,0.19088812172412872,0.1672850251197815,1.2975564002990723
275,3671409,3671411,-0.4046390950679779,-0.37069272994995117,1.0378684997558594,1.6006711721420288,2.7979624271392822,-2.0361335277557373,-0.4934753179550171,-0.790460467338562,-0.2864856719970703,0.21159495413303375,0.1839015781879425,1.2803136110305786
276,3671419,3671421,-0.039363157004117966,-0.2306031733751297,1.048998236656189,2.883634328842163,3.440049886703491,-1.848328948020935,-0.4949752390384674,-0.7919603586196899,-0.28198590874671936,0.16082684695720673,0.22791296243667603,1.2588590383529663
277,3671429,3671431,-0.12724274396896362,-0.6627070307731628,1.0199156999588013,3.6112966537475586,4.112856388092041,-1.3604589700698853,-0.47997599840164185,-0.8009599447250366,-0.29998499155044556,0.16315415501594543,0.27366840839385986,1.2425938844680786
278,3671439,3671441,-0.24588845670223236,-0.19488707184791565,1.020314335823059,2.2598366737365723,5.146625995635986,-1.4183326959609985,-0.4844757616519928,-0.80545973777771,-0.28948551416397095,0.06397519260644913,0.3249383270740509,1.2230533361434937
279,3671449,3671451,-0.04427526891231537,0.08872585743665695,0.9950833320617676,0.6648735404014587,4.601315021514893,-1.2634189128875732,-0.4769761562347412,-0.8009599447250366,-0.29098543524742126,0.05081937089562416,0.3491821885108948,1.2120417356491089
280,3671459,3671461,-0.4289560914039612,-0.09154962748289108,0.9732237458229065,2.097480535507202,5.251468658447266,-1.8372994661331177,-0.4859756827354431,-0.782960832118988,-0.3029848337173462,-0.05380196496844292,0.35196223855018616,1.1978416442871094
281,3671469,3671471,-0.6674993634223938,-0.2128368765115738,0.9994403123855591,0.8654380440711975,3.08797550201416,-1.1478288173675537,-0.48897555470466614,-0.797960102558136,-0.28798559308052063,-0.07370565086603165,0.29178330302238464,1.188209056854248
282,3671479,3671481,-0.3054075837135315,-0.04787897318601608,0.9273772835731506,-1.4029937982559204,2.6985347270965576,-1.3163806200027466,-0.4844757616519928,-0.80545973777771,-0.3044847846031189,-0.0006165056838653982,0.2969152629375458,1.1732027530670166
283,3671489,3671491,-0.1925858110189438,-0.3690330386161804,0.9578039050102234,-2.9984564781188965,4.0575666427612305,-1.8687748908996582,-0.48747560381889343,-0.8024598360061646,-0.3014849126338959,-0.07619606703519821,0.26440098881721497,1.1573410034179688
284,3671499,3671501,-0.04517395421862602,-0.20217832922935486,0.9913580417633057,-3.526151418685913,4.593691825866699,-1.5133299827575684,-0.48147591948509216,-0.7934603095054626,-0.28948551416397095,-0.17661859095096588,0.27661558985710144,1.1401385068893433
285,3671509,3671511,0.0251646488904953,-0.08171595633029938,0.9529069066047668,-3.5287363529205322,4.73123836517334,-1.4270375967025757,-0.4964751601219177,-0.8114594221115112,-0.2924853563308716,-0.2715774476528168,0.22406010329723358,1.1233261823654175
286,3671519,3671521,-0.06653450429439545,0.004042585846036673,1.0019136667251587,-5.083099365234375,6.308698654174805,-1.5440207719802856,-0.48897555470466614,-0.8039597868919373,-0.28498575091362,-0.2393704205751419,0.15188519656658173,1.1096124649047852
287,3671529,3671531,-0.1962583214044571,-0.3748169541358948,0.976298987865448,-3.5610082149505615,4.770445823669434,-1.4934673309326172,-0.4769761562347412,-0.7949602603912354,-0.29998499155044556,-0.34871917963027954,0.14465424418449402,1.0879157781600952
288,3671539,3671541,-0.5384595990180969,-0.23580241203308105,1.0092839002609253,-2.8440375328063965,4.975314617156982,-1.429564118385315,-0.49047547578811646,-0.8024598360061646,-0.2954852283000946,-0.37374410033226013,0.09002786874771118,1.0734577178955078
289,3671549,3671551,-0.14173053205013275,-0.09015199542045593,0.9496983885765076,-2.1638505458831787,4.285729885101318,-1.933295488357544,-0.48147591948509216,-0.7934603095054626,-0.29848507046699524,-0.38160252571105957,0.11001870781183243,1.0592933893203735
290,3671559,3671561,-0.4701671004295349,-0.06497742980718613,1.0036585330963135,-1.1441559791564941,2.0782546997070312,-1.715714693069458,-0.4829758405685425,-0.7949602603912354,-0.29998499155044556,-0.44983357191085815,0.0632588192820549,1.0358411073684692
291,3671569,3671571,-0.13774985074996948,0.006668852176517248,0.9922361969947815,-1.350050926208496,0.5177708864212036,-1.8536360263824463,-0.4844757616519928,-0.8174591064453125,-0.3014849126338959,-0.4145793318748474,0.09820424765348434,1.0198692083358765
292,3671579,3671581,-0.2169000655412674,-0.1309380829334259,1.0233795642852783,-1.400683879852295,-1.1894221305847168,-1.8011255264282227,-0.4859756827354431,-0.8129593133926392,-0.2969851493835449,-0.41953495144844055,0.05758454650640488,1.001744031906128
293,3671589,3671591,-0.47740328311920166,-0.5070112347602844,0.996084451675415,-0.8932768106460571,-1.7518572807312012,-1.0976213216781616,-0.48147591948509216,-0.8144592642784119,-0.3044847846031189,-0.4039437174797058,0.04898388683795929,0.9851436614990234
294,3671599,3671601,-0.36169373989105225,-0.4317903518676758,1.0279021263122559,-3.360959053039551,-2.407914638519287,-2.105045795440674,-0.47997599840164185,-0.8099594712257385,-0.29998499155044556,-0.3729238510131836,0.005257470067590475,0.9671370387077332
295,3671609,3671611,-0.19215987622737885,-0.0340748131275177,1.005511999130249,-3.9050943851470947,-2.791391372680664,-1.3817627429962158,-0.4739762842655182,-0.8099594712257385,-0.3029848337173462,-0.33608120679855347,-0.060432735830545425,0.9499026536941528
296,3671619,3671621,-0.4006136655807495,-0.3698243200778961,1.0119363069534302,-3.2927327156066895,-1.7803504467010498,-1.1827884912490845,-0.4844757616519928,-0.8114594221115112,-0.3014849126338959,-0.2975614368915558,-0.1163119226694107,0.9364640116691589
297,3671629,3671631,-1.1684798002243042,-0.5578933358192444,1.0227512121200562,-2.729229211807251,-0.39758941531181335,-1.610456109046936,-0.4769761562347412,-0.8129593133926392,-0.29998499155044556,-0.2819043695926666,-0.09682581573724747,0.9241335988044739
298,3671639,3671641,-0.37650614976882935,-0.051190391182899475,1.042447566986084,-2.2529804706573486,1.3941961526870728,-2.261183023452759,-0.4829758405685425,-0.8069596290588379,-0.2939853072166443,-0.3016728460788727,-0.1351681649684906,0.8999943137168884
299,3671649,3671651,-0.07146160304546356,0.05822690576314926,1.026332974433899,0.8704990148544312,3.3653831481933594,-1.6596431732177734,-0.48147591948509216,-0.8204589486122131,-0.2924853563308716,-0.3455676734447479,-0.08418881148099899,0.8861913084983826
300,3671659,3671661,-0.021834639832377434,-0.1252518594264984,1.0386205911636353,1.0952799320220947,3.530658006668091,-1.6774954795837402,-0.4859756827354431,-0.8219588994979858,-0.28198590874671936,-0.41975611448287964,-0.07463497668504715,0.8712033629417419
301,3671669,3671671,-0.2066049575805664,-0.13160206377506256,1.0231600999832153,1.9397649765014648,4.580819129943848,-2.2039217948913574,-0.49047547578811646,-0.8084595799446106,-0.2924853563308716,-0.48981115221977234,-0.06002989038825035,0.8512093424797058
302,3671679,3671681,-0.0708928182721138,-0.39496806263923645,1.0261629819869995,1.5863276720046997,3.8593332767486572,-2.250670909881592,-0.46947652101516724,-0.8024598360061646,-0.3014849126338959,-0.4984704256057739,-0.046271730214357376,0.828208327293396
303,3671689,3671691,-0.0053451345302164555,-0.2593601644039154,0.9888125658035278,1.241204023361206,2.0908219814300537,-2.7051916122436523,-0.4949752390384674,-0.8129593133926392,-0.3059847056865692,-0.4991997182369232,-0.029591692611575127,0.7993791699409485
304,3671699,3671701,-0.054158300161361694,-0.10354099422693253,1.0177161693572998,0.2379922866821289,1.8126071691513062,-2.9125068187713623,-0.4949752390384674,-0.8129593133926392,-0.3059847056865692,-0.5441056489944458,-0.031843140721321106,0.7696710824966431
305,3671709,3671711,0.06901443004608154,-0.0528174564242363,1.0769697427749634,0.7620057463645935,-0.17694330215454102,-2.6830151081085205,-0.4949752390384674,-0.8129593133926392,-0.3059847056865692,-0.5625925064086914,-0.038288138806819916,0.7416221499443054
306,3671719,3671721,-0.7727014422416687,-0.48034968972206116,1.029313564300537,-1.1196140050888062,0.00897474866360426,-3.6453659534454346,-0.47097644209861755,-0.8009599447250366,-0.29098543524742126,-0.5631511211395264,-0.04156724736094475,0.7064458727836609
307,3671729,3671731,-0.578745424747467,-0.36026015877723694,1.0280810594558716,-0.6235640048980713,-0.4070446193218231,-4.231999397277832,-0.48747560381889343,-0.8084595799446106,-0.2954852283000946,-0.4952033758163452,-0.07002843171358109,0.6634293794631958
308,3671739,3671741,-0.07087212800979614,-0.037902362644672394,1.0076382160186768,-0.4981555640697479,-1.2073944807052612,-4.209539890289307,-0.48147591948509216,-0.8084595799446106,-0.30748462677001953,-0.4862677752971649,-0.07869582623243332,0.6169072985649109
309,3671749,3671751,-0.006249553523957729,-0.075356125831604,1.0756739377975464,-1.7581665515899658,-1.012452244758606,-4.445546627044678,-0.49947500228881836,-0.7964601516723633,-0.2924853563308716,-0.46987637877464294,-0.09422539174556732,0.5804160237312317
310,3671759,3671761,-0.06371140480041504,0.029910532757639885,1.0477468967437744,0.16779765486717224,-1.7605360746383667,-4.610583782196045,-0.48747560381889343,-0.7964601516723633,-0.28948551416397095,-0.4504922032356262,-0.11816021054983139,0.5332997441291809
311,3671769,3671771,-0.050214044749736786,-0.06550922989845276,1.0030215978622437,-0.6483781933784485,1.2435970306396484,-5.5632147789001465,-0.4949752390384674,-0.8069596290588379,-0.2939853072166443,-0.46301817893981934,-0.12550222873687744,0.48146021366119385
312,3671779,3671781,-0.6112765669822693,-0.06044632941484451,1.0688976049423218,1.3525573015213013,0.5847080945968628,-4.724482536315918,-0.48747560381889343,-0.790460467338562,-0.28048595786094666,-0.4788419008255005,-0.12405496835708618,0.4320276081562042
313,3671789,3671791,-0.5922735333442688,-0.3668309152126312,0.9997450113296509,2.902468681335449,-0.39408737421035767,-4.3280510902404785,-0.4844757616519928,-0.8084595799446106,-0.2864856719970703,-0.4674929678440094,-0.08845274895429611,0.38859155774116516
314,3671799,3671801,-0.1373034417629242,-0.5913494825363159,1.0033845901489258,2.779871702194214,-1.5721882581710815,-4.9428887367248535,-0.48897555470466614,-0.7949602603912354,-0.2939853072166443,-0.4484470784664154,0.029340580105781555,0.34978190064430237
315,3671809,3671811,-0.16633887588977814,-0.250163197517395,1.0041006803512573,3.8509676456451416,-1.697450041770935,-4.485518932342529,-0.4964751601219177,-0.7994599938392639,-0.28948551416397095,-0.4199574589729309,0.00011292634735582396,0.295729398727417
316,3671819,3671821,-0.7145880460739136,-0.11995697021484375,0.995146632194519,3.3318164348602295,-2.254910945892334,-4.675919532775879,-0.4934753179550171,-0.7934603095054626,-0.2834858298301697,-0.37808457016944885,0.05550225451588631,0.25007134675979614
317,3671829,3671831,-0.24649082124233246,-0.24119898676872253,0.9919882416725159,3.0194993019104004,-2.290327787399292,-3.710637331008911,-0.4859756827354431,-0.7919603586196899,-0.29098543524742126,-0.4029236435890198,0.1020839586853981,0.21306592226028442
318,3671839,3671841,-0.9530912637710571,-0.5847728252410889,0.9939000606536865,2.501560926437378,-1.702807903289795,-2.295161008834839,-0.5009749531745911,-0.8009599447250366,-0.28498575091362,-0.4290541410446167,0.13736164569854736,0.18325334787368774
319,3671849,3671851,-0.8329797387123108,-0.46938225626945496,1.0369389057159424,2.4832258224487305,-1.844905138015747,-2.2751142978668213,-0.48747560381889343,-0.7934603095054626,-0.28048595786094666,-0.37803423404693604,0.11835294961929321,0.1570340245962143
320,3671859,3671861,-0.48703739047050476,-0.01814648136496544,0.9725596904754639,1.4027873277664185,-2.265505313873291,-1.6564209461212158,-0.49797508120536804,-0.7949602603912354,-0.2939853072166443,-0.33461299538612366,0.14186854660511017,0.13656406104564667
321,3671869,3671871,-0.40723657608032227,-0.1924060881137848,1.0086455345153809,-1.1486979722976685,0.9268686175346375,-1.2439497709274292,-0.4964751601219177,-0.7964601516723633,-0.2834858298301697,-0.321859210729599,0.13624180853366852,0.1222841814160347
322,3671879,3671881,-0.4265991151332855,-0.32114148139953613,0.9798265695571899,1.516258716583252,-3.762266159057617,-0.2859971225261688,-0.502474844455719,-0.7934603095054626,-0.29848507046699524,-0.2649117708206177,0.1353873461484909,0.11255265027284622
323,3671889,3671891,-0.245730459690094,-0.46995699405670166,1.0038936138153076,1.178504228591919,-3.898116111755371,0.06833008676767349,-0.4919753968715668,-0.8069596290588379,-0.2969851493835449,-0.2735031545162201,0.1513616293668747,0.11230968683958054
324,3671899,3671901,-0.22664883732795715,-0.2925053834915161,0.9661238193511963,1.0739209651947021,-4.356997013092041,-0.9649937152862549,-0.5009749531745911,-0.7949602603912354,-0.29098543524742126,-0.20298230648040771,0.17253810167312622,0.1066066324710846
325,3671909,3671911,-0.244330495595932,-0.5148199796676636,1.0034626722335815,1.9605876207351685,-5.238336563110352,-1.3139475584030151,-0.4964751601219177,-0.7964601516723633,-0.2744862735271454,-0.13389907777309418,0.1883411854505539,0.09440086036920547
326,3671919,3671921,-0.08231446146965027,-0.27542731165885925,0.971898078918457,3.1728036403656006,-4.349637031555176,-1.2862067222595215,-0.49047547578811646,-0.7994599938392639,-0.2834858298301697,-0.13447779417037964,0.15473797917366028,0.07745002210140228
327,3671929,3671931,-0.09667661786079407,-0.16358846426010132,0.9945309162139893,3.2199695110321045,-3.371450901031494,-1.7599296569824219,-0.48747560381889343,-0.7964601516723633,-0.277486115694046,-0.07947007566690445,0.20321610569953918,0.06027890369296074
328,3671939,3671941,-0.4914167821407318,-0.30438899993896484,0.9828875064849854,2.9939463138580322,-1.7116732597351074,-1.440629243850708,-0.5054747462272644,-0.7994599938392639,-0.2864856719970703,-0.035501930862665176,0.2464677393436432,0.041219182312488556
329,3671949,3671951,-0.55586177110672,-0.22593484818935394,0.9815443754196167,2.123867988586426,-0.5313215255737305,-1.4086835384368896,-0.4949752390384674,-0.8009599447250366,-0.28798559308052063,-0.09437978267669678,0.282510370016098,0.029063737019896507
330,3671959,3671961,-0.30291756987571716,-0.3080053925514221,1.010994553565979,1.982725977897644,1.4975898265838623,-1.8741295337677002,-0.4934753179550171,-0.7994599938392639,-0.2864856719970703,-0.09612786024808884,0.3092040717601776,0.010925950482487679
331,3671969,3671971,-0.8289496302604675,-0.579674243927002,0.9991417527198792,1.1415189504623413,2.6694834232330322,-1.6040250062942505,-0.4964751601219177,-0.80545973777771,-0.28948551416397095,-0.13152427971363068,0.33090606331825256,-0.005536756478250027
332,3671979,3671981,-0.5598604679107666,-0.04350585490465164,1.000486135482788,0.7477222084999084,2.8379054069519043,-1.509649634361267,-0.4919753968715668,-0.797960102558136,-0.27898603677749634,-0.1723097711801529,0.3340907394886017,-0.017994405701756477
333,3671989,3671991,-0.6407788991928101,-0.4271596372127533,1.0648490190505981,-0.22933728992938995,4.024406433105469,-1.4502545595169067,-0.4964751601219177,-0.8084595799446106,-0.28948551416397095,-0.21811361610889435,0.32801613211631775,-0.030283086001873016
334,3671999,3672001,-0.16752560436725616,-0.37411096692085266,1.0362188816070557,-0.457753986120224,2.0858166217803955,-1.4980530738830566,-0.49047547578811646,-0.7994599938392639,-0.29848507046699524,-0.2484339028596878,0.31119412183761597,-0.04342407360672951
335,3672009,3672011,-0.16139879822731018,-0.5136235952377319,1.009169101715088,0.2469601333141327,-0.1713433861732483,-1.5349302291870117,-0.4859756827354431,-0.8129593133926392,-0.29998499155044556,-0.2502862513065338,0.29650795459747314,-0.05782068148255348
336,3672019,3672021,-0.21997590363025665,-0.6173069477081299,1.000728964805603,-0.44704923033714294,-1.8320753574371338,-1.0286568403244019,-0.48897555470466614,-0.8129593133926392,-0.28498575091362,-0.2212306708097458,0.29504552483558655,-0.0681026354432106
337,3672029,3672031,-0.21337024867534637,-0.1452724039554596,0.9995929598808289,-0.12528367340564728,-4.182094097137451,0.3096120059490204,-0.4934753179550171,-0.790460467338562,-0.2834858298301697,-0.15711094439029694,0.2827107310295105,-0.07079342007637024
338,3672039,3672041,-0.9349300265312195,-0.32709696888923645,1.0344246625900269,0.868983268737793,-5.152599334716797,0.8562405705451965,-0.49797508120536804,-0.8039597868919373,-0.28198590874671936,-0.06810753792524338,0.2887614369392395,-0.06693359464406967
339,3672049,3672051,-0.6421259045600891,-0.23731718957424164,0.9913468360900879,0.5327122807502747,-5.6956586837768555,1.2176100015640259,-0.4919753968715668,-0.7949602603912354,-0.28798559308052063,0.024162210524082184,0.2917463779449463,-0.05734883248806
340,3672059,3672061,-0.3041313886642456,-0.34119096398353577,1.0352367162704468,1.2510850429534912,-5.801944732666016,1.427502155303955,-0.4844757616519928,-0.7934603095054626,-0.28948551416397095,0.04404069855809212,0.30182403326034546,-0.045447949320077896
341,3672069,3672071,-0.35329338908195496,-0.4326170086860657,0.9832140803337097,1.4536045789718628,-4.278311729431152,2.4390344619750977,-0.49797508120536804,-0.782960832118988,-0.2759861946105957,0.12368880957365036,0.3157363533973694,-0.025853509083390236
342,3672079,3672081,-0.5466511249542236,-0.5551359057426453,1.0195921659469604,1.6303530931472778,-1.4572428464889526,2.8226633071899414,-0.49947500228881836,-0.7754611968994141,-0.28048595786094666,0.0953163281083107,0.32840779423713684,-0.0021645803935825825
343,3672089,3672091,-0.8041419982910156,-0.8465180397033691,0.9760033488273621,2.2033824920654297,0.651401698589325,3.15698504447937,-0.4949752390384674,-0.7919603586196899,-0.2969851493835449,0.09910331666469574,0.34796884655952454,0.029226938262581825
344,3672099,3672101,-0.30583298206329346,-0.24793921411037445,1.0086504220962524,0.8086049556732178,2.4706735610961914,2.7706475257873535,-0.4919753968715668,-0.7859606742858887,-0.28498575091362,0.08095007389783859,0.3587901294231415,0.0565243735909462
345,3672109,3672111,-0.20104987919330597,-0.06297146528959274,0.9772488474845886,-0.9544612169265747,3.5406041145324707,3.0542032718658447,-0.508474588394165,-0.7844607830047607,-0.28948551416397095,0.03242582082748413,0.3459348678588867,0.08512251079082489
346,3672119,3672121,-0.06152372434735298,-0.804814875125885,0.9970899224281311,-1.248162031173706,4.74685525894165,3.9078056812286377,-0.48897555470466614,-0.7949602603912354,-0.28498575091362,-0.03136198967695236,0.32132959365844727,0.12128766626119614
347,3672129,3672131,-0.03605126217007637,-0.371921569108963,0.9728029370307922,-3.0476810932159424,4.204444408416748,4.231761455535889,-0.4934753179550171,-0.7994599938392639,-0.28948551416397095,-0.09494084864854813,0.2737599015235901,0.16060414910316467
348,3672139,3672141,-0.1633179932832718,-0.09627877920866013,1.0204029083251953,-3.136862277984619,3.8969523906707764,4.418689250946045,-0.4844757616519928,-0.8024598360061646,-0.2924853563308716,-0.14253085851669312,0.2162310630083084,0.20575754344463348
349,3672149,3672151,-0.18620887398719788,-0.14809589087963104,1.0245805978775024,-5.324336528778076,1.2173165082931519,3.7575769424438477,-0.4919753968715668,-0.8009599447250366,-0.29098543524742126,-0.09790123999118805,0.14380912482738495,0.24815084040164948
350,3672159,3672161,-0.05845320597290993,-0.07957133650779724,0.986201286315918,-4.693530082702637,-1.0818589925765991,4.632716178894043,-0.4739762842655182,-0.7889605164527893,-0.28498575091362,-0.015755794942378998,0.12814024090766907,0.2939732074737549
351,3672169,3672171,-0.06731533259153366,-0.06065864861011505,0.9959770441055298,-3.574817419052124,-2.4560739994049072,4.74675178527832,-0.49047547578811646,-0.7994599938392639,-0.28948551416397095,0.02066131867468357,0.05957525968551636,0.3426465392112732
352,3672179,3672181,-0.16249926388263702,-0.1879810094833374,0.9860128164291382,-2.3496782779693604,-3.3296613693237305,4.587341785430908,-0.4844757616519928,-0.8084595799446106,-0.29848507046699524,0.07037101686000824,0.0789574384689331,0.39073294401168823
353,3672189,3672191,-0.15746206045150757,-0.14441625773906708,1.014341950416565,0.6219877004623413,-3.694977045059204,4.5653486251831055,-0.4949752390384674,-0.8099594712257385,-0.29098543524742126,0.1352090686559677,0.05855032056570053,0.4352034032344818
354,3672199,3672201,-0.080635204911232,-0.10519064217805862,1.0750142335891724,1.8184038400650024,-2.959723472595215,3.9055004119873047,-0.4859756827354431,-0.8099594712257385,-0.29998499155044556,0.19173415005207062,0.07511336356401443,0.478028267621994
355,3672209,3672211,0.004645763896405697,-0.1200663223862648,0.9902263283729553,2.4691007137298584,-0.5269935727119446,4.200156211853027,-0.4754762053489685,-0.80545973777771,-0.28948551416397095,0.1447301059961319,0.095957912504673,0.5164048075675964
356,3672219,3672221,-0.12032391875982285,-0.13497933745384216,1.0400456190109253,1.029492735862732,1.1696747541427612,4.6565752029418945,-0.48147591948509216,-0.7964601516723633,-0.2834858298301697,0.15134380757808685,0.12618862092494965,0.5662961006164551
357,3672229,3672231,-0.2096039205789566,-0.3262498676776886,1.0204726457595825,1.4790427684783936,2.4478776454925537,4.743684768676758,-0.47847607731819153,-0.8084595799446106,-0.28948551416397095,0.11916462332010269,0.14213579893112183,0.6121584177017212
358,3672239,3672241,-0.20087555050849915,-0.7853904962539673,1.004432201385498,-1.1077111959457397,3.628237724304199,4.925613880157471,-0.49947500228881836,-0.8084595799446106,-0.28948551416397095,0.07392152398824692,0.1472727507352829,0.6591036319732666
359,3672249,3672251,-0.06407288461923599,-0.38279545307159424,0.9675891995429993,-1.95792818069458,2.963228464126587,4.232238292694092,-0.4859756827354431,-0.8009599447250366,-0.2939853072166443,0.09204696863889694,0.10769941657781601,0.7075102925300598
360,3672259,3672261,-0.062367189675569534,-0.09375877678394318,1.071482539176941,-4.481377124786377,2.8583781719207764,4.072889804840088,-0.49047547578811646,-0.8024598360061646,-0.3014849126338959,0.04650399088859558,0.052111927419900894,0.7484921813011169
361,3672269,3672271,-0.08038846403360367,-0.362938791513443,1.0839720964431763,-5.066696643829346,1.8745441436767578,4.851275444030762,-0.4859756827354431,-0.8099594712257385,-0.2969851493835449,0.018725305795669556,-0.020750779658555984,0.794929563999176
362,3672279,3672281,-0.049190953373909,-0.12565243244171143,1.0151926279067993,-5.51863956451416,2.0377798080444336,3.641261339187622,-0.48897555470466614,-0.8069596290588379,-0.28798559308052063,-0.01936044543981552,-0.042438507080078125,0.8371478319168091
363,3672289,3672291,-0.03554340451955795,0.06668850779533386,0.9942691922187805,-5.368561744689941,1.2898471355438232,4.097548961639404,-0.4919753968715668,-0.7949602603912354,-0.28198590874671936,0.024832772091031075,-0.13823002576828003,0.8791688680648804
364,3672299,3672301,-0.6734464764595032,0.11960276961326599,1.050508737564087,-4.281032085418701,0.5787094235420227,3.839611768722534,-0.47097644209861755,-0.8009599447250366,-0.28198590874671936,0.003995873965322971,-0.21293960511684418,0.9202489256858826
365,3672309,3672311,-0.37824884057044983,-0.03842363879084587,0.998119056224823,-4.002403259277344,0.7890345454216003,3.645052194595337,-0.48747560381889343,-0.8084595799446106,-0.29848507046699524,0.13150785863399506,-0.20251154899597168,0.9574002623558044
366,3672319,3672321,-0.09995987266302109,-0.004471092019230127,1.0611680746078491,-2.2112395763397217,1.3819564580917358,3.0514607429504395,-0.4739762842655182,-0.8009599447250366,-0.3059847056865692,0.1000608578324318,-0.18933828175067902,0.9896695017814636
367,3672329,3672331,-0.0674246996641159,-0.05383691564202309,1.019013524055481,0.24890711903572083,1.0423076152801514,2.4211835861206055,-0.4919753968715668,-0.8039597868919373,-0.29998499155044556,0.07323949784040451,-0.21761246025562286,1.0185796022415161
368,3672339,3672341,-0.13373486697673798,-0.16458386182785034,1.0084936618804932,1.6238179206848145,2.7806363105773926,1.968358039855957,-0.4739762842655182,-0.8069596290588379,-0.3059847056865692,0.030292654410004616,-0.21143227815628052,1.040254831314087
369,3672349,3672351,-0.1646806001663208,-0.17258241772651672,1.0114326477050781,1.1116716861724854,4.460672855377197,1.7023314237594604,-0.4769761562347412,-0.8039597868919373,-0.28798559308052063,-0.057689767330884933,-0.1996469497680664,1.0595293045043945
370,3672359,3672361,-0.4157393276691437,-0.09896740317344666,1.0051206350326538,0.9260223507881165,3.7251009941101074,1.7507803440093994,-0.48147591948509216,-0.80545973777771,-0.29848507046699524,-0.06200620159506798,-0.18635720014572144,1.0764590501785278
371,3672369,3672371,-0.20759375393390656,-0.37240272760391235,0.9691759943962097,1.4166680574417114,2.976072072982788,1.7220313549041748,-0.4829758405685425,-0.8069596290588379,-0.3149842321872711,-0.14501693844795227,-0.16766999661922455,1.0943262577056885
372,3672379,3672381,-0.29857927560806274,-0.8987006545066833,0.9828822612762451,1.8631041049957275,1.7474250793457031,1.8660011291503906,-0.46947652101516724,-0.8084595799446106,-0.2954852283000946,-0.21712221205234528,-0.1577310562133789,1.108466625213623
373,3672389,3672391,-0.22281193733215332,-0.5154123902320862,0.9995698928833008,1.8120204210281372,-0.6434099674224854,2.270953416824341,-0.4844757616519928,-0.8114594221115112,-0.29848507046699524,-0.24260284006595612,-0.13034433126449585,1.1330243349075317
374,3672399,3672401,-0.39140021800994873,-0.43128758668899536,1.0200847387313843,1.5870805978775024,-1.0295600891113281,2.531224012374878,-0.47097644209861755,-0.8099594712257385,-0.2969851493835449,-0.23786738514900208,-0.10669202357530594,1.1561896800994873
375,3672409,3672411,-0.03356198966503143,-0.41002199053764343,1.021597981452942,-0.7585639357566833,-1.909755825996399,2.7108938694000244,-0.4859756827354431,-0.8159592151641846,-0.2969851493835449,-0.22753426432609558,-0.18088287115097046,1.179713249206543
376,3672419,3672421,-0.49720922112464905,-0.22039511799812317,1.015437126159668,-0.5450847148895264,-3.03533935546875,2.684100389480591,-0.4649767279624939,-0.8219588994979858,-0.29998499155044556,-0.1797458827495575,-0.17918621003627777,1.2111644744873047
377,3672429,3672431,-1.2657502889633179,-0.4917961359024048,1.0582528114318848,0.9028429388999939,-1.152597188949585,1.762887716293335,-0.4844757616519928,-0.8144592642784119,-0.3044847846031189,-0.09150977432727814,-0.18785043060779572,1.2314453125
378,3672439,3672441,-0.479791522026062,-0.1304246187210083,1.0316261053085327,2.730160713195801,0.438772052526474,1.8031021356582642,-0.4844757616519928,-0.8084595799446106,-0.29848507046699524,-0.08544624596834183,-0.15984314680099487,1.2461786270141602
379,3672449,3672451,-0.16008558869361877,-0.3333969712257385,1.0500859022140503,4.586519241333008,2.8062903881073,1.6799750328063965,-0.4754762053489685,-0.8084595799446106,-0.3014849126338959,-0.10406091809272766,-0.09748116880655289,1.267837643623352
380,3672459,3672461,-0.699489951133728,-0.1490871161222458,1.0602833032608032,4.7911553382873535,5.543816566467285,0.34431782364845276,-0.4844757616519928,-0.8174591064453125,-0.31048446893692017,-0.1144852265715599,-0.01888829469680786,1.2758561372756958
381,3672469,3672471,-0.4740314483642578,-0.3228519856929779,1.0320351123809814,3.9902749061584473,6.9485273361206055,1.0657787322998047,-0.4829758405685425,-0.8099594712257385,-0.28798559308052063,-0.22078509628772736,0.04279036074876785,1.28721022605896
382,3672479,3672481,-0.599506676197052,-0.503495454788208,1.0275611877441406,2.201695442199707,5.84364652633667,0.35940054059028625,-0.4829758405685425,-0.8099594712257385,-0.28798559308052063,-0.3197582960128784,0.08893601596355438,1.2960528135299683
383,3672489,3672491,-0.22316141426563263,-0.03408766910433769,1.0352648496627808,0.4898104667663574,4.764557361602783,0.20152980089187622,-0.4829758405685425,-0.8099594712257385,-0.28798559308052063,-0.41776183247566223,0.11106855422258377,1.297247052192688
384,3672499,3672501,-0.13574565947055817,0.02213265933096409,1.009840488433838,-2.0634942054748535,2.9265012741088867,-0.5873021483421326,-0.48747560381889343,-0.8174591064453125,-0.3134843111038208,-0.40949174761772156,0.09421136230230331,1.2961702346801758
385,3672509,3672511,-0.7182979583740234,-0.40876805782318115,1.0047264099121094,-3.279385805130005,-0.4747828543186188,-0.5152283310890198,-0.48747560381889343,-0.8234587907791138,-0.30748462677001953,-0.3852447271347046,0.041687969118356705,1.2857102155685425
386,3672519,3672521,-0.7834274172782898,-0.6002100110054016,1.019174337387085,-4.39963436126709,-4.819402694702148,0.03598130866885185,-0.4664766788482666,-0.8264586329460144,-0.31048446893692017,-0.2690320312976837,-0.028048167005181313,1.2818197011947632
387,3672529,3672531,-0.35582366585731506,-0.5894999504089355,1.0209161043167114,-3.2619946002960205,-5.714702129364014,-0.3854016959667206,-0.47847607731819153,-0.8204589486122131,-0.28948551416397095,-0.21208316087722778,-0.10336612164974213,1.277233600616455
388,3672539,3672541,-0.6505637168884277,-0.37882107496261597,1.028517723083496,-3.504659414291382,-5.104362487792969,-0.09681539237499237,-0.4829758405685425,-0.8339582681655884,-0.2939853072166443,-0.13861607015132904,-0.15291453897953033,1.2743034362792969
389,3672549,3672551,-0.5974196195602417,-0.05673186480998993,1.0282745361328125,-1.959314227104187,-2.304976224899292,-0.5824847221374512,-0.47097644209861755,-0.8249587416648865,-0.2969851493835449,-0.0952753946185112,-0.19700512290000916,1.2687907218933105
390,3672559,3672561,-0.09247777611017227,-0.19479084014892578,1.048962950706482,-0.06784965842962265,0.40920352935791016,-1.072036623954773,-0.4679765999317169,-0.8159592151641846,-0.30898454785346985,-0.10000733286142349,-0.21381132304668427,1.2608914375305176
391,3672569,3672571,-0.14152470231056213,-0.21672041714191437,1.050335168838501,1.8887114524841309,4.658608436584473,-1.408911108970642,-0.4859756827354431,-0.8189590573310852,-0.30898454785346985,-0.1557699292898178,-0.1839955747127533,1.2513703107833862
392,3672579,3672581,-0.12265060842037201,0.01660997048020363,1.060162901878357,2.3277440071105957,7.960586071014404,-2.091541051864624,-0.47847607731819153,-0.8234587907791138,-0.3164841830730438,-0.34349796175956726,-0.151417076587677,1.23500657081604
393,3672589,3672591,-0.19961246848106384,0.022176221013069153,1.058544635772705,2.488185167312622,8.119575500488281,-2.2986910343170166,-0.4754762053489685,-0.8204589486122131,-0.3224838674068451,-0.11387522518634796,-0.03524196892976761,1.2064075469970703
394,3672599,3672601,-0.09723817557096481,-0.025080544874072075,1.053284764289856,1.6095798015594482,7.87923526763916,-3.015296220779419,-0.47847607731819153,-0.8354582190513611,-0.3164841830730438,-0.2062966674566269,-0.0022714927326887846,1.1797738075256348
395,3672609,3672611,-0.0070479800924658775,-0.006800808012485504,1.0247538089752197,0.9461894035339355,8.30486011505127,-2.488477945327759,-0.49047547578811646,-0.8174591064453125,-0.3044847846031189,-0.3696524202823639,0.015260989777743816,1.1575944423675537
396,3672619,3672621,-0.06519428640604019,-0.021644679829478264,1.0413517951965332,-0.17868654429912567,7.044737339019775,-3.0445308685302734,-0.48147591948509216,-0.8204589486122131,-0.2954852283000946,-0.4490501284599304,0.008396576158702374,1.1279464960098267
397,3672629,3672631,0.009527541697025299,-0.04446113109588623,1.043420433998108,-3.1465728282928467,6.201197624206543,-2.76541805267334,-0.4649767279624939,-0.8129593133926392,-0.3029848337173462,-0.5790215730667114,-0.02353275567293167,1.0999211072921753
398,3672639,3672641,0.00444885715842247,-0.03611913323402405,1.0268791913986206,-4.679523944854736,4.541183948516846,-3.147021532058716,-0.4829758405685425,-0.8069596290588379,-0.3059847056865692,-0.546775758266449,-0.09272336959838867,1.0643354654312134
399,3672649,3672651,-0.031386565417051315,0.07160081714391708,0.9855948090553284,-5.427209854125977,2.2004623413085938,-2.5572001934051514,-0.4859756827354431,-0.8279585838317871,-0.2969851493835449,-0.6081820726394653,-0.16447795927524567,1.0374257564544678
400,3672659,3672661,-0.019887741655111313,-0.01767084188759327,1.0267294645309448,-5.458433151245117,2.1435465812683105,-3.187795639038086,-0.49047547578811646,-0.8144592642784119,-0.2864856719970703,-0.5939573049545288,-0.25702229142189026,1.004319190979004
401,3672669,3672671,-0.058967165648937225,-0.08095908164978027,0.9947505593299866,-4.555581569671631,2.331270456314087,-2.7383992671966553,-0.47247636318206787,-0.8114594221115112,-0.29848507046699524,-0.6573604941368103,-0.32623010873794556,0.9750869274139404
402,3672679,3672681,-0.49630144238471985,-0.10485389083623886,1.097896933555603,-2.896043539047241,1.1540080308914185,-3.6303861141204834,-0.47997599840164185,-0.8099594712257385,-0.2939853072166443,-0.6909539699554443,-0.2523050010204315,0.9528623223304749
403,3672689,3672691,-0.16689005494117737,0.013811790384352207,1.0829856395721436,1.1341279745101929,-0.3987698554992676,-3.588559627532959,-0.4859756827354431,-0.8099594712257385,-0.29998499155044556,-0.7165542244911194,-0.26797565817832947,0.9128507971763611
404,3672699,3672701,-0.1740409880876541,-0.1025133728981018,1.069303274154663,3.1768016815185547,-2.1917941570281982,-3.4867613315582275,-0.48147591948509216,-0.8114594221115112,-0.2954852283000946,-0.7227203845977783,-0.24484877288341522,0.880347490310669
405,3672709,3672711,-0.05120226740837097,0.004170485306531191,0.9752478003501892,4.317874908447266,-4.498461723327637,-3.096442222595215,-0.48747560381889343,-0.8084595799446106,-0.28948551416397095,-0.6742194294929504,-0.18409162759780884,0.8461267352104187
406,3672719,3672721,-0.3166634142398834,-0.38724470138549805,1.0434437990188599,4.231771469116211,-6.902088165283203,-2.943120002746582,-0.49047547578811646,-0.8174591064453125,-0.2954852283000946,-0.5962590575218201,-0.1285034567117691,0.8172448873519897
407,3672729,3672731,-0.4245210289955139,-0.11002957075834274,1.0452502965927124,3.349381685256958,-6.3826751708984375,-2.9897420406341553,-0.48147591948509216,-0.8204589486122131,-0.2954852283000946,-0.4885236620903015,-0.13893349468708038,0.7822126150131226
408,3672739,3672741,-0.5740416646003723,-0.2411097288131714,1.0464564561843872,1.9060988426208496,-6.318100929260254,-2.5640244483947754,-0.4949752390384674,-0.8099594712257385,-0.2939853072166443,-0.35175207257270813,-0.10408353805541992,0.7567964196205139
409,3672749,3672751,-0.2481459081172943,-0.26272663474082947,1.015345811843872,1.2470104694366455,-4.061956405639648,-2.934807062149048,-0.4754762053489685,-0.8114594221115112,-0.2924853563308716,-0.4095551371574402,-0.14173255860805511,0.7298269271850586
410,3672759,3672761,-0.3776286840438843,-0.2952527701854706,1.0104604959487915,-0.9400063753128052,-2.3418331146240234,-2.6076009273529053,-0.4829758405685425,-0.8159592151641846,-0.2939853072166443,-0.3438936471939087,-0.1283966302871704,0.7032440304756165
411,3672769,3672771,-0.31297242641448975,-0.030561309307813644,1.0671088695526123,-1.7362490892410278,0.8442119359970093,-2.3533506393432617,-0.48147591948509216,-0.8084595799446106,-0.3014849126338959,-0.3868023455142975,-0.13814564049243927,0.680745542049408
412,3672779,3672781,-0.07433367520570755,-0.13276690244674683,1.0219553709030151,-3.789669990539551,1.5175005197525024,-2.2593092918395996,-0.48747560381889343,-0.8084595799446106,-0.2834858298301697,-0.407157838344574,-0.18379263579845428,0.657813310623169
413,3672789,3672791,0.014416972175240517,-0.05714868754148483,0.9786143898963928,-3.487976551055908,1.7946302890777588,-2.3286867141723633,-0.4964751601219177,-0.7994599938392639,-0.2924853563308716,-0.438935786485672,-0.24462972581386566,0.6360462307929993
414,3672799,3672801,-0.1865047663450241,0.009983494877815247,1.0019314289093018,-2.2915756702423096,0.8201206922531128,-3.268144369125366,-0.49797508120536804,-0.797960102558136,-0.29098543524742126,-0.4597955048084259,-0.28043293952941895,0.6061895489692688
415,3672809,3672811,-0.11852122843265533,0.05385642126202583,1.0411027669906616,-0.436178594827652,-0.2289501279592514,-2.689288854598999,-0.48897555470466614,-0.7949602603912354,-0.28198590874671936,-0.49390044808387756,-0.316508024930954,0.5714737772941589
416,3672819,3672821,-0.03202788904309273,0.05033354461193085,0.9985941648483276,2.342644214630127,-3.831798553466797,-2.42930269241333,-0.4859756827354431,-0.8039597868919373,-0.29098543524742126,-0.4480236768722534,-0.2867744565010071,0.5435013175010681
417,3672829,3672831,-0.11479389667510986,-0.09222985059022903,0.9863429665565491,5.0016021728515625,-6.943219184875488,-2.052558660507202,-0.4949752390384674,-0.797960102558136,-0.29098543524742126,-0.3946632444858551,-0.2329973727464676,0.5169578790664673
418,3672839,3672841,-0.08403030037879944,-0.015231035649776459,0.966506838798523,5.436131954193115,-9.982439041137695,-2.1366000175476074,-0.4844757616519928,-0.8024598360061646,-0.2834858298301697,-0.24254478514194489,-0.20034325122833252,0.4869243800640106
419,3672849,3672851,-0.21075524389743805,-0.5276294350624084,0.9748420715332031,4.539083480834961,-10.554059982299805,-1.9033710956573486,-0.49047547578811646,-0.8114594221115112,-0.29848507046699524,-0.1694716066122055,-0.1180916577577591,0.4657580554485321
420,3672859,3672861,-0.3796301782131195,-0.7924732565879822,0.9481009244918823,2.022315740585327,-10.325547218322754,-2.3656110763549805,-0.49047547578811646,-0.7964601516723633,-0.2954852283000946,-0.0657227635383606,-0.040155742317438126,0.44358476996421814
421,3672869,3672871,-0.5874008536338806,-0.19793622195720673,1.0186104774475098,1.9995836019515991,-8.063055038452148,-2.6755032539367676,-0.49047547578811646,-0.8024598360061646,-0.3014849126338959,0.01762649230659008,-0.004645135719329119,0.4217362105846405
422,3672879,3672881,-0.1759287565946579,-0.008246275596320629,0.9860443472862244,-0.11887659132480621,-3.670626163482666,-2.338804244995117,-0.4964751601219177,-0.7934603095054626,-0.2864856719970703,0.04398062825202942,-0.047741055488586426,0.39389196038246155
423,3672889,3672891,-0.031876638531684875,-0.3278571367263794,0.9433997869491577,-1.8634014129638672,-0.6710890531539917,-2.3803908824920654,-0.4859756827354431,-0.7949602603912354,-0.2939853072166443,-0.01325962319970131,-0.11774656921625137,0.37953218817710876
424,3672899,3672901,-0.02189595066010952,-0.1625295877456665,0.9882011413574219,-2.703495502471924,3.403434991836548,-2.3025379180908203,-0.48897555470466614,-0.7949602603912354,-0.28798559308052063,0.04570992290973663,-0.14614659547805786,0.35413095355033875
425,3672909,3672911,-0.2652067542076111,0.01705087721347809,1.0316728353500366,-2.194629669189453,4.707051753997803,-1.9743735790252686,-0.4829758405685425,-0.7919603586196899,-0.27898603677749634,0.003582085482776165,-0.1685114949941635,0.33966726064682007
426,3672919,3672921,-0.6708241701126099,0.045513711869716644,0.9884371757507324,-2.2593631744384766,4.85338020324707,-2.5096943378448486,-0.4754762053489685,-0.8114594221115112,-0.29848507046699524,-0.07269636541604996,-0.1881643682718277,0.3183855712413788
427,3672929,3672931,-0.356824666261673,-0.06704633682966232,0.9931148290634155,-1.0245461463928223,2.7477152347564697,-2.1354711055755615,-0.4919753968715668,-0.8009599447250366,-0.28498575091362,-0.1294938027858734,-0.19676874577999115,0.29761284589767456
428,3672939,3672941,-0.6822386384010315,-0.8383765816688538,1.046203374862671,0.2885565757751465,0.2772694528102875,-1.9324699640274048,-0.4859756827354431,-0.8099594712257385,-0.29098543524742126,-0.07782924175262451,-0.20714719593524933,0.2726820111274719
429,3672949,3672951,-0.6367136240005493,-0.4940062165260315,1.0128839015960693,1.8560888767242432,-3.0221519470214844,-2.7887885570526123,-0.49047547578811646,-0.80545973777771,-0.2834858298301697,-0.06289951503276825,-0.1702880710363388,0.24114443361759186
430,3672959,3672961,-0.26093462109565735,-0.14643494784832,0.9842182993888855,4.268800258636475,-4.899933815002441,-2.4938700199127197,-0.4769761562347412,-0.797960102558136,-0.2939853072166443,0.0028766095638275146,-0.10505878180265427,0.21451015770435333
431,3672969,3672971,-0.4423615634441376,0.0012796262744814157,0.9921192526817322,4.769449710845947,-4.345836162567139,-2.8984375,-0.4934753179550171,-0.8174591064453125,-0.2864856719970703,0.01832953281700611,-0.018393000587821007,0.1869223713874817
432,3672979,3672981,-0.08309569954872131,-0.13303324580192566,0.9846221208572388,4.552704811096191,-4.669768810272217,-2.566793203353882,-0.48897555470466614,-0.7949602603912354,-0.29098543524742126,0.0936267077922821,0.0631963238120079,0.15923458337783813
433,3672989,3672991,0.0068238237872719765,-0.12042655795812607,0.926679253578186,3.321786403656006,-3.6525352001190186,-2.6380176544189453,-0.48747560381889343,-0.7964601516723633,-0.2924853563308716,0.0862479880452156,-0.004808846861124039,0.12616010010242462
434,3672999,3673001,-0.163069486618042,-0.24552471935749054,0.9760304689407349,1.556664228439331,-4.459713935852051,-1.9550889730453491,-0.4844757616519928,-0.8024598360061646,-0.3014849126338959,0.19243808090686798,-0.08064337074756622,0.10775977373123169
435,3673009,3673011,-0.27981576323509216,-0.5393126010894775,0.9967425465583801,-0.03517686948180199,-2.1844804286956787,-1.7113343477249146,-0.47997599840164185,-0.8009599447250366,-0.2969851493835449,0.23489832878112793,-0.05953722074627876,0.08405506610870361
436,3673019,3673021,-0.3061804473400116,-0.6922546029090881,0.9979992508888245,0.5630389451980591,-0.8238043189048767,-1.450839877128601,-0.4844757616519928,-0.7994599938392639,-0.3044847846031189,0.2652975916862488,-0.030108332633972168,0.0685667172074318
437,3673029,3673031,-0.29075273871421814,-0.3028351664543152,1.0328093767166138,1.9049992561340332,2.2668237686157227,-1.406454086303711,-0.4739762842655182,-0.8189590573310852,-0.2939853072166443,0.2545928359031677,-0.005810796748846769,0.058428581804037094
438,3673039,3673041,-0.13479073345661163,-0.08974248170852661,1.0130802392959595,3.280850410461426,4.6810221672058105,-1.9941846132278442,-0.48747560381889343,-0.8024598360061646,-0.3014849126338959,0.19940085709095,-0.07854803651571274,0.04515549913048744
439,3673049,3673051,-0.496338427066803,-0.03923560678958893,1.0193002223968506,3.3931961059570312,6.012729167938232,-1.715950846672058,-0.4829758405685425,-0.8009599447250366,-0.29098543524742126,0.11441580206155777,0.0011953142238780856,0.033198095858097076
440,3673059,3673061,-0.2842569649219513,0.1484595388174057,0.9856345057487488,3.4756314754486084,6.36506462097168,-1.7058485746383667,-0.4934753179550171,-0.8084595799446106,-0.2864856719970703,0.0007157434592954814,-0.050263430923223495,0.020986288785934448
441,3673069,3673071,-0.09787815064191818,-0.07211676239967346,1.0425480604171753,4.352219104766846,4.093925476074219,-0.4375707805156708,-0.47997599840164185,-0.8009599447250366,-0.28798559308052063,-0.001859450712800026,0.0251320693641901,0.01154569536447525
442,3673079,3673081,0.011943246237933636,-0.20220336318016052,1.0023460388183594,4.186948299407959,2.403791904449463,-1.0757548809051514,-0.49797508120536804,-0.8159592151641846,-0.28498575091362,-0.04690171778202057,0.12037786096334457,0.0004587292205542326
443,3673089,3673091,-0.036245640367269516,-0.01587359420955181,0.9954265356063843,6.482114791870117,1.0147120952606201,-0.09525448083877563,-0.4829758405685425,-0.8189590573310852,-0.2939853072166443,0.06186133250594139,0.08730457723140717,-0.0011879890225827694
444,3673099,3673101,-0.31089726090431213,0.09801679104566574,1.0186207294464111,5.418306827545166,0.6567729711532593,-0.1932874321937561,-0.4964751601219177,-0.8084595799446106,-0.3014849126338959,0.005038004834204912,0.20222316682338715,-0.017062218859791756
445,3673109,3673111,0.002047876827418804,-0.07494310289621353,0.9968175292015076,4.391472339630127,-2.139396905899048,0.4338724911212921,-0.47847607731819153,-0.8114594221115112,-0.2864856719970703,0.03039020486176014,0.30203723907470703,-0.020510731264948845
446,3673119,3673121,0.043099045753479004,-0.009877849370241165,0.9818081259727478,2.496018648147583,-1.8266525268554688,0.7665604948997498,-0.48747560381889343,-0.8084595799446106,-0.2954852283000946,0.058354299515485764,0.24599215388298035,-0.010242176242172718
447,3673129,3673131,-0.03839447349309921,-0.16412249207496643,0.9931409955024719,-0.23496466875076294,-2.684931993484497,0.6272721290588379,-0.47997599840164185,-0.797960102558136,-0.2969851493835449,0.13050927221775055,0.3025510013103485,-0.007215646095573902
448,3673139,3673141,-0.4753013551235199,-0.05142904818058014,0.9908169507980347,-2.0191843509674072,-0.8723710775375366,1.5230494737625122,-0.4829758405685425,-0.8039597868919373,-0.2969851493835449,0.15530657768249512,0.23696459829807281,0.00764861423522234
449,3673149,3673151,-0.20897544920444489,-0.3123788833618164,0.9736009836196899,-1.7578619718551636,-0.90568608045578,1.765776515007019,-0.47247636318206787,-0.8024598360061646,-0.2924853563308716,0.18930774927139282,0.2493475079536438,0.028252268210053444
450,3673159,3673161,-0.07186167687177658,-0.28720682859420776,0.9974656701087952,-2.273735523223877,2.7771143913269043,2.0254592895507812,-0.4844757616519928,-0.80545973777771,-0.3014849126338959,0.15486116707324982,0.1623883992433548,0.052532557398080826
451,3673169,3673171,-0.07049974054098129,-0.013057474978268147,1.0028082132339478,-0.7715351581573486,6.003756046295166,1.5836290121078491,-0.4844757616519928,-0.8174591064453125,-0.2924853563308716,0.07699546962976456,0.16450615227222443,0.06941509246826172
452,3673179,3673181,-0.21752655506134033,-0.051720406860113144,0.9898710250854492,0.662442684173584,6.606812000274658,1.0969018936157227,-0.49797508120536804,-0.8009599447250366,-0.2939853072166443,-0.03511255979537964,0.1955300122499466,0.08001936972141266
453,3673189,3673191,-0.20372514426708221,-0.24456360936164856,1.004966378211975,2.117124319076538,6.281635284423828,1.1806793212890625,-0.49047547578811646,-0.8114594221115112,-0.2954852283000946,-0.07743385434150696,0.24308641254901886,0.08997750282287598
454,3673199,3673201,-0.09089033305644989,-0.1793380081653595,1.0246154069900513,3.7796030044555664,4.8213276863098145,1.7866500616073608,-0.48897555470466614,-0.8219588994979858,-0.29098543524742126,-0.18144860863685608,0.2335604727268219,0.10761456191539764
455,3673209,3673211,-0.24646368622779846,-0.6954207420349121,1.0052515268325806,4.154977798461914,3.670635461807251,1.4794442653656006,-0.4829758405685425,-0.8039597868919373,-0.29998499155044556,-0.18692824244499207,0.24978013336658478,0.12546584010124207
456,3673219,3673221,-0.10157929360866547,-0.35652944445610046,0.9970589876174927,4.907784461975098,1.5199658870697021,0.6509917974472046,-0.4964751601219177,-0.8084595799446106,-0.2924853563308716,-0.23309896886348724,0.3458353579044342,0.13038137555122375
457,3673229,3673231,-0.05926066264510155,-0.032336410135030746,1.005046010017395,4.737991809844971,-0.4336245357990265,0.4267549216747284,-0.4844757616519928,-0.8024598360061646,-0.28948551416397095,-0.2386734038591385,0.31951215863227844,0.13514305651187897
458,3673239,3673241,-0.05792322754859924,0.027568446472287178,0.9906784296035767,3.4687139987945557,-1.174219012260437,0.07496821880340576,-0.4844757616519928,-0.80545973777771,-0.29848507046699524,-0.08125019818544388,0.41320905089378357,0.13986580073833466
459,3673249,3673251,-0.10658624768257141,-0.017785996198654175,1.0070812702178955,2.108731269836426,-2.460308790206909,0.46092045307159424,-0.48897555470466614,-0.8129593133926392,-0.2939853072166443,-0.05974505469202995,0.47546327114105225,0.14076949656009674
460,3673259,3673261,-0.4854675531387329,-0.3066214323043823,0.9800586700439453,0.6438944339752197,-2.7697947025299072,-0.02764984220266342,-0.4859756827354431,-0.8189590573310852,-0.3029848337173462,-0.016503391787409782,0.4496079981327057,0.14362044632434845
461,3673269,3673271,-0.8102216720581055,-0.7480920553207397,1.014218807220459,0.17007730901241302,-3.1206605434417725,-0.8688470125198364,-0.4859756827354431,-0.8189590573310852,-0.3029848337173462,-0.047203898429870605,0.4030289947986603,0.13770775496959686
462,3673279,3673281,-0.14848116040229797,-0.34370043873786926,1.0176340341567993,-0.029235051944851875,-0.01824616827070713,-0.8529453277587891,-0.4859756827354431,-0.8189590573310852,-0.3029848337173462,-0.02751411311328411,0.4249038100242615,0.12956157326698303
463,3673289,3673291,-0.061062753200531006,-0.06396856904029846,1.0699602365493774,1.2766693830490112,1.3001995086669922,-1.3006070852279663,-0.4634768068790436,-0.8204589486122131,-0.2954852283000946,-0.020217174664139748,0.46058544516563416,0.12535656988620758
464,3673299,3673301,-0.36755260825157166,-0.3000817894935608,1.0594443082809448,1.972975254058838,4.224859237670898,-1.8457825183868408,-0.4754762053489685,-0.8144592642784119,-0.29848507046699524,-0.03093223087489605,0.4333032965660095,0.10949485003948212
465,3673309,3673311,-0.19745703041553497,-0.0734720528125763,1.0336356163024902,3.594437599182129,5.94184684753418,-1.0945508480072021,-0.4829758405685425,-0.8129593133926392,-0.3059847056865692,-0.12733666598796844,0.4973844885826111,0.0932805985212326
