,timestamp_start,timestamp_end,acc.x,acc.y,acc.z,gyro.x,gyro.y,gyro.z,mag.x,mag.y,mag.z,stabilizer.pitch,stabilizer.roll,stabilizer.yaw
0,77077,77078,-0.01748104952275753,0.030172038823366165,1.0664862394332886,-6.26845121383667,19.77668571472168,-12.41054916381836,-0.07949602603912354,-3.0373480319976807,0.31048446893692017,-2.2479307651519775,0.04714241623878479,-2.0824379920959473
1,77087,77088,-0.0969371497631073,-0.04355247691273689,1.099112629890442,15.829926490783691,21.936662673950195,-12.06047534942627,-0.085495725274086,-3.034348249435425,0.30748462677001953,-2.3071322441101074,0.22899040579795837,-2.153127908706665
2,77097,77098,-0.05512913689017296,-0.09619560837745667,1.0537029504776,33.252281188964844,26.99868392944336,-11.173684120178223,-0.11099445074796677,-3.0358481407165527,0.3149842321872711,-2.7045516967773438,0.668472409248352,-2.236497402191162
3,77107,77108,-0.24402813613414764,-0.12278197705745697,1.0457000732421875,37.897804260253906,33.082923889160156,-12.776237487792969,-0.09749512374401093,-3.0373480319976807,0.29848507046699524,-2.96458101272583,1.0683412551879883,-2.3365375995635986
4,77117,77118,-0.15716490149497986,-0.018606537953019142,1.0309311151504517,31.43531608581543,31.583480834960938,-13.975279808044434,-0.11099445074796677,-3.056847095489502,0.3209839463233948,-3.209817886352539,1.3091747760772705,-2.4891607761383057
5,77127,77128,-0.049191318452358246,-0.004188085440546274,1.0023231506347656,16.9969539642334,23.818458557128906,-13.480679512023926,-0.10199490189552307,-3.0448477268218994,0.3059847056865692,-3.718961477279663,1.7302417755126953,-2.573051691055298
6,77137,77138,0.002698005409911275,0.003634895896539092,1.0382213592529297,-0.7234348654747009,11.210312843322754,-11.18173599243164,-0.09899504482746124,-3.0478475093841553,0.2939853072166443,-3.568725109100342,1.6710931062698364,-2.7052199840545654
7,77147,77148,-0.011598924174904823,-0.030819620937108994,1.0001176595687866,-19.18436050415039,-2.2931771278381348,-8.84658432006836,-0.10949452221393585,-3.0463476181030273,0.3224838674068451,-3.759392261505127,1.5240124464035034,-2.835597276687622
8,77157,77158,-0.13646703958511353,-0.01701878197491169,1.0329961776733398,-27.44355583190918,-13.739483833312988,-8.374366760253906,-0.10649467259645462,-3.055347204208374,0.31048446893692017,-3.7854058742523193,1.2098305225372314,-2.969797134399414
9,77167,77168,-0.11680417507886887,-0.034105848520994186,0.9623591899871826,-22.66131019592285,-21.630380630493164,-8.052437782287598,-0.10949452221393585,-3.031348466873169,0.3224838674068451,-3.3057966232299805,0.99764084815979,-2.9800212383270264
10,77177,77178,-0.0318182073533535,-0.024029793217778206,0.9943799376487732,-11.412861824035645,-23.924123764038086,-7.859253406524658,-0.10199490189552307,-3.0478475093841553,0.3209839463233948,-3.021106004714966,1.0538218021392822,-2.932382583618164
11,77187,77188,-0.08296562731266022,-0.0015060078585520387,0.9785019159317017,-1.4889870882034302,-15.996726036071777,-7.837126731872559,-0.11099445074796677,-3.026848554611206,0.30898454785346985,-2.841508388519287,0.9191480278968811,-3.062741279602051
12,77197,77198,-0.08964932709932327,-0.04764636233448982,0.977712094783783,4.588583946228027,-4.457338333129883,-4.922313213348389,-0.10949452221393585,-3.025348663330078,0.31048446893692017,-2.7998297214508057,0.9215177893638611,-3.145082712173462
13,77207,77208,-0.036387719213962555,-0.04009656608104706,0.9529082775115967,8.817209243774414,7.177139759063721,-1.2230701446533203,-0.1049947515130043,-3.0118494033813477,0.3329833447933197,-3.0038130283355713,1.0021488666534424,-3.1948585510253906
14,77217,77218,0.07207206636667252,-0.12691745162010193,0.9462600350379944,13.410996437072754,15.963608741760254,2.5831432342529297,-0.11249437183141708,-3.0193488597869873,0.3224838674068451,-3.205634593963623,1.1635355949401855,-3.1701502799987793
15,77227,77228,-0.03702511265873909,-0.0658581554889679,0.9053066968917847,7.069016933441162,19.70145606994629,1.5876034498214722,-0.12149392068386078,-3.0223488807678223,0.3134843111038208,-3.363924741744995,1.3214387893676758,-3.117464542388916
16,77237,77238,-0.061275824904441833,-0.023010585457086563,0.9062060713768005,-8.976473808288574,25.424543380737305,0.9460108280181885,-0.11999399960041046,-3.0208489894866943,0.31798410415649414,-3.4055044651031494,1.3551033735275269,-3.0401194095611572
17,77247,77248,-0.07277616113424301,0.14127910137176514,0.8994269371032715,-21.190635681152344,22.09510040283203,0.06273717433214188,-0.11699414998292923,-3.029848337173462,0.3119843900203705,-3.7429258823394775,1.1509963274002075,-3.0756635665893555
18,77257,77258,-0.030163604766130447,0.030309604480862617,0.9327618479728699,-28.442983627319336,19.46902084350586,-0.6375426650047302,-0.11549422144889832,-3.028348445892334,0.3134843111038208,-3.766620397567749,0.8467057943344116,-3.0715537071228027
19,77267,77268,-0.05328230559825897,0.06875664740800858,0.9359843134880066,-30.561710357666016,5.805042266845703,-1.7298972606658936,-0.12749361991882324,-3.0073494911193848,0.32848358154296875,-3.9972336292266846,0.46275174617767334,-3.1452507972717285
20,77277,77278,-0.12454312294721603,0.0709899291396141,0.9619454145431519,-24.23419189453125,-10.842419624328613,-3.017183542251587,-0.11249437183141708,-3.0223488807678223,0.3164841830730438,-3.9010870456695557,0.24300989508628845,-3.1250648498535156
21,77287,77288,-0.07589715719223022,-0.04527778923511505,1.0070571899414062,-13.255915641784668,-24.299543380737305,-2.98453950881958,-0.12599369883537292,-3.029848337173462,0.3149842321872711,-3.697805404663086,0.028555892407894135,-3.1722590923309326
22,77297,77298,0.042791254818439484,0.10381888598203659,1.0125113725662231,-5.917291641235352,-26.98206329345703,-1.7460627555847168,-0.12899354100227356,-3.0448477268218994,0.32998350262641907,-3.326885938644409,0.043777696788311005,-3.11647629737854
23,77307,77308,-0.014038342982530594,0.28749361634254456,0.9437084794044495,-0.9865620732307434,-25.3895263671875,-3.233668327331543,-0.11699414998292923,-3.0178489685058594,0.3119843900203705,-3.140873908996582,0.1444118767976761,-3.072319746017456
24,77317,77318,-0.20208029448986053,0.09957960247993469,0.9789314866065979,-0.5338471531867981,-18.341773986816406,-5.619596481323242,-0.11099445074796677,-3.02384877204895,0.31798410415649414,-2.9631855487823486,0.14298416674137115,-3.1211729049682617
25,77327,77328,-0.028495021164417267,-0.017675399780273438,1.059522032737732,-2.8210928440093994,-6.704224109649658,-5.418375015258789,-0.113994300365448,-3.032848358154297,0.32998350262641907,-2.872633218765259,0.195908784866333,-3.137883186340332
26,77337,77338,-0.12504248321056366,0.05490502342581749,0.988004207611084,-8.660472869873047,1.5629440546035767,-6.581960678100586,-0.11999399960041046,-3.02384877204895,0.3209839463233948,-2.9168014526367188,0.18809600174427032,-3.1805450916290283
27,77347,77348,-0.029112711548805237,0.03534699231386185,1.016998291015625,-18.08327293395996,8.326616287231445,-7.409300804138184,-0.1229938492178917,-3.0148491859436035,0.3149842321872711,-3.0632834434509277,0.08034133911132812,-3.230936050415039
28,77357,77358,-0.09029170870780945,-0.07041377574205399,0.8759487271308899,-18.30976676940918,11.077057838439941,-6.952762603759766,-0.11549422144889832,-3.025348663330078,0.33748310804367065,-3.0127973556518555,-0.15853628516197205,-3.322819709777832
29,77367,77368,-0.11022336781024933,-0.21278685331344604,0.8431034088134766,-15.506475448608398,8.818142890930176,-8.354360580444336,-0.113994300365448,-3.02384877204895,0.3149842321872711,-3.2638492584228516,-0.4498486816883087,-3.46937894821167
30,77377,77378,0.03768519312143326,-0.17444245517253876,0.9263666272163391,-11.44836711883545,7.8757100105285645,-8.896713256835938,-0.12149392068386078,-3.0073494911193848,0.3224838674068451,-3.3136487007141113,-0.6155683398246765,-3.5682106018066406
31,77387,77388,0.05024686083197594,0.12123289704322815,0.9257844686508179,-7.991398334503174,-2.4543256759643555,-9.727062225341797,-0.113994300365448,-3.005849599838257,0.32698363065719604,-3.398092031478882,-0.7159583568572998,-3.654572010040283
32,77397,77398,-0.04870209842920303,0.11576218903064728,0.9600626230239868,2.3025925159454346,-12.968338012695312,-12.574341773986816,-0.11099445074796677,-3.0148491859436035,0.3239837884902954,-3.1746182441711426,-0.4227750599384308,-3.6085031032562256
33,77407,77408,-0.05617966502904892,0.018855035305023193,0.9836138486862183,10.403956413269043,-18.271587371826172,-15.021608352661133,-0.113994300365448,-3.02384877204895,0.3239837884902954,-2.9066226482391357,-0.3526124358177185,-3.7487714290618896
34,77417,77418,-0.01042438205331564,0.09773027151823044,0.9351224899291992,11.749212265014648,-18.494131088256836,-14.502931594848633,-0.10199490189552307,-3.026848554611206,0.33598318696022034,-2.664447069168091,-0.12014546245336533,-3.844007968902588
35,77427,77428,-0.1345958560705185,0.11330728232860565,0.9235970377922058,4.695946216583252,-18.38015365600586,-16.741485595703125,-0.10949452221393585,-3.028348445892334,0.31948402523994446,-2.530264377593994,-0.08964511007070541,-4.021492004394531
36,77437,77438,-0.06255833804607391,0.035644955933094025,0.9684651494026184,-2.679060220718384,-11.702136993408203,-15.275571823120117,-0.11099445074796677,-3.029848337173462,0.3149842321872711,-2.3172998428344727,-0.177262544631958,-4.221165657043457
37,77447,77448,-0.08526104688644409,-0.07731345295906067,0.9856889247894287,-9.08463191986084,-9.450836181640625,-15.029983520507812,-0.10649467259645462,-3.0223488807678223,0.3224838674068451,-2.2531633377075195,-0.2925005555152893,-4.392513751983643
38,77457,77458,0.050463538616895676,0.06616143882274628,0.9134228825569153,-14.999166488647461,-3.446993112564087,-12.788304328918457,-0.10799460113048553,-3.029848337173462,0.3119843900203705,-2.184091091156006,-0.5664609670639038,-4.594202041625977
39,77467,77468,-0.08254699409008026,0.1996796578168869,0.9695988297462463,-19.309833526611328,-7.050229072570801,-12.985918998718262,-0.09299534559249878,-3.02384877204895,0.3209839463233948,-2.177474021911621,-0.7846148014068604,-4.729064464569092
40,77477,77478,-0.24306915700435638,0.08893975615501404,0.8899621367454529,-20.557653427124023,-13.691397666931152,-10.616253852844238,-0.08999549597501755,-3.02384877204895,0.31798410415649414,-1.9904816150665283,-0.694595217704773,-4.7406535148620605
41,77487,77488,-0.10568497329950333,-0.0018953017424792051,0.9618891477584839,-15.015556335449219,-10.84821605682373,-11.540060997009277,-0.08999549597501755,-3.0448477268218994,0.31798410415649414,-1.8542656898498535,-0.9195693135261536,-4.8813066482543945
42,77497,77498,-0.23542678356170654,-0.020414697006344795,0.9944051504135132,-11.261882781982422,-9.58398723602295,-10.523693084716797,-0.10199490189552307,-3.0388479232788086,0.30898454785346985,-1.7742286920547485,-1.0173871517181396,-4.977818489074707
43,77507,77508,-0.10068905353546143,-0.07328268140554428,1.118520736694336,-12.097156524658203,-9.796960830688477,-10.749761581420898,-0.10049497336149216,-3.025348663330078,0.3134843111038208,-1.5567761659622192,-1.2173693180084229,-5.121499061584473
44,77517,77518,-0.022355174645781517,-0.17379814386367798,1.1035141944885254,-12.32421875,-3.5030155181884766,-8.175251960754395,-0.10349482297897339,-3.0223488807678223,0.31048446893692017,-1.532741904258728,-1.2129532098770142,-5.171370506286621
45,77527,77528,-0.06473885476589203,-0.06578479707241058,1.0064430236816406,-8.816143035888672,-2.654646873474121,-9.572317123413086,-0.10949452221393585,-3.031348466873169,0.30748462677001953,-1.4880831241607666,-1.4838615655899048,-5.302838325500488
46,77537,77538,0.005511750001460314,0.10866060853004456,0.9816638827323914,-8.404646873474121,-4.305364608764648,-8.679295539855957,-0.09899504482746124,-3.029848337173462,0.30898454785346985,-1.5235904455184937,-1.6257107257843018,-5.390077114105225
47,77547,77548,-0.06671056151390076,-0.06812974065542221,1.066859483718872,-2.258249044418335,-2.407585859298706,-8.695979118347168,-0.10199490189552307,-3.02384877204895,0.31798410415649414,-1.4950487613677979,-1.353965401649475,-5.414767265319824
48,77557,77558,-0.049321696162223816,-0.027307774871587753,0.9081723093986511,5.044062614440918,10.33635139465332,-8.2353515625,-0.10649467259645462,-3.0193488597869873,0.3254837095737457,-1.5678400993347168,-1.3762210607528687,-5.505874156951904
49,77567,77568,-0.09769513458013535,-0.08616993576288223,0.9630756378173828,4.144974231719971,6.833400249481201,-11.422167778015137,-0.11099445074796677,-3.026848554611206,0.3119843900203705,-1.698835015296936,-1.2500120401382446,-5.586163520812988
50,77577,77578,-0.09774693101644516,-0.12719585001468658,0.9278712868690491,9.88127613067627,4.53389310836792,-10.484405517578125,-0.10649467259645462,-3.028348445892334,0.32848358154296875,-1.7987607717514038,-1.209382176399231,-5.695566654205322
51,77587,77588,-0.05793091282248497,-0.03862351179122925,0.9566549062728882,8.982200622558594,-3.608534097671509,-10.534692764282227,-0.10199490189552307,-3.0358481407165527,0.30898454785346985,-1.6806422472000122,-1.136454463005066,-5.833260536193848
52,77597,77598,-0.0319756381213665,-0.012052788399159908,1.0186570882797241,5.4162678718566895,-8.041840553283691,-9.858293533325195,-0.11549422144889832,-3.031348466873169,0.31948402523994446,-1.5908414125442505,-1.0858514308929443,-5.944738388061523
53,77607,77608,-0.04985921457409859,-0.0402795635163784,0.9844600558280945,2.1309242248535156,-14.822750091552734,-9.854904174804688,-0.10949452221393585,-3.0193488597869873,0.31948402523994446,-1.4666622877120972,-1.1029703617095947,-6.049612998962402
54,77617,77618,-0.11946068704128265,-0.03283287584781647,0.9561818242073059,-3.0168673992156982,-24.43181800842285,-9.001794815063477,-0.10649467259645462,-3.034348249435425,0.3224838674068451,-1.1524473428726196,-1.1710680723190308,-6.174572944641113
55,77627,77628,-0.07316736876964569,-0.019180404022336006,0.9568437337875366,-6.469529151916504,-22.070880889892578,-9.35558032989502,-0.11249437183141708,-3.0223488807678223,0.3254837095737457,-0.9352097511291504,-1.2974110841751099,-6.26971435546875
56,77637,77638,-0.044615358114242554,-0.030049119144678116,0.9948413968086243,-11.390743255615234,-16.921327590942383,-7.710556507110596,-0.09149542450904846,-3.0433478355407715,0.32848358154296875,-0.6156740784645081,-1.4211626052856445,-6.3791913986206055
57,77647,77648,-0.002085348591208458,0.12741036713123322,1.028666615486145,-15.6253080368042,-12.458517074584961,-5.87454891204834,-0.09299534559249878,-3.032848358154297,0.3329833447933197,-0.5299829840660095,-1.4741533994674683,-6.424460411071777
58,77657,77658,-0.01079228799790144,0.0019776937551796436,1.1315433979034424,-13.550666809082031,-7.441905498504639,-4.150113582611084,-0.08999549597501755,-3.0208489894866943,0.32998350262641907,-0.4472906291484833,-1.822926640510559,-6.474898815155029
59,77667,77668,-0.03469047695398331,0.042139023542404175,0.955260694026947,-5.5187764167785645,9.346437454223633,-1.428918719291687,-0.09299534559249878,-3.0178489685058594,0.3239837884902954,-0.46663203835487366,-1.810963749885559,-6.508711338043213
60,77677,77678,-0.03601613640785217,-0.08856166899204254,1.1153255701065063,-7.306291103363037,14.386085510253906,-1.2091480493545532,-0.1049947515130043,-3.0148491859436035,0.3239837884902954,-0.6522131562232971,-1.6755423545837402,-6.514887809753418
61,77687,77688,-0.060305412858724594,-0.163432314991951,1.0152294635772705,7.9906392097473145,19.346263885498047,1.367388367652893,-0.1049947515130043,-3.008849620819092,0.3239837884902954,-0.7911159992218018,-1.725174069404602,-6.529534339904785
62,77697,77698,0.033887092024087906,-0.18437713384628296,0.9830506443977356,15.863313674926758,18.5736026763916,0.1842557191848755,-0.11699414998292923,-3.0118494033813477,0.3209839463233948,-0.9573604464530945,-1.603392243385315,-6.533038139343262
63,77707,77708,-0.0041823554784059525,0.1398642510175705,0.9094540476799011,19.442081451416016,1.3341763019561768,3.590991258621216,-0.10649467259645462,-3.025348663330078,0.3164841830730438,-1.1296073198318481,-1.355907917022705,-6.48896598815918
64,77717,77718,-0.11908448487520218,0.03626292571425438,1.0645723342895508,11.333978652954102,-13.414142608642578,4.592247009277344,-0.113994300365448,-3.0178489685058594,0.31798410415649414,-0.97295743227005,-1.1937764883041382,-6.471118450164795
65,77727,77728,-0.0820680633187294,-0.19316336512565613,1.022376298904419,10.443194389343262,-24.32024574279785,5.773914337158203,-0.1049947515130043,-3.0358481407165527,0.31798410415649414,-0.6529005169868469,-1.1263371706008911,-6.445900917053223
66,77737,77738,0.01695341058075428,-0.17037859559059143,0.9894785284996033,1.4057368040084839,-29.161577224731445,3.13572096824646,-0.11099445074796677,-3.0208489894866943,0.31798410415649414,-0.38891634345054626,-1.0766572952270508,-6.393814563751221
67,77747,77748,-0.018133176490664482,0.03183310478925705,0.9361565709114075,-4.258269786834717,-34.39389419555664,2.801071882247925,-0.09899504482746124,-3.029848337173462,0.31798410415649414,0.06084158644080162,-1.140635371208191,-6.381603240966797
68,77757,77758,-0.10682468861341476,-0.07143945246934891,1.0179111957550049,-6.887589931488037,-25.727306365966797,2.5949883460998535,-0.08699564635753632,-3.0178489685058594,0.32998350262641907,0.2407912015914917,-1.329647421836853,-6.305832862854004
69,77767,77768,-0.0512084923684597,-0.08501089364290237,0.9681203961372375,0.5895237922668457,-10.027814865112305,1.2703795433044434,-0.09749512374401093,-3.025348663330078,0.3164841830730438,0.4037359952926636,-1.3482544422149658,-6.281389236450195
70,77777,77778,0.019862059503793716,0.08689624816179276,0.9986910223960876,3.6233060359954834,-2.0699305534362793,2.6277639865875244,-0.09299534559249878,-3.026848554611206,0.32998350262641907,0.4506521224975586,-1.3430614471435547,-6.249422550201416
71,77787,77788,-0.03837757557630539,-0.0166169460862875,1.1031235456466675,7.420443058013916,11.676609992980957,2.361464262008667,-0.08999549597501755,-3.026848554611206,0.3329833447933197,0.37324678897857666,-1.2631675004959106,-6.222446918487549
72,77797,77798,0.058024197816848755,0.09094841033220291,0.972191333770752,13.308743476867676,26.92728042602539,3.5928618907928467,-0.09899504482746124,-3.0118494033813477,0.3239837884902954,0.06315053254365921,-1.1145769357681274,-6.177218437194824
73,77807,77808,-0.00849355198442936,0.16330857574939728,1.090730905532837,8.819104194641113,26.5905818939209,0.6230545043945312,-0.10349482297897339,-3.028348445892334,0.3044847846031189,-0.2041769176721573,-1.0232452154159546,-6.156310081481934
74,77817,77818,-0.14256414771080017,0.11087925732135773,1.0461044311523438,14.661604881286621,21.946138381958008,2.236060619354248,-0.10199490189552307,-3.0208489894866943,0.3239837884902954,-0.480559378862381,-0.8431759476661682,-6.150275707244873
75,77827,77828,-0.14450328052043915,-0.11164765805006027,1.0481411218643188,15.944474220275879,17.65426254272461,0.21400508284568787,-0.10049497336149216,-3.025348663330078,0.31948402523994446,-0.6839714646339417,-0.6748042106628418,-6.151620864868164
76,77837,77838,-0.017575671896338463,0.009174482896924019,1.0074862241744995,14.508072853088379,9.125429153442383,1.4134135246276855,-0.11099445074796677,-3.02384877204895,0.32998350262641907,-0.5623009204864502,-0.4276004433631897,-6.218769550323486
77,77847,77848,-0.0781208872795105,0.023376796394586563,1.0057746171951294,11.994298934936523,2.1542789936065674,-2.1349968910217285,-0.11099445074796677,-3.032848358154297,0.3059847056865692,-0.7168970704078674,-0.29746726155281067,-6.204080581665039
78,77857,77858,-0.025110678747296333,-0.011196587234735489,0.986251175403595,3.955942392349243,-6.634674549102783,0.1315470188856125,-0.113994300365448,-3.0208489894866943,0.3329833447933197,-0.6095733642578125,-0.22765789926052094,-6.219277381896973
79,77867,77868,-0.08230487257242203,-0.16938786208629608,1.0606369972229004,-4.368232250213623,-8.373407363891602,-1.5682729482650757,-0.10199490189552307,-3.029848337173462,0.3209839463233948,-0.49407675862312317,-0.3034863770008087,-6.220853805541992
80,77877,77878,-0.020567746832966805,-0.17841839790344238,0.9608492851257324,-8.981952667236328,1.354310393333435,-1.2606617212295532,-0.10949452221393585,-3.031348466873169,0.3224838674068451,-0.4169161915779114,-0.42862585186958313,-6.233193397521973
81,77887,77888,-0.04982564598321915,-0.06084355339407921,0.9033653140068054,-9.482337951660156,6.668929576873779,-3.653862953186035,-0.10199490189552307,-3.0178489685058594,0.32698363065719604,-0.39706951379776,-0.5403059720993042,-6.265723705291748
82,77897,77898,-0.019894782453775406,0.014932972379028797,0.9401211738586426,-8.13731575012207,8.548192024230957,-0.6048126816749573,-0.09899504482746124,-3.0148491859436035,0.33598318696022034,-0.5373818278312683,-0.6909202337265015,-6.264092445373535
83,77907,77908,-0.0995887741446495,-0.031931180506944656,0.9058610200881958,-0.9206029176712036,16.552242279052734,-0.9120376706123352,-0.10349482297897339,-3.0103495121002197,0.31948402523994446,-0.743726372718811,-0.7681164145469666,-6.255394458770752
84,77917,77918,0.0589081346988678,0.02616327814757824,0.9035413265228271,2.8416759967803955,16.230093002319336,0.5099815130233765,-0.10349482297897339,-3.0193488597869873,0.3254837095737457,-1.001619815826416,-0.7611725926399231,-6.2504119873046875
85,77927,77928,-0.025272155180573463,0.14274506270885468,0.959718644618988,14.019607543945312,3.850059986114502,0.7494451999664307,-0.10949452221393585,-3.031348466873169,0.31948402523994446,-1.189032793045044,-0.6339462995529175,-6.243097305297852
86,77937,77938,-0.055581532418727875,-0.10230745375156403,1.0509326457977295,24.22139549255371,0.6299915313720703,2.0184402465820312,-0.1049947515130043,-3.026848554611206,0.3239837884902954,-1.181424617767334,-0.3182815909385681,-6.249543190002441
87,77947,77948,-0.07221103459596634,-0.0026560442056506872,0.9788422584533691,28.026636123657227,-4.383535385131836,3.0336971282958984,-0.10049497336149216,-3.031348466873169,0.3224838674068451,-0.9395473003387451,0.11867430061101913,-6.268456935882568
88,77957,77958,-0.03012004867196083,0.017873143777251244,1.0086891651153564,16.4808349609375,-15.029123306274414,-0.046374332159757614,-0.10349482297897339,-3.031348466873169,0.3164841830730438,-1.0400358438491821,-0.13269172608852386,-6.17867374420166
89,77967,77968,-0.028792254626750946,-0.0673663392663002,0.8732463121414185,6.816040992736816,-24.156938552856445,0.36836710572242737,-0.11099445074796677,-3.029848337173462,0.3119843900203705,-0.7164099216461182,0.10813997685909271,-6.197783946990967
90,77977,77978,-0.05969572439789772,-0.21276234090328217,1.0203697681427002,-6.022182941436768,-22.48554229736328,-0.8663890361785889,-0.10349482297897339,-3.028348445892334,0.3134843111038208,-0.35345855355262756,0.010606387630105019,-6.199443340301514
91,77987,77988,0.02859797142446041,-0.13094615936279297,0.9306151270866394,-16.578203201293945,-20.468788146972656,0.612138032913208,-0.09299534559249878,-3.0358481407165527,0.3209839463233948,-0.2571355998516083,-0.14157713949680328,-6.188671588897705
92,77997,77998,0.044622521847486496,-0.14930906891822815,1.0711548328399658,-32.03702163696289,-19.09227180480957,-2.1314585208892822,-0.09899504482746124,-3.029848337173462,0.3149842321872711,0.023971961811184883,-0.49868670105934143,-6.190155506134033
93,78007,78008,-0.05386729538440704,-0.20396770536899567,1.0318922996520996,-25.855592727661133,-7.275500774383545,-0.7310448288917542,-0.08699564635753632,-3.029848337173462,0.3239837884902954,0.11985799670219421,-0.7277854084968567,-6.210617542266846
94,78017,78018,-0.08040496706962585,-0.24596774578094482,0.9257411360740662,-19.277273178100586,10.597295761108398,-2.313493013381958,-0.09149542450904846,-3.0373480319976807,0.3254837095737457,0.052766744047403336,-0.8856164813041687,-6.241964340209961
95,78027,78028,-0.14294016361236572,-0.06406787782907486,0.8764607310295105,-9.746850967407227,14.331679344177246,0.8065647482872009,-0.10049497336149216,-3.0223488807678223,0.31048446893692017,-0.08271701633930206,-1.0365252494812012,-6.245956897735596
96,78037,78038,-0.06199409440159798,0.06915418058633804,0.9328247308731079,0.8742725253105164,29.763399124145508,0.15692251920700073,-0.09899504482746124,-3.0148491859436035,0.3029848337173462,-0.36971932649612427,-1.1022205352783203,-6.238991737365723
97,78047,78048,0.023995811119675636,0.13161522150039673,0.97944176197052,8.780648231506348,20.84619903564453,1.5250201225280762,-0.1049947515130043,-3.0148491859436035,0.3059847056865692,-0.7242558002471924,-1.0081877708435059,-6.233315467834473
98,78057,78058,-0.07378455996513367,-0.09743663668632507,1.0815590620040894,21.594375610351562,12.304264068603516,0.6782369017601013,-0.1049947515130043,-3.032848358154297,0.3239837884902954,-0.7182016968727112,-0.7247331142425537,-6.250182628631592
99,78067,78068,-0.14239616692066193,-0.09428966045379639,1.0375598669052124,34.020774841308594,-3.192399501800537,2.1777989864349365,-0.11699414998292923,-3.029848337173462,0.31798410415649414,-0.722905695438385,-0.2553607225418091,-6.262914180755615
100,78077,78078,-0.09596242755651474,0.10986772924661636,0.9634096622467041,36.6695556640625,-18.130342483520508,2.975780725479126,-0.10799460113048553,-3.029848337173462,0.3059847056865692,-0.5444045066833496,0.11093631386756897,-6.240265846252441
101,78087,78088,-0.164583221077919,0.024040883406996727,0.9683377146720886,31.063873291015625,-17.82615089416504,4.547678470611572,-0.09299534559249878,-3.02384877204895,0.3209839463233948,-0.3501187860965729,0.4126072824001312,-6.195553302764893
102,78097,78098,-0.11286313086748123,-0.059600528329610825,0.946410059928894,24.907411575317383,-7.505707740783691,3.9451584815979004,-0.09299534559249878,-3.0388479232788086,0.3119843900203705,-0.15206897258758545,0.7458404302597046,-6.165088176727295
103,78107,78108,0.038628555834293365,0.11979574710130692,0.9896119236946106,4.994015216827393,-0.028826992958784103,4.565094470977783,-0.10049497336149216,-3.0373480319976807,0.3134843111038208,-0.13298137485980988,0.9044943451881409,-6.130778789520264
104,78117,78118,-0.012011109851300716,0.1339617669582367,1.1083173751831055,-15.73707103729248,-2.772043466567993,4.029280185699463,-0.10049497336149216,-3.0373480319976807,0.3134843111038208,-0.11122103035449982,0.7772340178489685,-6.081789016723633
105,78127,78128,-0.13319848477840424,0.012675858102738857,1.0326485633850098,-25.044437408447266,0.28528058528900146,7.9369378089904785,-0.10049497336149216,-3.0373480319976807,0.3134843111038208,-0.13967306911945343,0.4543703496456146,-6.009918212890625
106,78137,78138,-0.11597384512424469,-0.23064877092838287,1.0259835720062256,-29.24983024597168,6.277920722961426,6.727354526519775,-0.10049497336149216,-3.0373480319976807,0.3134843111038208,-0.2086562067270279,0.07488419860601425,-5.929749011993408
107,78147,78148,-0.04705335944890976,-0.202828049659729,0.88558030128479,-21.246023178100586,0.39896005392074585,8.57510757446289,-0.10799460113048553,-3.0118494033813477,0.3059847056865692,-0.24308006465435028,-0.19592969119548798,-5.851694583892822
108,78157,78158,-0.09173581004142761,-0.1007717177271843,0.9777127504348755,-9.899665832519531,-10.320321083068848,8.264067649841309,-0.0944952741265297,-3.028348445892334,0.3164841830730438,-0.15374375879764557,-0.3578765392303467,-5.756054401397705
109,78167,78168,-0.08392353355884552,-0.01092626340687275,0.9214475750923157,10.488663673400879,-10.014981269836426,11.112600326538086,-0.10949452221393585,-3.0193488597869873,0.31048446893692017,-0.10491431504487991,-0.28532448410987854,-5.668191909790039
110,78177,78178,-0.008329919539391994,0.12395454943180084,0.9066214561462402,16.08880043029785,-13.696805953979492,6.71469783782959,-0.09899504482746124,-3.026848554611206,0.3239837884902954,0.11292023211717606,0.0033520737197250128,-5.590436935424805
111,78187,78188,-0.03503567725419998,0.2195863574743271,0.8935410976409912,18.839874267578125,-15.069289207458496,8.036636352539062,-0.10799460113048553,-3.026848554611206,0.3059847056865692,0.24977728724479675,0.24404558539390564,-5.516531944274902
112,78197,78198,-0.06833058595657349,0.07690610736608505,0.9591423273086548,15.108085632324219,-2.2578225135803223,5.512086391448975,-0.10649467259645462,-3.0223488807678223,0.31048446893692017,0.3887799084186554,0.47012829780578613,-5.457717418670654
113,78207,78208,0.029315698891878128,0.15001139044761658,0.9391117691993713,4.158849239349365,6.532748699188232,5.714048385620117,-0.10049497336149216,-3.031348466873169,0.30748462677001953,0.36677560210227966,0.4946182668209076,-5.393618583679199
114,78217,78218,0.012647598050534725,0.12042892724275589,0.9670180678367615,-17.23630714416504,14.986161231994629,3.3060271739959717,-0.08849557489156723,-3.0223488807678223,0.30748462677001953,0.19185210764408112,0.3935921788215637,-5.351587772369385
115,78227,78228,-0.11129020154476166,-0.014512074179947376,0.9597155451774597,-29.555646896362305,20.22071647644043,1.9982577562332153,-0.10199490189552307,-3.02384877204895,0.3209839463233948,-0.03321424499154091,0.06866816431283951,-5.316824913024902
116,78237,78238,-0.15991586446762085,-0.026973843574523926,0.9830079078674316,-33.0789680480957,19.577787399291992,1.4443063735961914,-0.09599519520998001,-3.029848337173462,0.3119843900203705,-0.3548920750617981,-0.5271047949790955,-5.261053085327148
117,78247,78248,-0.0633637011051178,-0.03789040446281433,1.042259693145752,-23.372486114501953,17.229562759399414,2.592188835144043,-0.09299534559249878,-3.0388479232788086,0.30898454785346985,-0.38385483622550964,-0.4883480966091156,-5.278329372406006
118,78257,78258,-0.2321641743183136,-0.1475079208612442,1.0786805152893066,-5.702429294586182,14.464092254638672,3.0081074237823486,-0.08699564635753632,-3.0208489894866943,0.3119843900203705,-0.46369025111198425,-0.652205228805542,-5.238901138305664
119,78267,78268,-0.17892883718013763,-0.20184744894504547,1.0243942737579346,10.756413459777832,23.495962142944336,1.363425374031067,-0.09149542450904846,-3.025348663330078,0.30748462677001953,-0.6792604327201843,-0.6835529208183289,-5.211396217346191
120,78277,78278,-0.01961333490908146,0.06780770421028137,0.8874773383140564,26.944639205932617,8.483708381652832,-1.3604795932769775,-0.09899504482746124,-3.026848554611206,0.31798410415649414,-0.8626171350479126,-0.4499361217021942,-5.214273929595947
121,78287,78288,-0.1562921702861786,0.15940293669700623,0.9593759179115295,39.993385314941406,-4.537173748016357,-5.947445869445801,-0.10799460113048553,-3.032848358154297,0.30898454785346985,-0.9145412445068359,0.10064997524023056,-5.272944927215576
122,78297,78298,-0.0848139300942421,0.026154978200793266,1.0156645774841309,46.074798583984375,-3.4983315467834473,-7.423994064331055,-0.10049497336149216,-3.034348249435425,0.3134843111038208,-0.8521163463592529,0.3790096640586853,-5.314445495605469
123,78307,78308,-0.06962313503026962,-0.04983532428741455,1.0497452020645142,41.89518737792969,-1.5266791582107544,-11.538703918457031,-0.10799460113048553,-3.0478475093841553,0.31798410415649414,-0.8086711764335632,1.1071780920028687,-5.444740295410156
124,78317,78318,0.01576094515621662,0.07003835588693619,1.0268186330795288,31.85175895690918,0.15413114428520203,-8.407583236694336,-0.10349482297897339,-3.0373480319976807,0.3044847846031189,-0.7987432479858398,1.4165347814559937,-5.547821998596191
125,78327,78328,-0.06644406169652939,0.007690833881497383,0.8985223770141602,14.470961570739746,5.170929908752441,-5.765899181365967,-0.11249437183141708,-3.0373480319976807,0.31948402523994446,-0.8385204672813416,1.5209397077560425,-5.6082353591918945
126,78337,78338,-0.06184210628271103,0.15875117480754852,0.955768883228302,-7.992509841918945,8.617905616760254,-2.704533815383911,-0.12449377030134201,-3.0433478355407715,0.3014849126338959,-0.9719842076301575,1.4527804851531982,-5.642813682556152
127,78347,78348,-0.09423553943634033,0.028862228617072105,1.0117192268371582,-36.75025177001953,8.446352005004883,-0.8616480231285095,-0.12149392068386078,-3.031348466873169,0.3044847846031189,-1.1695111989974976,1.1302324533462524,-5.6600260734558105
128,78357,78358,-0.12902134656906128,-0.2424445003271103,0.9749479293823242,-49.16274642944336,-1.1704407930374146,-1.434823989868164,-0.10199490189552307,-3.0388479232788086,0.30898454785346985,-1.1917997598648071,0.5050868988037109,-5.660558223724365
129,78367,78368,-0.2521079182624817,-0.20332972705364227,0.9686979651451111,-62.13018798828125,-7.806906223297119,-2.804748296737671,-0.08849557489156723,-3.034348249435425,0.3044847846031189,-1.0458413362503052,-0.11552552133798599,-5.67486572265625
130,78377,78378,-0.11007314175367355,0.14408107101917267,0.9401822090148926,-59.43002700805664,-30.889968872070312,-7.076531410217285,-0.10049497336149216,-3.034348249435425,0.31048446893692017,-0.7607932090759277,-0.4137097895145416,-5.722103118896484
131,78387,78388,-0.007971853949129581,0.12847250699996948,1.1067867279052734,-37.054325103759766,-34.14185333251953,-7.928714752197266,-0.09749512374401093,-3.0223488807678223,0.3164841830730438,-0.3256398141384125,-0.9404682517051697,-5.772565841674805
132,78397,78398,0.031661517918109894,0.1138361319899559,1.0627750158309937,-11.193830490112305,-27.36490821838379,-5.8706841468811035,-0.09599519520998001,-3.0358481407165527,0.3119843900203705,-0.09963933378458023,-1.0073999166488647,-5.859723091125488
133,78407,78408,-0.11110478639602661,-0.06233298406004906,1.1144168376922607,9.097940444946289,-24.38376235961914,-5.531079292297363,-0.10649467259645462,-3.034348249435425,0.3224838674068451,0.2706727385520935,-1.032733678817749,-5.906129360198975
134,78417,78418,-0.03859023377299309,-0.06431140750646591,1.0229262113571167,32.471107482910156,-7.431337356567383,-1.7469362020492554,-0.09749512374401093,-3.025348663330078,0.3224838674068451,0.29333221912384033,-0.6479363441467285,-5.963944911956787
135,78427,78428,-0.020181559026241302,-0.11677389591932297,1.082779049873352,40.49774932861328,-3.683818817138672,-2.1026742458343506,-0.10049497336149216,-3.0103495121002197,0.3164841830730438,0.27100303769111633,-0.27628952264785767,-5.9867072105407715
136,78437,78438,-0.09584037214517593,-0.07178406417369843,0.881123423576355,47.07132339477539,16.679935455322266,1.70767080783844,-0.10799460113048553,-3.0208489894866943,0.3149842321872711,0.18478617072105408,0.26466134190559387,-5.9961724281311035
137,78447,78448,-0.10100113600492477,-0.000942420621868223,0.8283810615539551,32.01679992675781,28.70832061767578,0.03629833832383156,-0.11099445074796677,-3.0148491859436035,0.31798410415649414,-0.1536121517419815,0.6007996797561646,-5.982665061950684
138,78457,78458,-0.056633807718753815,0.007483492139726877,0.8990618586540222,18.320642471313477,29.003616333007812,0.05035088583827019,-0.1049947515130043,-3.026848554611206,0.3239837884902954,-0.41414064168930054,0.7873417139053345,-5.963279724121094
139,78467,78468,-0.007677234709262848,-0.018222203478217125,1.01603364944458,0.4460330009460449,29.33029556274414,0.3315989375114441,-0.10949452221393585,-3.031348466873169,0.3134843111038208,-0.6776995658874512,0.8439232707023621,-5.951905250549316
140,78477,78478,-0.03135715797543526,-0.05079556629061699,1.0169031620025635,-16.604785919189453,12.292131423950195,0.07677281647920609,-0.09899504482746124,-3.0358481407165527,0.3149842321872711,-0.9534078240394592,0.6989947557449341,-5.947322368621826
141,78487,78488,0.03955855965614319,0.07790331542491913,0.9489778280258179,-31.999601364135742,-2.273785352706909,2.535349130630493,-0.1049947515130043,-3.0358481407165527,0.3209839463233948,-0.8712568283081055,0.3418666124343872,-5.915220260620117
142,78497,78498,0.02712537907063961,0.15648968517780304,0.989509105682373,-40.72410202026367,-23.246597290039062,1.9142088890075684,-0.1049947515130043,-3.02384877204895,0.3119843900203705,-0.6646143198013306,-0.12366151809692383,-5.8762288093566895
143,78507,78508,-0.06564393639564514,-0.015206623822450638,1.1026192903518677,-43.850189208984375,-33.09129333496094,3.482227087020874,-0.09899504482746124,-3.026848554611206,0.30898454785346985,-0.3611506223678589,-0.5784992575645447,-5.8455681800842285
144,78517,78518,-0.03971327096223831,-0.10035177320241928,1.1434121131896973,-31.487964630126953,-32.059207916259766,-1.4928267002105713,-0.09299534559249878,-3.026848554611206,0.3239837884902954,0.057527005672454834,-0.9929521679878235,-5.829598903656006
145,78527,78528,-0.009085280820727348,-0.07739275693893433,1.1364529132843018,-19.567352294921875,-33.0482063293457,-5.36393404006958,-0.1049947515130043,-3.0208489894866943,0.3239837884902954,0.4734194874763489,-1.4031805992126465,-5.847428321838379
146,78537,78538,-0.05075770989060402,-0.07320364564657211,0.9521884918212891,7.568521022796631,-23.018901824951172,-7.012773036956787,-0.10349482297897339,-3.0193488597869873,0.31048446893692017,0.5653089284896851,-0.9523835182189941,-5.95054817199707
147,78547,78548,-0.5594251155853271,-0.029984690248966217,0.9457926750183105,23.331035614013672,-13.400516510009766,-7.915093421936035,-0.09599519520998001,-3.0208489894866943,0.3209839463233948,0.7481131553649902,-0.7468374371528625,-6.025140762329102
148,78557,78558,-0.3468531668186188,-0.038540009409189224,1.0065730810165405,40.58346176147461,-0.07461299747228622,-6.936626434326172,-0.1049947515130043,-3.0148491859436035,0.32998350262641907,0.7752513289451599,-0.2455059289932251,-6.1132402420043945
149,78567,78568,-0.024047695100307465,0.10570450127124786,0.92257159948349,36.14842987060547,15.448646545410156,-7.860260486602783,-0.09899504482746124,-3.0418479442596436,0.3209839463233948,0.66131991147995,0.206700399518013,-6.193134307861328
150,78577,78578,-0.08533848077058792,0.05768623948097229,0.981212854385376,25.960887908935547,21.66343879699707,-10.526679992675781,-0.09899504482746124,-3.026848554611206,0.3149842321872711,0.2915458679199219,0.4825995862483978,-6.281641006469727
151,78587,78588,-0.1147693619132042,0.07387913018465042,0.966679573059082,16.65866470336914,26.86488151550293,-7.251867771148682,-0.10349482297897339,-3.0193488597869873,0.31948402523994446,-0.023315513506531715,0.5747262835502625,-6.359102725982666
152,78597,78598,-0.04357936978340149,0.09330511838197708,0.9212512969970703,-4.200106620788574,18.701658248901367,-4.326855659484863,-0.09599519520998001,-3.032848358154297,0.30898454785346985,-0.08390804380178452,0.592865526676178,-6.40981912612915
153,78607,78608,-0.0841263085603714,-0.03241526708006859,1.0101655721664429,-20.0489444732666,6.306377410888672,-0.7566747069358826,-0.10799460113048553,-3.008849620819092,0.3239837884902954,-0.2945541441440582,0.39267265796661377,-6.424600601196289
154,78617,78618,-0.03663157671689987,-0.14092424511909485,1.050747275352478,-33.535423278808594,5.0472917556762695,5.274239540100098,-0.113994300365448,-3.02384877204895,0.3209839463233948,-0.29485541582107544,-0.002363385632634163,-6.385687828063965
155,78627,78628,0.03377629071474075,-0.1020769327878952,1.1141648292541504,-40.20008087158203,-6.781709671020508,3.3279659748077393,-0.10649467259645462,-3.025348663330078,0.3134843111038208,-0.2303401678800583,-0.5508920550346375,-6.321065902709961
156,78637,78638,-0.041603393852710724,-0.005365936551243067,1.0396672487258911,-33.5666618347168,-19.796390533447266,6.124799728393555,-0.09749512374401093,-3.0133492946624756,0.3164841830730438,-0.014797220937907696,-0.8681435585021973,-6.268938064575195
157,78647,78648,-0.17243899405002594,0.028996895998716354,0.9353531002998352,-12.221548080444336,-17.31566619873047,5.040849685668945,-0.09749512374401093,-3.0223488807678223,0.3254837095737457,0.2791465222835541,-1.0515445470809937,-6.206469535827637
158,78657,78658,-0.09340620785951614,0.15142065286636353,0.936739981174469,-0.5364246964454651,-19.99164390563965,8.306597709655762,-0.10199490189552307,-3.026848554611206,0.3329833447933197,0.3274514079093933,-1.034704566001892,-6.142165184020996
159,78667,78668,-0.15241780877113342,0.03359612450003624,1.0488966703414917,13.291004180908203,-10.97082805633545,8.411928176879883,-0.1049947515130043,-3.02384877204895,0.3239837884902954,0.535021185874939,-0.87625652551651,-6.065273761749268
160,78677,78678,-0.047552239149808884,0.11527389287948608,1.0234609842300415,19.332651138305664,1.5306158065795898,8.89144229888916,-0.113994300365448,-3.0118494033813477,0.32698363065719604,0.570548415184021,-0.6176384687423706,-5.992049694061279
161,78687,78688,-0.1835976243019104,0.011458930559456348,1.0730193853378296,24.57822608947754,11.668490409851074,7.957275390625,-0.09749512374401093,-3.031348466873169,0.33448326587677,0.4593214988708496,-0.34544190764427185,-5.920207500457764
162,78697,78698,-0.10839775204658508,-0.014508465304970741,0.9507570862770081,22.38028335571289,27.874523162841797,9.115091323852539,-0.11849407106637955,-3.004349708557129,0.30748462677001953,0.1682283580303192,-0.06330439448356628,-5.848428726196289
163,78707,78708,-0.10119201987981796,-0.02270655520260334,0.904275119304657,18.355697631835938,28.56790542602539,8.876007080078125,-0.1049947515130043,-3.0208489894866943,0.31798410415649414,-0.24087050557136536,0.04190051928162575,-5.744072914123535
164,78717,78718,-0.06455908715724945,0.015076207928359509,0.9751949906349182,10.737780570983887,31.427234649658203,12.364574432373047,-0.10949452221393585,-3.025348663330078,0.31948402523994446,-0.4548465609550476,0.03588735684752464,-5.6143927574157715
165,78727,78728,-0.5205836296081543,-0.04632062092423439,0.993677020072937,4.885833263397217,23.28703498840332,16.76832389831543,-0.10799460113048553,-3.0208489894866943,0.31798410415649414,-0.7504242658615112,0.15971827507019043,-5.471961498260498
166,78737,78738,-0.2723298668861389,-0.08894127607345581,0.9907889366149902,-6.795970916748047,9.688804626464844,20.134294509887695,-0.11999399960041046,-3.02384877204895,0.3149842321872711,-0.8550560474395752,0.14423030614852905,-5.287748336791992
167,78747,78748,-0.09065753221511841,0.0001337265712209046,0.9327625036239624,-12.722614288330078,-7.918150901794434,21.41490936279297,-0.11099445074796677,-3.0178489685058594,0.3209839463233948,-0.7915085554122925,-0.025179121643304825,-5.070409297943115
168,78757,78758,-0.12475612014532089,0.015585382468998432,1.0217058658599854,-19.4090576171875,-24.952964782714844,19.480571746826172,-0.11249437183141708,-3.0403478145599365,0.3134843111038208,-0.5210709571838379,-0.20231901109218597,-4.8645429611206055
169,78767,78768,-0.04883352294564247,-0.09945324063301086,1.0309231281280518,-18.416500091552734,-31.627422332763672,22.217811584472656,-0.10049497336149216,-3.0223488807678223,0.30748462677001953,-0.1943509578704834,-0.44321709871292114,-4.656274795532227
170,78777,78778,-0.07987018674612045,-0.08936487883329391,0.9968753457069397,-16.628400802612305,-29.639915466308594,20.238195419311523,-0.09299534559249878,-3.026848554611206,0.3149842321872711,0.170634463429451,-0.6639482975006104,-4.439610958099365
171,78787,78788,-0.06808977574110031,-0.06547601521015167,0.9382511377334595,-17.5914249420166,-24.937824249267578,19.470256805419922,-0.09599519520998001,-3.032848358154297,0.31798410415649414,0.3442007601261139,-0.7855721712112427,-4.243649005889893
172,78797,78798,-0.08951640874147415,-0.030965182930231094,0.976120114326477,-11.270812034606934,-16.84988784790039,18.739376068115234,-0.08099594712257385,-3.02384877204895,0.30898454785346985,0.6568470597267151,-0.9486360549926758,-4.053365707397461
173,78807,78808,-0.12526021897792816,-0.036552347242832184,1.039121389389038,-6.107381820678711,8.001694679260254,16.472715377807617,-0.09299534559249878,-3.0208489894866943,0.3239837884902954,0.6585955023765564,-1.0088889598846436,-3.879319667816162
174,78817,78818,-0.06600560992956161,0.04263346269726753,1.0004312992095947,-0.7826852798461914,31.060091018676758,16.36330795288086,-0.0944952741265297,-3.0193488597869873,0.31048446893692017,0.3329460620880127,-1.0602065324783325,-3.7160611152648926
175,78827,78828,-0.14083613455295563,0.0976286381483078,1.0667771100997925,8.577285766601562,37.01517868041992,14.786541938781738,-0.08999549597501755,-3.0178489685058594,0.3209839463233948,-0.21802031993865967,-0.9268987774848938,-3.5730459690093994
176,78837,78838,-0.17253319919109344,0.056443214416503906,1.0431092977523804,15.586852073669434,37.46831512451172,16.4506778717041,-0.08999549597501755,-3.0208489894866943,0.30898454785346985,-0.41824957728385925,-0.7166225910186768,-3.4354214668273926
177,78847,78848,-0.14919349551200867,0.003602864220738411,0.9960331320762634,12.640557289123535,23.274747848510742,18.094100952148438,-0.0944952741265297,-3.0133492946624756,0.31948402523994446,-0.8499209880828857,-0.6229943037033081,-3.2504940032958984
178,78857,78858,-0.08913075178861618,0.05261808633804321,0.9483773112297058,5.73792028427124,8.283138275146484,19.152469635009766,-0.09749512374401093,-3.0373480319976807,0.3224838674068451,-0.8949653506278992,-0.6725413203239441,-3.058627128601074
179,78867,78868,-0.06472155451774597,0.103565514087677,0.9536327719688416,-7.702721118927002,-4.346286773681641,17.344463348388672,-0.11699414998292923,-3.0178489685058594,0.3209839463233948,-0.9173449277877808,-0.6621325612068176,-2.8722100257873535
180,78877,78878,-0.03559301048517227,0.051238540560007095,0.9820185303688049,-20.040422439575195,-13.5197114944458,15.904984474182129,-0.10199490189552307,-3.029848337173462,0.32698363065719604,-0.7767768502235413,-0.942095935344696,-2.697925567626953
181,78887,78888,-0.0637187659740448,0.0713803693652153,0.9790673851966858,-22.946002960205078,-20.50543975830078,14.007194519042969,-0.08849557489156723,-3.028348445892334,0.3134843111038208,-0.5119539499282837,-1.0660678148269653,-2.5574543476104736
182,78897,78898,-0.16851894557476044,0.051791712641716,0.9778085350990295,-12.150300979614258,-23.869998931884766,12.306577682495117,-0.09899504482746124,-3.02384877204895,0.3209839463233948,-0.16624870896339417,-1.2752127647399902,-2.4319684505462646
183,78907,78908,-0.18450666964054108,0.019817614927887917,0.9747458696365356,-0.7653021216392517,-19.76205825805664,11.136549949645996,-0.10349482297897339,-3.028348445892334,0.32848358154296875,0.19388122856616974,-1.2937127351760864,-2.3181004524230957
184,78917,78918,-0.06071224436163902,0.10617788881063461,1.0161042213439941,6.383196830749512,-11.119686126708984,11.433198928833008,-0.07949602603912354,-3.025348663330078,0.3254837095737457,0.2905046045780182,-1.1377516984939575,-2.198103427886963
185,78927,78928,-0.07823290675878525,0.13816562294960022,1.00337815284729,17.347606658935547,-6.3846821784973145,12.565208435058594,-0.10649467259645462,-3.025348663330078,0.32848358154296875,0.23306655883789062,-0.9415932893753052,-2.068716049194336
186,78937,78938,-0.15324416756629944,0.04540901631116867,0.970429539680481,25.128934860229492,7.670712947845459,13.462389945983887,-0.0944952741265297,-3.0403478145599365,0.3224838674068451,0.2885730564594269,-1.147935152053833,-1.9248641729354858
187,78947,78948,0.005487256217747927,0.04774874076247215,0.949908971786499,29.219820022583008,16.44086265563965,13.711932182312012,-0.08849557489156723,-3.0223488807678223,0.3224838674068451,0.11097908020019531,-0.6688852906227112,-1.7934123277664185
188,78957,78958,0.029678665101528168,0.07650702446699142,0.9262205958366394,26.592187881469727,14.192901611328125,13.279770851135254,-0.10199490189552307,-3.029848337173462,0.3149842321872711,-0.17479097843170166,-0.24713893234729767,-1.6511017084121704
189,78967,78968,-0.09392926096916199,-0.025693560019135475,0.962762176990509,19.51187515258789,4.490542411804199,11.987078666687012,-0.09299534559249878,-3.026848554611206,0.3029848337173462,-0.22492334246635437,-0.11119037121534348,-1.5264127254486084
190,78977,78978,-0.09449968487024307,-0.21932275593280792,0.9178096055984497,9.001007080078125,2.28369402885437,13.060320854187012,-0.10049497336149216,-3.028348445892334,0.3164841830730438,-0.29958057403564453,-0.06882037222385406,-1.397579312324524
191,78987,78988,-0.2651882767677307,-0.10381166636943817,0.9202842116355896,-1.602286458015442,-0.4604567587375641,11.01281452178955,-0.0944952741265297,-3.0373480319976807,0.3254837095737457,-0.32702040672302246,0.028685668483376503,-1.2794290781021118
192,78997,78998,-0.20966650545597076,-0.027495190501213074,1.0549535751342773,-10.44765853881836,-4.563753604888916,10.057303428649902,-0.09299534559249878,-3.0208489894866943,0.31798410415649414,-0.13814117014408112,-0.24056124687194824,-1.1770137548446655
193,79007,79008,-0.05418594181537628,0.05942633002996445,1.0868500471115112,-10.87765884399414,0.41167470812797546,6.831164360046387,-0.0764961764216423,-3.0373480319976807,0.3164841830730438,-0.09537050873041153,-0.30042341351509094,-1.0966618061065674
194,79017,79018,-0.2474936693906784,0.2528974711894989,1.044252634048462,-8.660995483398438,1.517189621925354,1.113417625427246,-0.08399579674005508,-3.0418479442596436,0.31798410415649414,-0.13728976249694824,-0.4140479862689972,-1.0578655004501343
195,79027,79028,-0.1721881479024887,0.21768365800380707,1.0840375423431396,-0.9978665709495544,10.682442665100098,-0.5713827610015869,-0.09749512374401093,-3.034348249435425,0.3224838674068451,-0.21423374116420746,-0.44244062900543213,-1.058763027191162
196,79037,79038,-0.13911107182502747,0.12432298809289932,1.0903362035751343,12.49085807800293,17.324960708618164,0.8735513091087341,-0.08399579674005508,-3.032848358154297,0.3059847056865692,-0.39230602979660034,-0.3826068639755249,-1.0594310760498047
197,79047,79048,-0.08723597228527069,0.10419334471225739,1.0631599426269531,22.606576919555664,20.597179412841797,-0.8028033375740051,-0.09749512374401093,-3.0373480319976807,0.3164841830730438,-0.48607316613197327,-0.13712939620018005,-1.0669689178466797
198,79057,79058,-0.03307151794433594,0.12707819044589996,1.0781151056289673,24.330366134643555,23.54778480529785,-1.6784886121749878,-0.08249587565660477,-3.0373480319976807,0.31948402523994446,-0.6973118782043457,0.013437345623970032,-1.0751783847808838
199,79067,79068,0.017569877207279205,0.23177358508110046,1.0566208362579346,22.65999984741211,21.814428329467773,0.5989705324172974,-0.08099594712257385,-3.0388479232788086,0.31798410415649414,-0.9473953247070312,0.39071041345596313,-1.0803974866867065
200,79077,79078,-0.0893622413277626,0.3579038977622986,0.995236873626709,18.47542381286621,12.419798851013184,1.0331716537475586,-0.10349482297897339,-3.0373480319976807,0.3164841830730438,-0.9979600310325623,0.4922259747982025,-1.0741887092590332
201,79087,79088,-0.07258114963769913,0.18014466762542725,0.9783412218093872,7.908727645874023,12.102078437805176,0.9752724170684814,-0.10649467259645462,-3.025348663330078,0.32848358154296875,-1.2355856895446777,0.7519537806510925,-1.0566562414169312
202,79097,79098,-0.1699775904417038,0.006275308318436146,0.9113124012947083,-1.4665950536727905,1.6267379522323608,-0.9274728298187256,-0.10949452221393585,-3.034348249435425,0.3314834237098694,-1.1113026142120361,0.4911629855632782,-1.0641539096832275
203,79107,79108,-0.21242813766002655,-0.005374586675316095,0.9172312021255493,-10.108128547668457,-9.554376602172852,-5.5072126388549805,-0.10349482297897339,-3.028348445892334,0.3134843111038208,-0.9034466743469238,0.43531179428100586,-1.099229097366333
204,79117,79118,-0.1463252454996109,0.0015554726123809814,0.9609746336936951,-13.24901008605957,-10.969596862792969,-7.901838779449463,-0.10349482297897339,-3.031348466873169,0.3254837095737457,-0.767196536064148,0.28405672311782837,-1.1672959327697754
205,79127,79128,-0.016075806692242622,0.0996519923210144,0.9689018130302429,-9.9559965133667,-11.376667976379395,-7.6302409172058105,-0.10799460113048553,-3.02384877204895,0.3059847056865692,-0.6813762187957764,0.14191381633281708,-1.2507165670394897
206,79137,79138,-0.07774308323860168,0.12399044632911682,0.958980917930603,-3.5501692295074463,-14.295892715454102,-11.52731704711914,-0.09299534559249878,-3.0358481407165527,0.3059847056865692,-0.6036924719810486,0.09234515577554703,-1.3463939428329468
207,79147,79148,-0.14021319150924683,0.06237887218594551,1.0345640182495117,2.9509010314941406,-6.714173793792725,-11.35720157623291,-0.10049497336149216,-3.0223488807678223,0.31048446893692017,-0.4973626732826233,0.15246935188770294,-1.4592552185058594
208,79157,79158,-0.13006646931171417,-0.034398581832647324,0.9970871210098267,15.00338077545166,5.795932292938232,-12.247673034667969,-0.09299534559249878,-3.0148491859436035,0.3119843900203705,-0.5204029679298401,0.256926566362381,-1.5848302841186523
209,79167,79168,-0.012003586627542973,-0.05215401202440262,1.0207527875900269,19.01007080078125,16.90485191345215,-13.57771110534668,-0.10049497336149216,-3.0463476181030273,0.30748462677001953,-0.7333383560180664,0.45128536224365234,-1.7186216115951538
210,79177,79178,-0.02140631340444088,-0.005529879126697779,1.0057345628738403,23.516664505004883,22.421642303466797,-11.766867637634277,-0.10949452221393585,-3.0463476181030273,0.31948402523994446,-0.9776157140731812,0.7192902565002441,-1.8425782918930054
211,79187,79188,-0.11543067544698715,-0.13991251587867737,1.0512205362319946,27.191970825195312,26.935461044311523,-14.719728469848633,-0.11699414998292923,-3.050847291946411,0.3119843900203705,-1.3654847145080566,1.058546781539917,-1.9763165712356567
212,79197,79198,-0.0691850334405899,-0.27013811469078064,0.9657995104789734,26.06922149658203,30.35612678527832,-13.181489944458008,-0.10949452221393585,-3.034348249435425,0.31948402523994446,-1.671402931213379,1.3678282499313354,-2.115046739578247
213,79207,79208,0.012212742120027542,-0.3535640835762024,0.9380266666412354,14.695070266723633,27.559093475341797,-15.30336856842041,-0.09749512374401093,-3.0463476181030273,0.31048446893692017,-1.9828051328659058,1.4480876922607422,-2.259495735168457
214,79217,79218,0.10841736942529678,-0.008470657281577587,1.0085415840148926,-6.857376575469971,15.048989295959473,-10.717719078063965,-0.09899504482746124,-3.0418479442596436,0.3149842321872711,-2.0974879264831543,1.2696995735168457,-2.3971903324127197
215,79227,79228,-0.010799935087561607,0.2173205465078354,0.9847029447555542,-15.00964069366455,-3.3310885429382324,-11.198052406311035,-0.10049497336149216,-3.0373480319976807,0.3164841830730438,-2.1002910137176514,1.1289254426956177,-2.495842456817627
216,79237,79238,-0.12011175602674484,0.05958418920636177,0.9521657228469849,-18.287443161010742,-13.680721282958984,-8.074906349182129,-0.10199490189552307,-3.0478475093841553,0.30898454785346985,-2.008676052093506,0.8994029760360718,-2.597137212753296
217,79247,79248,-0.1189190149307251,-0.08737346529960632,0.9163607954978943,-17.41852569580078,-18.318662643432617,-5.359924793243408,-0.08249587565660477,-3.0373480319976807,0.3134843111038208,-1.7493525743484497,0.7099351286888123,-2.6537866592407227
218,79257,79258,-0.11521288752555847,-0.133147194981575,0.9879849553108215,-20.535058975219727,-18.831195831298828,-6.410483360290527,-0.09899504482746124,-3.026848554611206,0.3059847056865692,-1.5478657484054565,0.5300368070602417,-2.712427854537964
219,79267,79268,0.01021787989884615,0.0080961212515831,1.0467931032180786,-14.105521202087402,-25.489505767822266,-4.374778747558594,-0.10199490189552307,-3.0418479442596436,0.3029848337173462,-1.2674717903137207,0.37639784812927246,-2.7568564414978027
220,79277,79278,-0.0452682189643383,0.03929423913359642,1.035603642463684,-3.5994205474853516,-15.529932975769043,-6.2214531898498535,-0.0944952741265297,-3.0403478145599365,0.3044847846031189,-1.1439427137374878,0.3444707989692688,-2.810075044631958
221,79287,79288,0.010295054875314236,0.1804673820734024,0.9539356827735901,0.45798513293266296,-5.523777008056641,-4.351129531860352,-0.11099445074796677,-3.026848554611206,0.3029848337173462,-1.090785264968872,0.3464224934577942,-2.868561267852783
222,79297,79298,-0.21532844007015228,0.12259256839752197,1.0382733345031738,4.7347259521484375,-8.013534545898438,-4.821652889251709,-0.11099445074796677,-3.0358481407165527,0.30898454785346985,-1.0934412479400635,0.44310832023620605,-2.9116199016571045
223,79307,79308,-0.1371142566204071,-0.043637923896312714,1.0842875242233276,6.143761157989502,-0.5138582587242126,-4.62214469909668,-0.09749512374401093,-3.034348249435425,0.31948402523994446,-1.068846344947815,0.566834032535553,-2.955989122390747
224,79317,79318,-0.031480662524700165,0.007992361672222614,1.0031230449676514,4.118723392486572,-6.320329666137695,-7.835289478302002,-0.10199490189552307,-3.0358481407165527,0.30898454785346985,-1.0189071893692017,0.6351140737533569,-3.0141899585723877
225,79327,79328,-0.36898988485336304,-0.003913963213562965,0.9701098203659058,-3.4055097103118896,-4.290380001068115,-11.085783958435059,-0.10199490189552307,-3.0448477268218994,0.30898454785346985,-0.9356099367141724,0.7020582556724548,-3.0989041328430176
226,79337,79338,-0.2696787416934967,0.027911841869354248,0.9135071039199829,-6.219611167907715,-1.2174218893051147,-13.48865795135498,-0.09899504482746124,-3.0358481407165527,0.3149842321872711,-1.0730087757110596,0.5438434481620789,-3.2675652503967285
227,79347,79348,-0.15151658654212952,0.07558470219373703,0.8904361724853516,-8.940917015075684,-2.2671620845794678,-15.24925422668457,-0.11549422144889832,-3.028348445892334,0.30748462677001953,-1.0389379262924194,0.43906348943710327,-3.412017583847046
228,79357,79358,-0.13450780510902405,-0.01763647235929966,1.023396611213684,3.2906038761138916,-6.877342700958252,-15.224431037902832,-0.0944952741265297,-3.0403478145599365,0.31948402523994446,-1.0160484313964844,0.3963611423969269,-3.574579954147339
229,79367,79368,-0.18497154116630554,-0.1533762365579605,1.1814717054367065,13.301512718200684,-11.633598327636719,-18.181875228881836,-0.09899504482746124,-3.0448477268218994,0.30898454785346985,-0.9569443464279175,0.5745252370834351,-3.7267844676971436
230,79377,79378,-0.23524494469165802,-0.10647502541542053,1.1022757291793823,29.133731842041016,-18.17099952697754,-21.456674575805664,-0.10949452221393585,-3.034348249435425,0.31048446893692017,-0.8620234131813049,0.9306474924087524,-3.9153473377227783
231,79387,79388,-0.07945339381694794,-0.018623821437358856,1.0083863735198975,43.034820556640625,-21.036840438842773,-24.284311294555664,-0.0944952741265297,-3.049347400665283,0.31048446893692017,-0.6403788328170776,1.442779302597046,-4.122549533843994
232,79397,79398,-0.20812472701072693,0.0527699813246727,0.9864029288291931,55.58869552612305,-23.063518524169922,-24.336687088012695,-0.10649467259645462,-3.0403478145599365,0.30748462677001953,-0.5224185585975647,1.9020752906799316,-4.396367073059082
233,79407,79408,-0.15754730999469757,0.11159928888082504,1.039615511894226,51.697837829589844,-24.795930862426758,-22.041419982910156,-0.10949452221393585,-3.0433478355407715,0.3164841830730438,-0.13215932250022888,2.458514928817749,-4.615671634674072
234,79417,79418,-0.12535026669502258,-0.025331072509288788,1.0166640281677246,38.798213958740234,-19.022567749023438,-19.34331703186035,-0.10949452221393585,-3.049347400665283,0.3134843111038208,-0.0007230142364278436,2.6296005249023438,-4.876873016357422
235,79427,79428,-0.061216194182634354,-0.1620388925075531,0.9867803454399109,13.233545303344727,-13.182645797729492,-15.3654146194458,-0.10199490189552307,-3.050847291946411,0.30898454785346985,0.15410961210727692,3.0882933139801025,-5.031315803527832
236,79437,79438,-0.022220635786652565,-0.059784989804029465,1.0391184091567993,-18.858301162719727,-9.902587890625,-9.360041618347168,-0.09899504482746124,-3.0418479442596436,0.3059847056865692,0.10532510280609131,2.798502206802368,-5.2080078125
237,79447,79448,-0.0932495966553688,0.03579077124595642,1.0581507682800293,-41.347957611083984,-1.6040054559707642,-2.981334924697876,-0.0944952741265297,-3.0403478145599365,0.29848507046699524,0.1858406662940979,2.421658515930176,-5.260860443115234
238,79457,79458,-0.10901855677366257,-0.008443068712949753,1.0546092987060547,-46.19660186767578,4.001245498657227,1.2571454048156738,-0.09299534559249878,-3.0448477268218994,0.29998499155044556,0.137409970164299,1.7961699962615967,-5.282812595367432
239,79467,79468,-0.09292423725128174,-0.02676256187260151,0.9774535298347473,-44.92990493774414,-2.1752984523773193,6.715897560119629,-0.08699564635753632,-3.0448477268218994,0.2969851493835449,0.037012141197919846,1.5684579610824585,-5.248476505279541
240,79477,79478,-0.15725430846214294,-0.004812030587345362,1.0258667469024658,-41.795936584472656,-7.209566116333008,9.709931373596191,-0.10049497336149216,-3.0403478145599365,0.3134843111038208,0.15418553352355957,1.0145131349563599,-5.142500400543213
241,79487,79488,-0.15025007724761963,-0.0019701572600752115,1.1098257303237915,-33.535980224609375,-14.193965911865234,10.167875289916992,-0.08699564635753632,-3.029848337173462,0.30898454785346985,0.3976950943470001,0.738407552242279,-4.999122619628906
242,79497,79498,-0.06746633350849152,0.0279795341193676,1.029050350189209,-14.002544403076172,-20.394676208496094,11.042505264282227,-0.11099445074796677,-3.02384877204895,0.3059847056865692,0.578702986240387,0.7455112934112549,-4.894196510314941
243,79507,79508,-0.07402614504098892,0.03766867145895958,1.0015159845352173,4.842240810394287,-17.459341049194336,12.608423233032227,-0.11699414998292923,-3.032848358154297,0.3209839463233948,0.7670641541481018,0.7418384552001953,-4.774160861968994
244,79517,79518,-0.06272939592599869,-0.06327272951602936,0.9583808779716492,12.519753456115723,-10.225329399108887,15.134297370910645,-0.10349482297897339,-3.028348445892334,0.31948402523994446,0.8378843665122986,0.8879063129425049,-4.661696434020996
245,79527,79528,-0.04117201641201973,-0.07215438783168793,0.923052966594696,9.57007122039795,-4.410013198852539,16.77301788330078,-0.09899504482746124,-3.032848358154297,0.3149842321872711,0.932097315788269,1.0543947219848633,-4.495081424713135
246,79537,79538,-0.03846083581447601,0.03363676741719246,0.89759761095047,0.7281140089035034,-0.8016346096992493,19.272724151611328,-0.10649467259645462,-3.034348249435425,0.31048446893692017,0.9188718199729919,1.1233916282653809,-4.328529357910156
247,79547,79548,-0.06646831333637238,-0.020922115072607994,0.9048044085502625,-12.059368133544922,1.4512114524841309,18.900022506713867,-0.09149542450904846,-3.0223488807678223,0.30748462677001953,0.9215450882911682,0.9865083694458008,-4.129932403564453
248,79557,79558,-0.032282572239637375,0.0044704219326376915,0.9205081462860107,-27.174217224121094,5.923781394958496,16.092849731445312,-0.0764961764216423,-3.0193488597869873,0.3134843111038208,0.9042137861251831,0.8473529815673828,-3.965278387069702
249,79567,79568,-0.1386709213256836,0.09587617963552475,0.933127224445343,-33.878753662109375,9.530237197875977,12.420319557189941,-0.07949602603912354,-3.034348249435425,0.31048446893692017,0.7855867743492126,0.4375706613063812,-3.81510066986084
250,79577,79578,-0.13991107046604156,-0.020002080127596855,1.034291386604309,-33.85986328125,11.718655586242676,9.7337646484375,-0.0764961764216423,-3.034348249435425,0.30748462677001953,0.7332351207733154,-0.09589728713035583,-3.670555830001831
251,79587,79588,-0.47512269020080566,-0.031846608966588974,1.0121732950210571,-24.25372314453125,11.999314308166504,6.377020359039307,-0.08099594712257385,-3.029848337173462,0.29998499155044556,0.5614504814147949,-0.31455448269844055,-3.6126508712768555
252,79597,79598,-0.2728133797645569,-0.005329153500497341,1.0255123376846313,-11.015707015991211,8.750652313232422,4.537763595581055,-0.085495725274086,-3.0373480319976807,0.3134843111038208,0.4080235958099365,-0.49236664175987244,-3.5670325756073
253,79607,79608,-0.0715731531381607,-0.005828440189361572,1.0931915044784546,6.040009021759033,5.229422569274902,4.910863876342773,-0.085495725274086,-3.0373480319976807,0.3134843111038208,0.4224245250225067,-0.5155861973762512,-3.513960838317871
254,79617,79618,-0.13515321910381317,-0.06465117633342743,1.0319372415542603,16.392719268798828,-1.9624574184417725,2.556366443634033,-0.085495725274086,-3.0373480319976807,0.3134843111038208,0.4146743714809418,-0.3326885998249054,-3.4749391078948975
255,79627,79628,-0.09435558319091797,-0.06684766709804535,0.9840067625045776,13.242121696472168,-4.928770542144775,1.5333402156829834,-0.085495725274086,-3.0373480319976807,0.3134843111038208,0.499561071395874,-0.09497975558042526,-3.4656169414520264
256,79637,79638,-0.06737437099218369,-0.06506314873695374,0.9825231432914734,11.476778984069824,-4.775058746337891,1.915643334388733,-0.085495725274086,-3.0373480319976807,0.3134843111038208,0.5930129289627075,-0.025816330686211586,-3.4391720294952393
257,79647,79648,-0.40407031774520874,-0.11041343957185745,0.9821776151657104,4.213812828063965,-2.3863883018493652,3.950028896331787,-0.07799609750509262,-3.0208489894866943,0.3149842321872711,0.6944621801376343,0.09821109473705292,-3.412834405899048
258,79657,79658,-0.22196120023727417,-0.0475020706653595,0.9449612498283386,-3.251711845397949,2.3869831562042236,6.338293552398682,-0.08399579674005508,-3.026848554611206,0.3119843900203705,0.7675440907478333,0.014097344130277634,-3.3407232761383057
259,79667,79668,-0.023677952587604523,0.007754642050713301,0.9729870557785034,-11.399176597595215,4.4200639724731445,8.934743881225586,-0.085495725274086,-3.052347421646118,0.3134843111038208,0.7210471630096436,-0.1200878843665123,-3.2532856464385986
260,79677,79678,-0.055774107575416565,0.0808849036693573,0.9972628355026245,-10.38762092590332,4.136890411376953,10.723410606384277,-0.07049647718667984,-3.034348249435425,0.3014849126338959,0.6469260454177856,-0.2750879228115082,-3.1478869915008545
261,79687,79688,-0.12883982062339783,0.007034863345324993,0.9855881929397583,-8.283721923828125,3.1366183757781982,13.169157028198242,-0.08249587565660477,-3.031348466873169,0.3134843111038208,0.641512930393219,-0.38485264778137207,-3.0254719257354736
262,79697,79698,-0.07021890580654144,0.07878097146749496,0.9570867419242859,-2.938281536102295,0.9842259883880615,15.654708862304688,-0.08249587565660477,-3.0403478145599365,0.31048446893692017,0.6025354266166687,-0.40713515877723694,-2.8807904720306396
263,79707,79708,-0.06438426673412323,0.08565928786993027,1.0126081705093384,-0.37153303623199463,0.3058663308620453,19.17422866821289,-0.08249587565660477,-3.0433478355407715,0.3014849126338959,0.6626860499382019,-0.4332304000854492,-2.7039003372192383
264,79717,79718,-0.12628258764743805,0.08261120319366455,0.9734611511230469,8.777179718017578,-2.213193655014038,20.385665893554688,-0.07799609750509262,-3.0388479232788086,0.3059847056865692,0.8145595788955688,-0.4150702655315399,-2.5017433166503906
265,79727,79728,-0.1556866317987442,-0.10268456488847733,1.030479907989502,12.478259086608887,2.546401262283325,22.052303314208984,-0.07949602603912354,-3.034348249435425,0.29848507046699524,0.8473281264305115,-0.261514276266098,-2.297238826751709
266,79737,79738,-0.2597591280937195,-0.14761504530906677,0.9986618161201477,10.599021911621094,5.286387920379639,24.52008819580078,-0.08849557489156723,-3.0373480319976807,0.29848507046699524,0.7595183849334717,-0.1487429291009903,-2.0549819469451904
267,79747,79748,-0.14915721118450165,-0.006092546042054892,1.0456793308258057,-4.3294782638549805,8.299407958984375,25.031280517578125,-0.07349632680416107,-3.0463476181030273,0.3044847846031189,0.6612622737884521,-0.17111876606941223,-1.7919005155563354
268,79757,79758,-0.05631767213344574,0.12868037819862366,1.0543248653411865,-18.48319435119629,13.263932228088379,24.750417709350586,-0.09149542450904846,-3.0433478355407715,0.3014849126338959,0.4548152685165405,-0.3056592047214508,-1.5318371057510376
269,79767,79768,-0.09102138131856918,0.13913720846176147,1.0654020309448242,-28.751041412353516,21.7462215423584,23.553115844726562,-0.08249587565660477,-3.0373480319976807,0.3014849126338959,0.14956510066986084,-0.7014275193214417,-1.2540770769119263
270,79777,79778,-0.09069127589464188,0.208465576171875,1.0135053396224976,-24.447397232055664,24.25942611694336,22.111438751220703,-0.08999549597501755,-3.0388479232788086,0.3119843900203705,-0.16786514222621918,-1.17596435546875,-0.9867562055587769
271,79787,79788,-0.17512370645999908,0.09841321408748627,1.0135462284088135,-12.83763599395752,18.2955322265625,19.79619026184082,-0.08249587565660477,-3.0373480319976807,0.3044847846031189,-0.033494770526885986,-1.03561270236969,-0.8676681518554688
272,79797,79798,-0.13770389556884766,-0.04271203279495239,1.0775264501571655,1.065779685974121,8.737159729003906,20.20781707763672,-0.08249587565660477,-3.0403478145599365,0.3164841830730438,-0.05033080652356148,-1.1445523500442505,-0.673555850982666
273,79807,79808,-0.11396405100822449,-0.11822005361318588,1.0009275674819946,13.228743553161621,1.0679051876068115,19.699615478515625,-0.09299534559249878,-3.029848337173462,0.29998499155044556,-0.07422468811273575,-1.0277312994003296,-0.48065683245658875
274,79817,79818,-0.09061696380376816,-0.17324689030647278,1.023537039756775,20.467044830322266,-3.5822644233703613,19.14708709716797,-0.07499624788761139,-3.032848358154297,0.3059847056865692,-0.07384433597326279,-0.7440043091773987,-0.29756486415863037
275,79827,79828,-0.07108858972787857,-0.1474836766719818,1.069101095199585,19.53823471069336,-1.450780987739563,20.077529907226562,-0.1049947515130043,-3.032848358154297,0.31798410415649414,-0.03453239053487778,-0.4940112233161926,-0.10853070765733719
276,79837,79838,-0.16139675676822662,0.010629016906023026,1.0508958101272583,18.643260955810547,4.642865180969238,20.958303451538086,-0.10199490189552307,-3.0358481407165527,0.31798410415649414,-0.10611367225646973,-0.3320004940032959,0.1120905727148056
277,79847,79848,-0.09570789337158203,0.08634285628795624,1.0971076488494873,10.421735763549805,6.898215293884277,20.46737289428711,-0.07799609750509262,-3.0418479442596436,0.3149842321872711,-0.16399362683296204,-0.22173722088336945,0.3278326392173767
278,79857,79858,-0.03668571263551712,0.10062174499034882,1.125661015510559,-6.7577948570251465,9.541699409484863,19.99925994873047,-0.08399579674005508,-3.029848337173462,0.31798410415649414,-0.18005803227424622,-0.1952183097600937,0.5167251229286194
279,79867,79868,0.0077140722423791885,0.16248445212841034,1.092083215713501,-21.906660079956055,13.275689125061035,17.846220016479492,-0.085495725274086,-3.031348466873169,0.3134843111038208,-0.33075788617134094,-0.5213971138000488,0.7280481457710266
280,79877,79878,0.0031059461180120707,0.1465069204568863,1.030081033706665,-20.774057388305664,20.601228713989258,14.825872421264648,-0.08849557489156723,-3.025348663330078,0.3164841830730438,-0.6310301423072815,-0.8769700527191162,0.9155051708221436
281,79887,79888,0.07814158499240875,0.058011140674352646,1.0650171041488647,-15.079416275024414,17.598241806030273,14.726418495178223,-0.0944952741265297,-3.0133492946624756,0.3314834237098694,-0.9096653461456299,-1.1502214670181274,1.078013300895691
282,79897,79898,0.08679043501615524,0.03325159102678299,1.0301833152770996,-8.638667106628418,12.809226989746094,14.517474174499512,-0.08999549597501755,-3.0178489685058594,0.3209839463233948,-0.9050402641296387,-1.165693759918213,1.191421627998352
283,79907,79908,-0.031102504581212997,0.13069146871566772,0.9518497586250305,-4.647060871124268,5.714675426483154,14.5055513381958,-0.08999549597501755,-3.02384877204895,0.31798410415649414,-1.0995286703109741,-1.2420796155929565,1.3541195392608643
284,79917,79918,-0.12673334777355194,0.1665317863225937,0.9439727663993835,1.0378820896148682,-2.5093438625335693,12.65166187286377,-0.08699564635753632,-3.0118494033813477,0.3239837884902954,-1.0152500867843628,-1.2376688718795776,1.4714645147323608
285,79927,79928,-0.3681468665599823,0.04049241170287132,0.9625820517539978,5.80611515045166,-1.143545389175415,9.863256454467773,-0.09749512374401093,-3.0133492946624756,0.3404829800128937,-0.8611516356468201,-1.1464670896530151,1.554680585861206
286,79937,79938,-0.22317087650299072,-0.15444041788578033,1.0139100551605225,9.800161361694336,7.122163772583008,7.165045738220215,-0.1049947515130043,-3.0118494033813477,0.32998350262641907,-0.9273297190666199,-1.0653380155563354,1.6427375078201294
287,79947,79948,-0.04740604758262634,-0.20757083594799042,1.0569908618927002,13.44491958618164,14.118675231933594,4.099398612976074,-0.10049497336149216,-3.0193488597869873,0.3224838674068451,-1.050026535987854,-0.9887832999229431,1.6916658878326416
288,79957,79958,0.02023163065314293,-0.22347743809223175,1.0226835012435913,16.217403411865234,14.60195255279541,2.8134639263153076,-0.08399579674005508,-3.026848554611206,0.31798410415649414,-1.1681617498397827,-0.7850341796875,1.7188361883163452
289,79967,79968,-0.02241530455648899,-0.1574525088071823,0.9823468923568726,21.04643440246582,11.08797836303711,0.8107653856277466,-0.09599519520998001,-3.026848554611206,0.3149842321872711,-1.3383896350860596,-0.5206937789916992,1.7496414184570312
290,79977,79978,-0.07620564103126526,-0.04229651018977165,0.975066602230072,26.4397029876709,4.4102044105529785,-0.6836639046669006,-0.10349482297897339,-3.025348663330078,0.30748462677001953,-1.3489091396331787,-0.295087605714798,1.7338693141937256
291,79987,79988,-0.08926443755626678,-0.029471352696418762,0.9944459199905396,22.642438888549805,-2.973073720932007,-1.5615404844284058,-0.0944952741265297,-3.0223488807678223,0.32848358154296875,-1.3938016891479492,-0.13311639428138733,1.7221511602401733
292,79997,79998,-0.01761779747903347,0.002621516352519393,1.0030345916748047,11.840356826782227,-12.161992073059082,-1.9643975496292114,-0.10049497336149216,-3.034348249435425,0.31048446893692017,-1.32474684715271,0.10561263561248779,1.7185142040252686
293,80007,80008,-0.013791343197226524,0.12936151027679443,0.9773962497711182,0.660927414894104,-19.871845245361328,-3.973522663116455,-0.10649467259645462,-3.004349708557129,0.31048446893692017,-1.1052029132843018,0.020366188138723373,1.6668604612350464
294,80017,80018,-0.08383521437644958,0.21028663218021393,0.9520661234855652,-9.140223503112793,-27.039278030395508,-6.551358699798584,-0.113994300365448,-3.032848358154297,0.3119843900203705,-0.8239916563034058,-0.007307575084269047,1.6112236976623535
295,80027,80028,-0.09888240694999695,0.158869668841362,0.9823467135429382,-14.042978286743164,-28.55431365966797,-8.689454078674316,-0.08699564635753632,-3.029848337173462,0.31798410415649414,-0.6040942668914795,-0.24237120151519775,1.5217703580856323
296,80037,80038,-0.03820115700364113,0.1317262500524521,1.0122162103652954,-15.446969985961914,-20.46937370300293,-9.477522850036621,-0.08399579674005508,-3.032848358154297,0.3239837884902954,-0.2827993333339691,-0.46114036440849304,1.4076460599899292
297,80047,80048,-0.1176031231880188,-0.013677245005965233,0.9671117067337036,-11.714765548706055,-7.5693278312683105,-9.798921585083008,-0.08249587565660477,-3.025348663330078,0.3254837095737457,-0.10406076908111572,-0.49497470259666443,1.319664716720581
298,80057,80058,-0.19740118086338043,-0.08021858334541321,0.972102165222168,0.6492146253585815,4.833604335784912,-9.125504493713379,-0.10049497336149216,-3.031348466873169,0.30748462677001953,-0.12512147426605225,-0.529649555683136,1.219818115234375
299,80067,80068,-0.0805354043841362,-0.025164425373077393,0.9567097425460815,13.487297058105469,15.609780311584473,-7.089259147644043,-0.09749512374401093,-3.028348445892334,0.3224838674068451,-0.4153399169445038,-0.38189318776130676,1.1705050468444824
300,80077,80078,-0.08292721211910248,0.016012869775295258,0.9993197321891785,31.05426597595215,25.590194702148438,-7.610405921936035,-0.11099445074796677,-3.02384877204895,0.3059847056865692,-0.6523026823997498,-0.20583286881446838,1.0951807498931885
301,80087,80088,-0.039943844079971313,0.02248765155673027,1.012632966041565,41.02881622314453,30.598716735839844,-8.752909660339355,-0.10799460113048553,-3.029848337173462,0.30898454785346985,-0.972941517829895,0.2833780348300934,1.0313113927841187
302,80097,80098,-0.07601726800203323,0.012941421940922737,0.9641697406768799,37.5637321472168,24.47066879272461,-11.224997520446777,-0.09299534559249878,-3.0388479232788086,0.3149842321872711,-1.2300735712051392,0.5492225885391235,0.9149675965309143
303,80107,80108,-0.07289885729551315,0.027221137657761574,0.9492416977882385,29.560142517089844,8.504717826843262,-12.906465530395508,-0.09749512374401093,-3.034348249435425,0.33448326587677,-1.4473636150360107,0.9981505274772644,0.8154485821723938
304,80117,80118,0.03519882261753082,0.10535705834627151,0.9927616119384766,19.87688446044922,-11.3064546585083,-12.69723129272461,-0.09599519520998001,-3.029848337173462,0.31798410415649414,-1.4322443008422852,1.0996445417404175,0.6673500537872314
305,80127,80128,-0.04758768528699875,0.027328621596097946,0.9862234592437744,9.695808410644531,-28.037343978881836,-12.095072746276855,-0.1049947515130043,-3.026848554611206,0.3239837884902954,-1.108783483505249,1.1772792339324951,0.5209776759147644
306,80137,80138,-0.30690068006515503,-0.061257921159267426,0.983787477016449,1.986853003501892,-33.60493469238281,-10.096091270446777,-0.10049497336149216,-3.031348466873169,0.3134843111038208,-0.6127073764801025,1.3193655014038086,0.40744152665138245
307,80147,80148,-0.23601247370243073,-0.20161107182502747,0.9261782765388489,-3.727771282196045,-32.60240936279297,-8.73331069946289,-0.08849557489156723,-3.0403478145599365,0.3044847846031189,-0.3739837110042572,1.122804045677185,0.2820012867450714
308,80157,80158,-0.45902249217033386,-0.05467348173260689,0.8527210354804993,-5.613696098327637,-26.93171501159668,-7.066595554351807,-0.0944952741265297,-3.0463476181030273,0.3044847846031189,0.004521872382611036,1.199501395225525,0.21527446806430817
309,80167,80168,-0.31767693161964417,0.05911220982670784,0.9203790426254272,-5.812301158905029,-12.347739219665527,-3.959407329559326,-0.09599519520998001,-3.0448477268218994,0.3149842321872711,0.0049471682868897915,0.9779254198074341,0.1338244080543518
310,80177,80178,-0.1465068906545639,0.08102881163358688,0.9650462865829468,-3.3590047359466553,3.4462480545043945,-1.561475396156311,-0.08099594712257385,-3.0358481407165527,0.3119843900203705,0.08237802982330322,1.0969849824905396,0.1283697783946991
311,80187,80188,-0.08777327835559845,-0.01302401628345251,1.0371308326721191,-1.85445237159729,17.188127517700195,-0.6809965372085571,-0.09149542450904846,-3.025348663330078,0.3044847846031189,-0.09355811029672623,0.93691086769104,0.10212564468383789
312,80197,80198,-0.08134791254997253,0.10909437388181686,0.9644782543182373,-0.15099450945854187,24.534940719604492,0.27043449878692627,-0.08399579674005508,-3.0388479232788086,0.3059847056865692,-0.3592402935028076,0.9698196649551392,0.10601391643285751
313,80207,80208,-0.08932904154062271,0.03709983080625534,1.087035894393921,2.543184518814087,27.721200942993164,-0.11927150934934616,-0.09299534559249878,-3.0358481407165527,0.3119843900203705,-0.6163908839225769,0.9931429624557495,0.10964973270893097
314,80217,80218,-0.10706456750631332,0.023762350901961327,0.9984897971153259,6.500792503356934,25.645681381225586,-0.9332963824272156,-0.11099445074796677,-3.0388479232788086,0.29998499155044556,-0.8504651784896851,1.1198405027389526,0.11669214814901352
315,80227,80228,-0.2158052772283554,0.015801379457116127,1.0377713441848755,6.491833209991455,10.634658813476562,-2.489901304244995,-0.09749512374401093,-3.052347421646118,0.2924853563308716,-1.0995665788650513,1.2047163248062134,0.09330642968416214
316,80237,80238,-0.09129519015550613,0.06742008775472641,1.0342808961868286,7.156759262084961,-6.132964134216309,-2.237924575805664,-0.10049497336149216,-3.0433478355407715,0.3134843111038208,-1.0479142665863037,1.337464451789856,0.08810502290725708
317,80247,80248,-0.014533461071550846,0.1828029751777649,1.0330983400344849,8.225028038024902,-20.16305160522461,-3.5020503997802734,-0.09749512374401093,-3.055347204208374,0.29848507046699524,-0.8526012301445007,1.408455491065979,0.0662040039896965
318,80257,80258,-0.06420546025037766,0.0666985884308815,1.0499621629714966,3.0724353790283203,-21.181175231933594,-5.802243232727051,-0.10049497336149216,-3.0403478145599365,0.31048446893692017,-0.4929529130458832,1.2215909957885742,0.005379741080105305
319,80267,80268,-0.07457617670297623,-0.002424099249765277,0.9915673136711121,-0.9913747310638428,-14.142265319824219,-8.72912311553955,-0.085495725274086,-3.031348466873169,0.3014849126338959,-0.32880741357803345,1.1954290866851807,-0.07388067990541458
320,80277,80278,-0.3425159752368927,-0.06923549622297287,1.0190476179122925,-3.393671751022339,-5.956865310668945,-11.017146110534668,-0.10949452221393585,-3.0433478355407715,0.3224838674068451,-0.36523982882499695,1.1965302228927612,-0.1962333768606186
321,80287,80288,-0.2598399817943573,0.004022334236651659,0.9885891675949097,-5.607113361358643,-3.7736737728118896,-12.624905586242676,-0.0944952741265297,-3.031348466873169,0.3134843111038208,-0.2937995195388794,1.1568628549575806,-0.31082820892333984
322,80297,80298,-0.1050221398472786,0.15863998234272003,1.0306661128997803,-3.4730172157287598,2.60782527923584,-13.035758018493652,-0.09299534559249878,-3.0358481407165527,0.3119843900203705,-0.27244970202445984,1.1004788875579834,-0.44131970405578613
323,80307,80308,-0.08872921019792557,0.02098033018410206,0.9960029721260071,0.5507132411003113,7.689489364624023,-11.666356086730957,-0.10799460113048553,-3.029848337173462,0.3149842321872711,-0.3425388038158417,1.0595942735671997,-0.5649158358573914
324,80317,80318,-0.05730973556637764,-0.06888524442911148,0.9892966151237488,3.961962938308716,11.258063316345215,-10.019340515136719,-0.10799460113048553,-3.0208489894866943,0.31798410415649414,-0.4996243715286255,1.2225706577301025,-0.6664251685142517
325,80327,80328,0.019849108532071114,-0.06356845051050186,1.032684087753296,8.954937934875488,12.590065956115723,-6.745314121246338,-0.10799460113048553,-3.0418479442596436,0.30898454785346985,-0.7673999071121216,1.3269351720809937,-0.759358286857605
326,80337,80338,-0.05285145714879036,8.16247302282136e-06,1.0117225646972656,9.262369155883789,7.147413730621338,-5.7592597007751465,-0.10949452221393585,-3.0373480319976807,0.3254837095737457,-0.7412065863609314,1.414313554763794,-0.7949135303497314
327,80347,80348,-0.20953050255775452,-0.13917140662670135,1.058833360671997,2.875581741333008,1.710312008857727,-7.383123874664307,-0.10349482297897339,-3.0433478355407715,0.3224838674068451,-0.6989672183990479,1.4265964031219482,-0.8509781360626221
328,80357,80358,-0.31084808707237244,-0.1630123257637024,0.9204604625701904,-7.863019943237305,-2.6207520961761475,-8.594532012939453,-0.10049497336149216,-3.034348249435425,0.30748462677001953,-0.7288983464241028,1.4321728944778442,-0.9245578050613403
329,80367,80368,-0.041721682995557785,-0.11490203440189362,0.9491039514541626,-14.46414566040039,-6.121994495391846,-9.073497772216797,-0.09299534559249878,-3.026848554611206,0.3059847056865692,-0.6891859769821167,1.2732200622558594,-1.0265916585922241
330,80377,80378,-0.013049318455159664,0.005333795677870512,0.888502299785614,-16.65839958190918,-8.766242027282715,-9.36881160736084,-0.10049497336149216,-3.0403478145599365,0.31048446893692017,-0.5611302852630615,1.0767825841903687,-1.1142077445983887
331,80387,80388,-0.3273952305316925,-0.04637090861797333,0.9491052031517029,-12.88086223602295,-13.664132118225098,-9.88814640045166,-0.09149542450904846,-3.0403478145599365,0.30748462677001953,-0.4361535906791687,0.9880486130714417,-1.213112473487854
332,80397,80398,-0.1215597540140152,0.036995068192481995,0.9007667899131775,-7.319620609283447,-14.512815475463867,-8.236989974975586,-0.11099445074796677,-3.032848358154297,0.30898454785346985,-0.4140951633453369,0.932281494140625,-1.3229559659957886
333,80407,80408,-0.06633123010396957,0.20700708031654358,1.0342164039611816,5.815701484680176,-6.88027811050415,-6.761537551879883,-0.10049497336149216,-3.0433478355407715,0.31048446893692017,-0.19208218157291412,1.0457921028137207,-1.3786638975143433
334,80417,80418,-0.09579406678676605,0.12227015942335129,1.0975301265716553,18.565954208374023,-1.150633454322815,-3.007542610168457,-0.08249587565660477,-3.0463476181030273,0.3164841830730438,-0.10524123907089233,1.1466295719146729,-1.4230809211730957
335,80427,80428,-0.11663373559713364,0.061829742044210434,0.968077540397644,24.165430068969727,3.3172922134399414,2.3242571353912354,-0.10049497336149216,-3.0463476181030273,0.2954852283000946,-0.18659117817878723,1.5334261655807495,-1.425258755683899
336,80437,80438,-0.03032625839114189,0.09018394351005554,1.005387783050537,21.980918884277344,9.62499713897705,7.405956745147705,-0.09899504482746124,-3.032848358154297,0.2969851493835449,-0.28429219126701355,1.7286957502365112,-1.3778059482574463
337,80447,80448,-0.12784872949123383,0.03147653490304947,1.0244178771972656,7.264521598815918,15.175302505493164,10.063983917236328,-0.09149542450904846,-3.0433478355407715,0.30748462677001953,-0.41610172390937805,1.820083737373352,-1.290250539779663
338,80457,80458,-0.09603717178106308,-0.007083152420818806,1.0064181089401245,-9.912845611572266,9.922000885009766,11.011741638183594,-0.09299534559249878,-3.0448477268218994,0.3149842321872711,-0.6070771813392639,1.6498441696166992,-1.2007582187652588
339,80467,80468,-0.11359654366970062,-0.01944699138402939,0.9532402157783508,-24.4398136138916,-7.370726108551025,9.32827377319336,-0.09149542450904846,-3.049347400665283,0.3014849126338959,-0.6163580417633057,1.5779213905334473,-1.102171540260315
340,80477,80478,-0.1938897967338562,0.09917943179607391,0.9823623299598694,-39.89078140258789,-22.160478591918945,6.774650573730469,-0.0944952741265297,-3.0643467903137207,0.29848507046699524,-0.25861358642578125,1.2712920904159546,-0.9763970375061035
341,80487,80488,-0.2748713195323944,0.1397843211889267,1.0592190027236938,-50.309059143066406,-27.492246627807617,3.340416669845581,-0.07499624788761139,-3.053847312927246,0.29998499155044556,-0.009950297884643078,0.5868435502052307,-0.9488825798034668
342,80497,80498,-0.14411935210227966,0.1647922545671463,1.0749505758285522,-48.02263641357422,-26.497709274291992,1.804719090461731,-0.08099594712257385,-3.0358481407165527,0.2939853072166443,0.35083529353141785,0.02016506716609001,-0.9055936932563782
343,80507,80508,-0.1785927265882492,0.10111969709396362,1.0538413524627686,-33.32402038574219,-23.029733657836914,-0.26668620109558105,-0.08399579674005508,-3.0358481407165527,0.29998499155044556,0.44282668828964233,-0.15473054349422455,-0.937535285949707
344,80517,80518,-0.05784323811531067,0.04976153001189232,0.9918756484985352,-14.265307426452637,-21.81134796142578,1.2866451740264893,-0.08399579674005508,-3.0388479232788086,0.3029848337173462,0.6730683445930481,-0.27591177821159363,-0.9324294328689575
345,80527,80528,-0.03790745139122009,0.09318897128105164,0.926785409450531,6.232243537902832,-11.880675315856934,4.037184238433838,-0.08999549597501755,-3.02384877204895,0.30898454785346985,0.9081364870071411,-0.28256508708000183,-0.8979800939559937
346,80537,80538,-0.07742537558078766,0.0178146343678236,0.9994401335716248,20.99633026123047,2.5619454383850098,5.101713180541992,-0.09149542450904846,-3.034348249435425,0.3134843111038208,0.8992742896080017,-0.05794418603181839,-0.8688062429428101
347,80547,80548,-0.06497080624103546,-0.01991399936378002,0.9940007328987122,27.997404098510742,19.06719398498535,6.651906490325928,-0.07949602603912354,-3.0433478355407715,0.3044847846031189,0.7252823114395142,0.3209824860095978,-0.81475430727005
348,80557,80558,0.019734647125005722,0.0033893706277012825,0.9873907566070557,24.99049186706543,33.714168548583984,6.261870384216309,-0.085495725274086,-3.0373480319976807,0.31048446893692017,0.25966593623161316,0.4429369568824768,-0.7520267963409424
349,80567,80568,-0.2266317456960678,0.01925317943096161,0.9853531122207642,14.639603614807129,38.22844314575195,5.801803112030029,-0.07799609750509262,-3.026848554611206,0.3059847056865692,-0.10134660452604294,0.7390960454940796,-0.7020881772041321
350,80577,80578,-0.4878862202167511,-0.0632503554224968,0.9193565249443054,-0.15187832713127136,27.626955032348633,7.52088737487793,-0.08399579674005508,-3.0418479442596436,0.31798410415649414,-0.4019402265548706,0.7280712127685547,-0.6217620372772217
351,80587,80588,-0.2317500114440918,-0.1277441382408142,0.9299202561378479,-16.71613311767578,15.143021583557129,9.900411605834961,-0.09299534559249878,-3.029848337173462,0.30898454785346985,-0.4713107645511627,0.431222140789032,-0.5075567364692688
352,80597,80598,-0.15252768993377686,-0.12290851771831512,0.9372231960296631,-29.209659576416016,7.274265289306641,12.80282974243164,-0.09599519520998001,-3.0418479442596436,0.3119843900203705,-0.6320651769638062,0.24490010738372803,-0.4000627398490906
353,80607,80608,-0.1573529839515686,0.005835516378283501,0.9815449714660645,-31.269319534301758,-2.207054376602173,16.349456787109375,-0.08399579674005508,-3.0448477268218994,0.3059847056865692,-0.5302320122718811,-0.07748555392026901,-0.24209438264369965
354,80617,80618,-0.41381436586380005,-0.23925147950649261,1.005264401435852,-24.233055114746094,-12.304258346557617,19.86178970336914,-0.08099594712257385,-3.0448477268218994,0.29998499155044556,-0.39266228675842285,-0.36161941289901733,-0.05743277072906494
355,80627,80628,-0.15062931180000305,-0.08739743381738663,0.9365259408950806,-22.87115478515625,-16.44326400756836,21.07561683654785,-0.08399579674005508,-3.0448477268218994,0.3029848337173462,-0.24626053869724274,-0.5947564244270325,0.1577339768409729
356,80637,80638,-0.043106645345687866,-0.012737153097987175,1.0042270421981812,-24.49211311340332,-19.448163986206055,21.673606872558594,-0.0764961764216423,-3.025348663330078,0.3014849126338959,-0.04335424304008484,-0.580010712146759,0.3591405749320984
357,80647,80648,0.05495501309633255,0.05746017396450043,0.9704541563987732,-22.200645446777344,-17.515289306640625,22.52593231201172,-0.07049647718667984,-3.0403478145599365,0.3164841830730438,0.14018701016902924,-0.8641335964202881,0.587769627571106
358,80657,80658,-0.05074932053685188,0.1778067648410797,0.9222071170806885,-16.21788215637207,-9.35057544708252,20.990497589111328,-0.07349632680416107,-3.031348466873169,0.3044847846031189,0.2049371600151062,-1.0775165557861328,0.8049622178077698
359,80667,80668,-0.17416544258594513,0.015127481892704964,0.9784262180328369,-4.916172504425049,-0.47798410058021545,18.436771392822266,-0.07799609750509262,-3.0448477268218994,0.3209839463233948,0.3184356093406677,-1.2348716259002686,0.9953402280807495
360,80677,80678,-0.0833505392074585,-0.08471570909023285,0.9553043246269226,3.2696993350982666,7.0266947746276855,14.63376235961914,-0.0764961764216423,-3.034348249435425,0.3134843111038208,0.21513395011425018,-1.2139047384262085,1.1639118194580078
361,80687,80688,-0.07050158083438873,0.0025481916964054108,0.9724118113517761,-0.32770007848739624,12.74927806854248,9.667728424072266,-0.07199639827013016,-3.026848554611206,0.3119843900203705,0.0462348647415638,-1.213027000427246,1.2875852584838867
362,80697,80698,-0.012928901240229607,-0.15630879998207092,1.0608614683151245,-9.0321626663208,12.211536407470703,4.294217586517334,-0.0659966990351677,-3.0178489685058594,0.30898454785346985,-0.09632047265768051,-1.2240445613861084,1.3434271812438965
363,80707,80708,0.03268035501241684,-0.2080046832561493,1.0316486358642578,-21.04994010925293,6.075912952423096,0.16517294943332672,-0.06899654865264893,-3.026848554611206,0.30898454785346985,-0.20143155753612518,-1.4256832599639893,1.3689860105514526
364,80717,80718,-0.0011799732455983758,-0.056815121322870255,1.0259252786636353,-21.489120483398438,2.1824417114257812,-4.511007785797119,-0.07199639827013016,-3.026848554611206,0.3209839463233948,-0.25462526082992554,-1.734572172164917,1.3583259582519531
365,80727,80728,-0.06285790354013443,0.0030744727700948715,1.0227936506271362,-8.373311996459961,1.0238564014434814,-7.155442237854004,-0.08849557489156723,-3.025348663330078,0.3044847846031189,-0.2752194404602051,-1.674928903579712,1.281043529510498
366,80737,80738,-0.08329110592603683,0.029287608340382576,1.033270001411438,11.464533805847168,-2.4379732608795166,-6.812844753265381,-0.08699564635753632,-3.0178489685058594,0.3149842321872711,-0.2552584409713745,-1.6909557580947876,1.209798812866211
367,80747,80748,-0.07405076175928116,0.005282895173877478,1.0349342823028564,25.603307723999023,-4.721451759338379,-5.974033832550049,-0.07799609750509262,-3.0178489685058594,0.3119843900203705,-0.18738079071044922,-1.3490512371063232,1.1331924200057983
368,80757,80758,-0.05973238870501518,-0.0016071699792519212,1.0336042642593384,29.339696884155273,-3.295567274093628,-6.101662635803223,-0.085495725274086,-3.025348663330078,0.3134843111038208,-0.1119024008512497,-1.0619045495986938,1.065954566001892
369,80767,80768,-0.07886475324630737,-0.10115153342485428,0.990067183971405,23.2115421295166,-2.124821186065674,-6.7633867263793945,-0.07799609750509262,-3.02384877204895,0.30898454785346985,-0.05539943650364876,-0.7948573231697083,0.9933815002441406
370,80777,80778,-0.0494270920753479,-0.14851978421211243,1.0502809286117554,9.224255561828613,1.6769824028015137,-8.722638130187988,-0.08099594712257385,-3.0358481407165527,0.30898454785346985,-0.11532704532146454,-0.6066457629203796,0.9285634160041809
371,80787,80788,-0.029885942116379738,-0.10282593965530396,1.0277785062789917,-9.867045402526855,8.391554832458496,-10.113476753234863,-0.08699564635753632,-3.0178489685058594,0.3149842321872711,-0.19911274313926697,-0.7056213021278381,0.8398221135139465
372,80797,80798,-0.09321200847625732,0.018149368464946747,1.0241726636886597,-22.634998321533203,9.799427032470703,-11.802947044372559,-0.08849557489156723,-3.025348663330078,0.3134843111038208,-0.3425809144973755,-1.0012232065200806,0.7407820820808411
373,80807,80808,-0.02761184610426426,-0.1478433459997177,1.076014518737793,-24.21269989013672,6.463078498840332,-13.140488624572754,-0.07799609750509262,-3.008849620819092,0.3209839463233948,-0.444394588470459,-1.3458596467971802,0.6138302683830261
374,80817,80818,0.022454017773270607,0.09885004162788391,1.0256227254867554,-11.3158540725708,0.6760679483413696,-15.002498626708984,-0.08849557489156723,-3.0163490772247314,0.3164841830730438,-0.5383894443511963,-1.4977377653121948,0.47820162773132324
375,80827,80828,-0.0650285854935646,0.0179421566426754,1.0193787813186646,8.469320297241211,-4.1009039878845215,-13.838191032409668,-0.07499624788761139,-3.0118494033813477,0.3059847056865692,-0.4245593845844269,-1.4747257232666016,0.3076517581939697
376,80837,80838,-0.07309062778949738,0.022458191961050034,1.016979455947876,28.616962432861328,-12.423686027526855,-11.02015209197998,-0.09899504482746124,-3.0208489894866943,0.3329833447933197,-0.34283483028411865,-1.195503830909729,0.18924905359745026
377,80847,80848,-0.15253454446792603,0.0012346073053777218,1.0896114110946655,41.650203704833984,-16.183753967285156,-9.217103004455566,-0.09599519520998001,-3.0178489685058594,0.30898454785346985,-0.051293764263391495,-0.8420994281768799,0.058847565203905106
378,80857,80858,-0.13078217208385468,-0.12534409761428833,1.021364450454712,45.92592239379883,-10.198046684265137,-6.557510852813721,-0.09899504482746124,-3.0208489894866943,0.3119843900203705,-0.05492200702428818,-0.34082481265068054,0.01927090622484684
379,80867,80868,-0.07445905357599258,0.006074172910302877,1.0108357667922974,40.06153106689453,0.858988881111145,-5.353233814239502,-0.08849557489156723,-3.031348466873169,0.3044847846031189,0.04442967101931572,0.09396126121282578,-0.059819646179676056
380,80877,80878,-0.07146935909986496,-0.00929189007729292,0.9822898507118225,23.131114959716797,8.568717002868652,-2.587035655975342,-0.09149542450904846,-3.034348249435425,0.3254837095737457,-0.03253785893321037,0.2053537368774414,-0.08858253061771393
381,80887,80888,-0.06493203341960907,-0.0028592580929398537,0.9828912615776062,0.26972752809524536,11.225090980529785,1.0479785203933716,-0.10649467259645462,-3.0433478355407715,0.31048446893692017,-0.2073737382888794,0.4229781925678253,-0.08172314614057541
382,80897,80898,-0.15389077365398407,0.05597919970750809,0.9060230255126953,-18.939289093017578,5.875691890716553,2.7967612743377686,-0.08999549597501755,-3.0448477268218994,0.3059847056865692,-0.2826870381832123,0.07506300508975983,-0.042960114777088165
383,80907,80908,-0.03976127877831459,0.02591850608587265,0.9808474779129028,-33.77488708496094,-4.557877063751221,2.560401678085327,-0.08249587565660477,-3.034348249435425,0.30748462677001953,-0.2143935263156891,-0.21840611100196838,-0.027970565482974052
384,80917,80918,-0.03941978141665459,0.009612723253667355,0.950501024723053,-32.5692138671875,-15.07718563079834,2.6193554401397705,-0.08399579674005508,-3.02384877204895,0.29998499155044556,-0.06698194146156311,-0.6645079851150513,-0.0028414763510227203
385,80927,80928,-0.071650430560112,0.0438179112970829,1.0446860790252686,-19.417455673217773,-23.666189193725586,2.823200225830078,-0.07799609750509262,-3.026848554611206,0.3059847056865692,0.21551869809627533,-0.8068708777427673,0.007909445092082024
386,80937,80938,-0.10200396180152893,-0.005255368538200855,1.019745945930481,-1.8177143335342407,-22.838638305664062,3.1758811473846436,-0.08399579674005508,-3.029848337173462,0.3149842321872711,0.4799012839794159,-0.8299192786216736,0.03733973205089569
387,80947,80948,-0.11717172712087631,0.038292296230793,0.9977485537528992,10.583819389343262,-15.502131462097168,5.550970077514648,-0.08399579674005508,-3.032848358154297,0.29998499155044556,0.6610954999923706,-0.7107906341552734,0.0869768038392067
388,80957,80958,-0.08008860051631927,0.0318685919046402,0.9842033982276917,18.991018295288086,0.5599454641342163,6.6109700202941895,-0.08249587565660477,-3.0223488807678223,0.31048446893692017,0.7952170968055725,-0.525249183177948,0.13832612335681915
389,80967,80968,-0.09471017122268677,-0.0008162488811649382,0.9902386665344238,22.908742904663086,18.59172248840332,6.444851875305176,-0.09299534559249878,-3.032848358154297,0.30898454785346985,0.5042469501495361,-0.24440446496009827,0.23117993772029877
390,80977,80978,-0.22549347579479218,0.05538000538945198,1.0971434116363525,9.879732131958008,28.603412628173828,5.245116233825684,-0.0944952741265297,-3.0373480319976807,0.31048446893692017,0.24038761854171753,-0.25979891419410706,0.30755314230918884
391,80987,80988,-0.23585458099842072,-0.011936835944652557,0.9706562161445618,-9.559809684753418,31.00971221923828,4.443779468536377,-0.08399579674005508,-3.0418479442596436,0.31798410415649414,-0.17456451058387756,-0.2353937029838562,0.37033557891845703
392,80997,80998,-0.0972445011138916,-0.028387021273374557,0.9261154532432556,-24.139535903930664,27.147369384765625,2.514359951019287,-0.08249587565660477,-3.031348466873169,0.3164841830730438,-0.2863788604736328,-0.5208764672279358,0.3825608193874359
393,81007,81008,-0.1189192458987236,-0.10934208333492279,0.934528648853302,-24.61213493347168,20.5972957611084,0.9900622963905334,-0.0944952741265297,-3.0223488807678223,0.3164841830730438,-0.6132138967514038,-0.8935747742652893,0.4209308922290802
394,81017,81018,-0.05040092021226883,0.13474532961845398,0.9971803426742554,-17.863964080810547,11.247203826904297,-0.5883817076683044,-0.07799609750509262,-3.008849620819092,0.3209839463233948,-0.8108704686164856,-1.167711853981018,0.4326571822166443
395,81027,81028,-0.12685947120189667,0.09404218941926956,1.032600998878479,-0.38330191373825073,-3.414910078048706,-1.9501910209655762,-0.09599519520998001,-3.008849620819092,0.30898454785346985,-0.7627953290939331,-1.1762290000915527,0.403563529253006
396,81037,81038,-0.1064310371875763,-0.057922039180994034,1.071969985961914,25.888713836669922,-14.023344039916992,-3.7523488998413086,-0.09749512374401093,-3.0223488807678223,0.3254837095737457,-0.6022858619689941,-0.8854045271873474,0.3598429262638092
397,81047,81048,-0.045295294374227524,-0.15211930871009827,0.9945123195648193,44.99497604370117,-17.50823402404785,-5.005763053894043,-0.08849557489156723,-3.0373480319976807,0.3134843111038208,-0.3948906362056732,-0.5491915941238403,0.3069888949394226
398,81057,81058,-0.02104707434773445,0.04086163267493248,0.9491353034973145,54.455562591552734,-16.34469985961914,-5.2284674644470215,-0.08849557489156723,-3.0433478355407715,0.31048446893692017,-0.16427740454673767,0.18031631410121918,0.2369489073753357
399,81067,81068,-0.2585906982421875,0.025734715163707733,0.9738051295280457,53.90483856201172,-14.12895679473877,-5.102773666381836,-0.08249587565660477,-3.0463476181030273,0.31048446893692017,0.008376456797122955,0.5978978872299194,0.1806584596633911
400,81077,81078,-0.11388631910085678,-0.0393955260515213,0.9703062772750854,42.38917541503906,-11.829224586486816,-4.806398868560791,-0.0944952741265297,-3.034348249435425,0.31948402523994446,0.14981088042259216,0.9141111373901367,0.12918315827846527
401,81087,81088,-0.06144940108060837,-0.007622603327035904,0.9868245720863342,26.817861557006836,-8.887556076049805,-2.7898716926574707,-0.09299534559249878,-3.0358481407165527,0.30898454785346985,0.1635531634092331,1.382653832435608,0.10119405388832092
402,81097,81098,-0.014390786178410053,-0.0684957206249237,0.9776410460472107,9.617456436157227,-0.678317129611969,1.0404555797576904,-0.085495725274086,-3.0373480319976807,0.30748462677001953,0.1040789783000946,1.50521719455719,0.11425506323575974
403,81107,81108,-0.0999230220913887,-0.1377643495798111,0.9949102401733398,-7.83009672164917,8.12763786315918,2.501150369644165,-0.09149542450904846,-3.031348466873169,0.31048446893692017,0.11409605294466019,1.4906755685806274,0.1313554048538208
404,81117,81118,-0.064625583589077,-0.028740569949150085,0.9820755124092102,-24.26326560974121,14.008916854858398,4.902508735656738,-0.09149542450904846,-3.031348466873169,0.31048446893692017,0.0028599684592336416,1.23934006690979,0.17569759488105774
405,81127,81128,-0.08221893757581711,0.05857611075043678,1.0241280794143677,-35.999027252197266,18.788673400878906,5.454265594482422,-0.09149542450904846,-3.031348466873169,0.31048446893692017,-0.23260432481765747,0.7581182718276978,0.2310425341129303
406,81137,81138,-0.20579566061496735,0.10181574523448944,0.9452902674674988,-40.450477600097656,14.452413558959961,5.064843654632568,-0.09149542450904846,-3.031348466873169,0.31048446893692017,-0.39780306816101074,0.28855088353157043,0.29059550166130066
407,81147,81148,-0.22928792238235474,0.009421058930456638,1.0234684944152832,-36.02111053466797,2.6303701400756836,4.888158798217773,-0.08249587565660477,-3.0373480319976807,0.31048446893692017,-0.40568840503692627,-0.012989148497581482,0.34159258008003235
408,81157,81158,-0.11598789691925049,-0.19374312460422516,0.991076648235321,-22.281681060791016,-4.123354434967041,4.145445823669434,-0.08249587565660477,-3.028348445892334,0.3044847846031189,-0.24336262047290802,-0.32312068343162537,0.396274596452713
409,81167,81168,-0.007824206724762917,-0.054497819393873215,1.0299657583236694,-3.896045684814453,-7.702619552612305,1.8325849771499634,-0.09749512374401093,-3.0433478355407715,0.3134843111038208,-0.32094427943229675,-0.4024653434753418,0.4253256618976593
410,81177,81178,-0.05307206138968468,0.044211722910404205,1.0142464637756348,17.399860382080078,-10.507319450378418,0.8879001140594482,-0.06899654865264893,-3.026848554611206,0.3209839463233948,-0.1393001228570938,-0.2845630645751953,0.4427318871021271
411,81187,81188,-0.028259307146072388,0.049122363328933716,1.0230318307876587,29.06833267211914,-11.54910945892334,-0.11343022435903549,-0.10049497336149216,-3.0373480319976807,0.3134843111038208,0.04266379401087761,0.15225400030612946,0.44995614886283875
412,81197,81198,0.032264046370983124,-0.06950555741786957,0.9842397570610046,32.49597930908203,-5.538448810577393,-1.2722983360290527,-0.09599519520998001,-3.032848358154297,0.30898454785346985,0.1058429479598999,0.41597115993499756,0.4471493065357208
413,81207,81208,-0.07090950757265091,0.07504130899906158,0.9189696907997131,27.51868438720703,0.9685952067375183,-2.7036547660827637,-0.0944952741265297,-3.0403478145599365,0.31948402523994446,0.13163329660892487,0.7916654944419861,0.42229729890823364
414,81217,81218,-0.014982396736741066,0.10584631562232971,0.9384343028068542,17.23496437072754,6.997684001922607,-2.134420156478882,-0.08999549597501755,-3.0358481407165527,0.3029848337173462,0.04998794570565224,1.1145820617675781,0.39806339144706726
415,81227,81228,-0.06128323823213577,0.009406501427292824,0.9398633241653442,3.9543004035949707,11.030598640441895,-2.7650551795959473,-0.09599519520998001,-3.0418479442596436,0.31798410415649414,-0.0916338562965393,1.0340417623519897,0.3834776282310486
416,81237,81238,-0.2455165833234787,-0.200407475233078,1.0209851264953613,-10.284204483032227,9.765314102172852,-5.017702579498291,-0.10049497336149216,-3.034348249435425,0.30748462677001953,-0.283674031496048,0.674688458442688,0.3457368016242981
417,81247,81248,-0.04321881756186485,-0.07247841358184814,0.9663001894950867,-17.976333618164062,7.748940944671631,-7.081415176391602,-0.09599519520998001,-3.029848337173462,0.30898454785346985,-0.4694761335849762,0.493476539850235,0.29048556089401245
418,81257,81258,-0.09676641970872879,0.04783915728330612,0.9786928296089172,-12.991998672485352,5.479386806488037,-9.787345886230469,-0.08399579674005508,-3.032848358154297,0.30898454785346985,-0.4953300356864929,0.25482720136642456,0.20604208111763
419,81267,81268,-0.014023159630596638,0.030740419402718544,1.0775083303451538,0.5401442646980286,1.6556962728500366,-10.226582527160645,-0.09149542450904846,-3.0373480319976807,0.3164841830730438,-0.5586757063865662,0.292135626077652,0.10312554985284805
420,81277,81278,-0.12654639780521393,-0.034385666251182556,0.9951968789100647,15.114862442016602,-5.927976131439209,-7.953187465667725,-0.0944952741265297,-3.031348466873169,0.30748462677001953,-0.5219005346298218,0.45098674297332764,0.021214570850133896
421,81287,81288,-0.07330871373414993,-0.11552853137254715,1.0322537422180176,25.8018798828125,-8.0634183883667,-5.373327732086182,-0.11249437183141708,-3.0373480319976807,0.31948402523994446,-0.4197443127632141,0.8266854882240295,-0.0459931455552578
422,81297,81298,0.07544821500778198,0.0073630791157484055,0.9712404608726501,23.278608322143555,-5.9029459953308105,-2.3879165649414062,-0.09749512374401093,-3.034348249435425,0.30748462677001953,-0.3440549075603485,1.1978394985198975,-0.07667689025402069
423,81307,81308,-0.03467674180865288,0.07000100612640381,0.9995134472846985,12.305728912353516,-2.3810174465179443,-2.3216001987457275,-0.09599519520998001,-3.050847291946411,0.30898454785346985,-0.3051713705062866,1.1637881994247437,-0.10696837306022644
424,81317,81318,-0.1503191441297531,-0.0069946423172950745,0.9655838012695312,-2.693726062774658,3.3942456245422363,-4.70117712020874,-0.09599519520998001,-3.0418479442596436,0.30898454785346985,-0.4345184564590454,1.2165374755859375,-0.1523837447166443
425,81327,81328,-0.16446682810783386,-0.1016736850142479,0.924690842628479,-12.09177017211914,3.638190984725952,-6.020197868347168,-0.10199490189552307,-3.0358481407165527,0.3029848337173462,-0.49755358695983887,1.1535757780075073,-0.20083540678024292
426,81337,81338,-0.024090005084872246,-0.11947039514780045,1.0262452363967896,-11.545830726623535,3.1577794551849365,-6.0253071784973145,-0.09149542450904846,-3.0403478145599365,0.31048446893692017,-0.4809536635875702,0.9748318791389465,-0.25942718982696533
427,81347,81348,-0.01267953310161829,0.036952339112758636,0.9479618668556213,-3.9147825241088867,6.8013997077941895,-4.974589824676514,-0.10199490189552307,-3.032848358154297,0.3119843900203705,-0.46505334973335266,0.9242722392082214,-0.30204251408576965
428,81357,81358,-0.03427255153656006,0.011937425471842289,0.991239070892334,8.78816032409668,4.466830730438232,-2.683647632598877,-0.09149542450904846,-3.034348249435425,0.31048446893692017,-0.5627416372299194,1.1136221885681152,-0.33840101957321167
429,81367,81368,-0.06172245740890503,0.00952207762748003,0.9940172433853149,14.376440048217773,-2.954139232635498,0.5553668141365051,-0.0944952741265297,-3.0433478355407715,0.3134843111038208,-0.5054093599319458,1.1956053972244263,-0.3403385281562805
430,81377,81378,-0.04773315042257309,0.013611260801553726,0.9777087569236755,11.527103424072266,-14.453490257263184,3.4111578464508057,-0.09599519520998001,-3.032848358154297,0.29998499155044556,-0.3702535629272461,1.4195606708526611,-0.31179264187812805
431,81387,81388,-0.03482178971171379,0.09568847715854645,0.9669322371482849,3.1145410537719727,-22.570180892944336,5.866300582885742,-0.09299534559249878,-3.0478475093841553,0.30898454785346985,-0.1613139510154724,1.4782788753509521,-0.2704329788684845
432,81397,81398,-0.06571206450462341,-0.1659301072359085,0.9504765272140503,-11.042067527770996,-25.079849243164062,8.330471992492676,-0.09599519520998001,-3.0388479232788086,0.3059847056865692,0.11303500831127167,1.4352667331695557,-0.19917075335979462
433,81407,81408,-0.07208745926618576,-0.05376981943845749,0.9648965001106262,-27.627914428710938,-21.95155906677246,7.931658744812012,-0.08399579674005508,-3.053847312927246,0.3029848337173462,0.29490840435028076,1.1327157020568848,-0.1358441561460495
434,81417,81418,-0.08490478247404099,-0.01633201353251934,0.9703567624092102,-39.93560791015625,-18.334383010864258,8.866671562194824,-0.085495725274086,-3.0373480319976807,0.31048446893692017,0.5440282225608826,0.6618742346763611,-0.04423648118972778
435,81427,81428,-0.04524493217468262,0.02805435098707676,0.9993903040885925,-46.39251708984375,-11.893914222717285,8.49027156829834,-0.085495725274086,-3.0373480319976807,0.31048446893692017,0.7265415191650391,0.3263698220252991,0.05024777352809906
436,81437,81438,-0.07268394529819489,0.05979792773723602,1.0053255558013916,-41.1720085144043,1.6981556415557861,8.012762069702148,-0.09149542450904846,-3.0403478145599365,0.29848507046699524,0.6918261647224426,-0.05581674352288246,0.11644615232944489
437,81447,81448,-0.07159393280744553,0.007875969633460045,1.0120539665222168,-23.195344924926758,12.235433578491211,7.127353668212891,-0.08849557489156723,-3.028348445892334,0.3134843111038208,0.5859804749488831,-0.4808468818664551,0.18810413777828217
438,81457,81458,-0.02691786363720894,0.013685966841876507,0.969200849533081,-2.847630739212036,16.17638397216797,6.340823650360107,-0.09149542450904846,-3.0223488807678223,0.3224838674068451,0.4218039810657501,-0.45994746685028076,0.24664247035980225
439,81467,81468,-0.06549007445573807,0.04912867397069931,0.9829049706459045,19.057649612426758,13.376291275024414,6.414685249328613,-0.08999549597501755,-3.0388479232788086,0.30898454785346985,0.17308321595191956,-0.33214089274406433,0.2976349890232086
440,81477,81478,-0.06275071948766708,-0.05431973934173584,1.0194824934005737,34.30876541137695,12.948929786682129,5.829773426055908,-0.09299534559249878,-3.032848358154297,0.3239837884902954,0.0384182445704937,0.019366377964615822,0.34998616576194763
441,81487,81488,-0.061067234724760056,-0.03673698753118515,1.0192101001739502,41.233428955078125,17.780508041381836,6.8364787101745605,-0.10199490189552307,-3.0478475093841553,0.3119843900203705,-0.18995141983032227,0.34553417563438416,0.41005903482437134
442,81497,81498,-0.09095370769500732,-0.022950444370508194,0.9568638205528259,38.17079162597656,18.95206642150879,7.081912517547607,-0.10349482297897339,-3.0463476181030273,0.31048446893692017,-0.37763556838035583,0.7860324382781982,0.4822763204574585
443,81507,81508,-0.08216365426778793,0.028194433078169823,1.013503074645996,30.235471725463867,12.225724220275879,5.973183631896973,-0.10799460113048553,-3.0388479232788086,0.3059847056865692,-0.4119156002998352,1.1999633312225342,0.558232307434082
444,81517,81518,-0.0793323889374733,-0.1095995306968689,0.9723802804946899,19.681970596313477,3.922337532043457,6.203271389007568,-0.10799460113048553,-3.0388479232788086,0.3059847056865692,-0.38661497831344604,1.4622153043746948,0.6361374258995056
445,81527,81528,-0.15871994197368622,-0.19308693706989288,0.9394384622573853,1.4304797649383545,-9.967636108398438,6.976828575134277,-0.0944952741265297,-3.034348249435425,0.3044847846031189,-0.31634220480918884,1.453643798828125,0.7082041501998901
446,81537,81538,-0.0884256586432457,-0.24111181497573853,1.0153160095214844,-22.673870086669922,-14.558518409729004,6.533988952636719,-0.08699564635753632,-3.0478475093841553,0.3149842321872711,-0.16576002538204193,1.2207465171813965,0.7783183455467224
447,81547,81548,-0.12111970782279968,-0.06637174636125565,0.9701157212257385,-35.75065231323242,-14.771414756774902,4.888909339904785,-0.08999549597501755,-3.0478475093841553,0.3149842321872711,0.08165241777896881,0.8872681260108948,0.8476158380508423
448,81557,81558,-0.1948956698179245,-0.018611324951052666,1.037424921989441,-35.43080139160156,-15.836396217346191,2.604748010635376,-0.08849557489156723,-3.0463476181030273,0.2924853563308716,0.16699999570846558,0.42726463079452515,0.8675132989883423
449,81567,81568,0.022213879972696304,0.06245218962430954,1.0353904962539673,-26.23255729675293,-16.23382568359375,1.83707857131958,-0.08399579674005508,-3.050847291946411,0.3119843900203705,0.33295002579689026,0.047139063477516174,0.8948553800582886
450,81577,81578,-0.044283196330070496,0.16344799101352692,1.0029778480529785,-11.72412395477295,-14.364767074584961,0.6125314831733704,-0.07349632680416107,-3.0463476181030273,0.30748462677001953,0.5401219129562378,0.07441258430480957,0.8984568119049072
451,81587,81588,-0.1061457172036171,-0.03163342550396919,1.0151643753051758,4.101135730743408,-5.7237162590026855,1.7314884662628174,-0.07199639827013016,-3.0358481407165527,0.3029848337173462,0.7479940056800842,0.03818975016474724,0.9186228513717651
452,81597,81598,-0.148393452167511,-0.14247798919677734,0.9517614245414734,19.944244384765625,9.517873764038086,5.344516754150391,-0.08699564635753632,-3.026848554611206,0.3029848337173462,0.7142547965049744,0.30765095353126526,0.9584195613861084
453,81607,81608,-0.1898106038570404,-0.0767350122332573,0.9690957069396973,34.48929977416992,28.84937858581543,8.610574722290039,-0.09749512374401093,-3.034348249435425,0.3164841830730438,0.39645546674728394,0.6578537821769714,1.0193641185760498
454,81617,81618,-0.11164335906505585,-0.016536518931388855,0.9791427254676819,33.99544906616211,41.42315673828125,11.210868835449219,-0.08399579674005508,-3.0358481407165527,0.3119843900203705,-0.20102965831756592,1.062050223350525,1.1082420349121094
455,81627,81628,-0.09630601853132248,0.1257868856191635,1.0097482204437256,24.132307052612305,45.50932693481445,12.626099586486816,-0.08099594712257385,-3.0448477268218994,0.32998350262641907,-0.5347889065742493,1.1775275468826294,1.259140133857727
456,81637,81638,-0.07115811109542847,0.19934991002082825,1.0182207822799683,10.521758079528809,37.721065521240234,14.099220275878906,-0.08999549597501755,-3.0418479442596436,0.30898454785346985,-1.2304402589797974,1.4407037496566772,1.3765512704849243
457,81647,81648,-0.0843864157795906,0.2020610123872757,0.98385089635849,-4.071708679199219,18.61084747314453,15.170756340026855,-0.08999549597501755,-3.0418479442596436,0.3029848337173462,-1.2647541761398315,1.368967890739441,1.5644574165344238
458,81657,81658,-0.045398417860269547,-0.003958120010793209,1.0682131052017212,-22.3228759765625,-5.556075096130371,12.613198280334473,-0.08849557489156723,-3.052347421646118,0.3164841830730438,-1.2661606073379517,1.2224445343017578,1.7074275016784668
459,81667,81668,-0.04206492751836777,-0.038049325346946716,0.9660581946372986,-39.2009162902832,-22.676841735839844,11.251861572265625,-0.09749512374401093,-3.031348466873169,0.3014849126338959,-1.0823066234588623,0.7012400031089783,1.8229165077209473
460,81677,81678,-0.07340515404939651,-0.12350877374410629,0.9013150930404663,-47.43434524536133,-27.8787841796875,10.656392097473145,-0.08099594712257385,-3.0358481407165527,0.3119843900203705,-0.7415894269943237,0.34784194827079773,1.9435511827468872
461,81687,81688,-0.01696103811264038,-0.21573615074157715,1.0517605543136597,-47.3087272644043,-30.102235794067383,10.097009658813477,-0.07199639827013016,-3.029848337173462,0.29998499155044556,-0.2688114047050476,-0.29901835322380066,2.0633814334869385
462,81697,81698,-0.01856040023267269,-0.22219742834568024,0.9910907745361328,-39.03292465209961,-26.19424819946289,9.261343002319336,-0.08099594712257385,-3.0388479232788086,0.3149842321872711,-0.0589892603456974,-0.4601077735424042,2.173574209213257
463,81707,81708,-0.10823691636323929,-0.0913502424955368,0.9298609495162964,-27.25895118713379,-23.24135398864746,9.098827362060547,-0.08699564635753632,-3.029848337173462,0.3059847056865692,0.17655962705612183,-0.7519164085388184,2.2756776809692383
464,81717,81718,-0.058946721255779266,0.032748982310295105,0.9704165458679199,-19.796035766601562,-17.251253128051758,9.133132934570312,-0.0764961764216423,-3.0403478145599365,0.32848358154296875,0.43413370847702026,-1.0205018520355225,2.373216152191162
465,81727,81728,-0.11861547082662582,0.10515154898166656,1.03146231174469,-16.874271392822266,-7.400857448577881,8.126059532165527,-0.0764961764216423,-3.0373480319976807,0.3254837095737457,0.5242429971694946,-1.2157806158065796,2.4548380374908447
466,81737,81738,-0.10851074755191803,0.12104945629835129,1.0409008264541626,-11.507795333862305,6.589576721191406,5.757819175720215,-0.07799609750509262,-3.02384877204895,0.3029848337173462,0.48685500025749207,-1.203823208808899,2.524657726287842
467,81747,81748,-0.11837117373943329,0.06625503301620483,1.0317103862762451,-5.774337291717529,22.01192283630371,3.6548852920532227,-0.08099594712257385,-3.0148491859436035,0.3209839463233948,0.24039708077907562,-1.1560006141662598,2.56848406791687
468,81757,81758,0.014906876720488071,0.07104680687189102,0.9745027422904968,-1.9307047128677368,34.03813171386719,0.9885963797569275,-0.08099594712257385,-3.02384877204895,0.32698363065719604,-0.10441068559885025,-1.1792736053466797,2.5781004428863525
469,81767,81768,0.11446397751569748,0.07786936312913895,0.9860427975654602,-3.3547604084014893,31.906068801879883,0.40365609526634216,-0.08849557489156723,-3.0133492946624756,0.3224838674068451,-0.5858258008956909,-1.2647515535354614,2.580329179763794
470,81777,81778,0.041668012738227844,0.05669195204973221,0.9524893760681152,-6.009926795959473,20.202062606811523,-1.1273938417434692,-0.08699564635753632,-3.0118494033813477,0.3329833447933197,-0.8775901794433594,-1.3772977590560913,2.571988821029663
471,81787,81788,-0.042160890996456146,0.04757871478796005,0.9203872084617615,-3.5073370933532715,6.913161754608154,-4.8497114181518555,-0.08849557489156723,-3.025348663330078,0.3404829800128937,-1.0099072456359863,-1.4160922765731812,2.538356304168701
472,81797,81798,-0.1726798713207245,-0.014776100404560566,0.9279999136924744,-3.810352325439453,-2.1810901165008545,-10.393009185791016,-0.09599519520998001,-3.005849599838257,0.32998350262641907,-0.7922178506851196,-1.4134070873260498,2.432777166366577
473,81807,81808,-0.15891164541244507,-0.08240175992250443,0.9908612370491028,-3.3247101306915283,-11.243499755859375,-16.761981964111328,-0.08849557489156723,-3.034348249435425,0.3224838674068451,-0.6545838713645935,-1.428547739982605,2.2867026329040527
474,81817,81818,-0.09540466219186783,-0.12908169627189636,1.061885952949524,4.725621223449707,-17.38111686706543,-21.814464569091797,-0.09149542450904846,-3.0163490772247314,0.3164841830730438,-0.4981711208820343,-1.4481276273727417,2.088609457015991
475,81827,81828,-0.006426508072763681,0.015656733885407448,1.0419909954071045,16.399446487426758,-21.647686004638672,-23.40192222595215,-0.08249587565660477,-3.0223488807678223,0.3224838674068451,-0.4204016327857971,-1.3708397150039673,1.8832100629806519
