,timestamp_start,timestamp_end,acc.x,acc.y,acc.z,gyro.x,gyro.y,gyro.z,mag.x,mag.y,mag.z,stabilizer.pitch,stabilizer.roll,stabilizer.yaw
0,22804,22806,-1.066923975944519,-0.2373720109462738,0.8017264604568481,-3.3040647506713867,-40.0405387878418,9.223841667175293,-0.623968780040741,-0.8219588994979858,-0.3119843900203705,-1.1149024963378906,1.1318093538284302,-5.187104225158691
1,22814,22816,-0.7629023194313049,-0.5962294936180115,0.8860241770744324,-8.68938159942627,-34.262413024902344,9.082114219665527,-0.6254687309265137,-0.8474575877189636,-0.3254837095737457,-0.7027394771575928,1.1250838041305542,-5.100836277008057
2,22824,22826,-0.4577564299106598,-0.3956117630004883,0.8744255304336548,-7.429492473602295,-30.5228328704834,7.684380054473877,-0.622468888759613,-0.8654567003250122,-0.3314834237098694,-0.2821669578552246,1.0937082767486572,-5.016400337219238
3,22834,22836,-0.8242273330688477,-0.47619786858558655,1.0038844347000122,-9.012003898620605,-18.819400787353516,5.974825859069824,-0.6089695692062378,-0.8609569072723389,-0.3209839463233948,-0.1411067545413971,1.1250630617141724,-4.9732184410095215
4,22844,22846,-0.33820840716362,-0.1786777526140213,1.0020601749420166,-0.5780016779899597,-1.4491852521896362,4.908695220947266,-0.5999699831008911,-0.8549572229385376,-0.3239837884902954,-0.04124118760228157,1.1468878984451294,-4.923734188079834
5,22854,22856,-0.34221774339675903,-0.13175104558467865,0.9370468854904175,0.814109742641449,17.21211051940918,6.292491436004639,-0.6059696674346924,-0.851957380771637,-0.3119843900203705,-0.21577991545200348,1.4844764471054077,-4.911159515380859
6,22864,22866,-0.3464513123035431,-0.0364137664437294,0.9661486744880676,6.761159420013428,28.919294357299805,4.717780590057373,-0.6104694604873657,-0.8534573316574097,-0.30748462677001953,-0.5968174934387207,1.2665140628814697,-4.848842144012451
7,22874,22876,-0.2752607464790344,-0.23262082040309906,1.1094104051589966,9.761188507080078,27.557573318481445,6.685281753540039,-0.6209689378738403,-0.8669566512107849,-0.32698363065719604,-1.173227310180664,1.4691767692565918,-4.847105979919434
8,22884,22886,-0.32118311524391174,-0.3376900553703308,1.0186864137649536,14.584221839904785,24.74285125732422,5.856875419616699,-0.6194689869880676,-0.8624568581581116,-0.3254837095737457,-1.8225181102752686,1.4090783596038818,-4.834344863891602
9,22894,22896,-0.2598313093185425,-0.24003055691719055,1.061042070388794,7.5513482093811035,17.365345001220703,4.417381763458252,-0.6344682574272156,-0.8564571738243103,-0.31948402523994446,-1.7555745840072632,2.111635446548462,-4.755641460418701
10,22904,22906,-0.10459946095943451,-0.061082419008016586,1.0593205690383911,5.281557083129883,1.5720278024673462,0.27904823422431946,-0.616469144821167,-0.8744562864303589,-0.33448326587677,-1.8029654026031494,2.080632209777832,-4.7218756675720215
11,22914,22916,-0.621513843536377,-0.25077366828918457,1.0389735698699951,-4.331484794616699,-13.136229515075684,-1.6679067611694336,-0.623968780040741,-0.8489575386047363,-0.3119843900203705,-1.6962544918060303,2.060990571975708,-4.717023849487305
12,22924,22926,-0.3755606412887573,-0.6259798407554626,0.8187264204025269,-1.245983600616455,-20.144338607788086,-5.060978889465332,-0.6269686222076416,-0.8459576964378357,-0.30898454785346985,-1.3895066976547241,1.9810409545898438,-4.72786283493042
13,22934,22936,-0.6109805107116699,-0.5722270011901855,0.9748290777206421,-13.679350852966309,-26.27899932861328,-4.802274703979492,-0.622468888759613,-0.8474575877189636,-0.30748462677001953,-0.8437144756317139,1.8204458951950073,-4.7154645919799805
14,22944,22946,-0.6820238828659058,0.002210356993600726,1.0329487323760986,-25.66698455810547,-37.202728271484375,-4.601754665374756,-0.6104694604873657,-0.8624568581581116,-0.3254837095737457,-0.3160082697868347,1.6271475553512573,-4.73123025894165
15,22954,22956,-0.46287980675697327,0.18886694312095642,1.1115317344665527,-42.132530212402344,-41.688018798828125,-2.618234634399414,-0.616469144821167,-0.8474575877189636,-0.3164841830730438,0.23460718989372253,1.0914757251739502,-4.738239765167236
16,22964,22966,-0.42646506428718567,0.12505781650543213,1.068956732749939,-39.17224884033203,-26.716930389404297,-4.553606986999512,-0.5924703478813171,-0.844457745552063,-0.31948402523994446,0.6441481709480286,0.6527547240257263,-4.750678062438965
17,22974,22976,-0.5593729615211487,-0.30925193428993225,1.0130847692489624,-38.45405197143555,-4.662900924682617,-3.5718419551849365,-0.6014699339866638,-0.8414579033851624,-0.31948402523994446,0.7537233233451843,0.2876296937465668,-4.8025126457214355
18,22984,22986,-0.29281532764434814,-0.026584627106785774,0.871699869632721,-25.932031631469727,18.580656051635742,-6.7234787940979,-0.6119694113731384,-0.8429578542709351,-0.3119843900203705,0.6414892077445984,-0.22637027502059937,-4.851922512054443
19,22994,22996,-0.38414058089256287,-0.007561411242932081,1.0801023244857788,-8.949901580810547,23.535076141357422,-3.7250332832336426,-0.6179690957069397,-0.8309584259986877,-0.30898454785346985,0.13767382502555847,-0.372437447309494,-4.972945213317871
20,23004,23006,-1.3089066743850708,-0.13954053819179535,1.1030045747756958,19.800683975219727,34.96348190307617,-3.5505118370056152,-0.6179690957069397,-0.8249587416648865,-0.3059847056865692,-0.3507581055164337,-0.1998046487569809,-5.058278560638428
21,23014,23016,-1.0811009407043457,-0.08515587449073792,0.949126660823822,39.68268585205078,31.60163688659668,-3.423229694366455,-0.6104694604873657,-0.8354582190513611,-0.3014849126338959,-0.8942116498947144,0.3403424620628357,-5.15145206451416
22,23024,23026,-0.24575340747833252,-0.12706176936626434,0.8527793288230896,54.01560974121094,19.30866050720215,-2.6484854221343994,-0.6269686222076416,-0.8489575386047363,-0.30898454785346985,-0.841562807559967,0.7003076076507568,-5.121819972991943
23,23034,23036,-0.14085230231285095,-0.14998681843280792,1.0028119087219238,49.4591064453125,17.571840286254883,-4.993669033050537,-0.6299684643745422,-0.8429578542709351,-0.3119843900203705,-1.6063984632492065,1.248930811882019,-5.2239227294921875
24,23044,23046,-0.17295794188976288,0.050659891217947006,1.0935555696487427,31.970582962036133,-6.142857074737549,1.8300837278366089,-0.623968780040741,-0.8429578542709351,-0.29998499155044556,-1.6056970357894897,1.879963994026184,-5.249124526977539
25,23054,23056,-0.4605107605457306,-0.17774422466754913,1.145719289779663,5.611289024353027,-16.79120445251465,0.5262763500213623,-0.6389680504798889,-0.8489575386047363,-0.3059847056865692,-1.2526967525482178,2.06343936920166,-5.208343029022217
26,23064,23066,-0.40802064538002014,-0.2949317693710327,0.9508972764015198,-15.633475303649902,-21.521442413330078,4.054609298706055,-0.6254687309265137,-0.844457745552063,-0.3164841830730438,-0.8492423295974731,1.872714877128601,-5.1570143699646
27,23074,23076,-0.6698675155639648,-0.2973209321498871,0.9796188473701477,-44.269405364990234,-20.707550048828125,3.2018508911132812,-0.6119694113731384,-0.8429578542709351,-0.30898454785346985,-1.761954665184021,1.1075531244277954,-5.301003932952881
28,23084,23086,-0.6940931081771851,0.05252419039607048,0.9246198534965515,-50.69172286987305,-34.30706024169922,5.039194583892822,-0.616469144821167,-0.8384580612182617,-0.3164841830730438,-1.3075518608093262,0.3765299916267395,-5.237852573394775
29,23094,23096,-0.799126923084259,-0.11409742385149002,0.9807167053222656,-43.145790100097656,-37.48930740356445,2.5730996131896973,-0.6074696183204651,-0.8294585347175598,-0.31048446893692017,-0.6766498684883118,-0.04373135790228844,-5.1480512619018555
30,23104,23106,-0.22247610986232758,-0.32807493209838867,0.8944978713989258,-18.156761169433594,-40.339420318603516,2.9101226329803467,-0.6059696674346924,-0.8339582681655884,-0.3119843900203705,-0.16012956202030182,-0.14940527081489563,-5.090066909790039
31,23114,23116,-1.0131676197052002,-0.33519867062568665,1.0388860702514648,-4.761378765106201,-37.26889419555664,2.972991704940796,-0.5969701409339905,-0.8279585838317871,-0.3059847056865692,0.40306344628334045,-0.3003387749195099,-5.0346856117248535
32,23124,23126,-0.8036487102508545,0.07849741727113724,0.9418916702270508,9.786588668823242,-31.667543411254883,3.516563892364502,-0.6149692535400391,-0.8279585838317871,-0.3029848337173462,1.0308114290237427,-0.08172909170389175,-4.972066402435303
33,23134,23136,-0.3521779477596283,-0.4348512589931488,1.0144386291503906,18.43185043334961,-23.295196533203125,4.648165702819824,-0.6149692535400391,-0.8339582681655884,-0.3149842321872711,1.5221210718154907,0.18209494650363922,-4.9119977951049805
34,23144,23146,-0.012662636116147041,-0.09847158193588257,0.9426180124282837,27.700586318969727,-7.652958393096924,4.469607353210449,-0.6119694113731384,-0.8549572229385376,-0.3029848337173462,1.791054368019104,0.4425012767314911,-4.85895299911499
35,23154,23156,0.09476220607757568,-0.26613879203796387,0.9589022994041443,20.151273727416992,-0.45537900924682617,6.547026634216309,-0.6134693026542664,-0.8354582190513611,-0.3044847846031189,1.8587415218353271,0.6206380724906921,-4.793664932250977
36,23164,23166,-0.4218278229236603,-0.16396291553974152,0.9953705072402954,16.83665657043457,15.32284927368164,4.152214527130127,-0.616469144821167,-0.8294585347175598,-0.3044847846031189,1.7512657642364502,0.7942560911178589,-4.7395339012146
37,23174,23176,-0.2129000723361969,-0.28062453866004944,0.9619718790054321,8.401185035705566,23.529090881347656,4.490566730499268,-0.6029698252677917,-0.8489575386047363,-0.31798410415649414,1.5024200677871704,0.9789491891860962,-4.714042663574219
38,23184,23186,-0.9975989460945129,-0.5655431151390076,0.8930407762527466,-3.324829578399658,35.797157287597656,2.302875280380249,-0.6104694604873657,-0.8354582190513611,-0.3164841830730438,1.209402084350586,0.9903151392936707,-4.677323341369629
39,23194,23196,-1.5486615896224976,-0.4653721749782562,0.8876113295555115,-9.680719375610352,39.301673889160156,0.264801025390625,-0.6074696183204651,-0.8474575877189636,-0.3134843111038208,0.6683407425880432,0.8423439860343933,-4.645554542541504
40,23204,23206,-1.0172333717346191,-0.5181105136871338,0.8680322170257568,-16.847286224365234,35.77033615112305,0.2675955891609192,-0.6119694113731384,-0.8459576964378357,-0.29998499155044556,0.577591061592102,0.5759022831916809,-4.585938453674316
41,23214,23216,-0.8929672837257385,-0.5420974493026733,0.9621767401695251,-22.233688354492188,40.306922912597656,-2.960146427154541,-0.622468888759613,-0.8324583768844604,-0.3224838674068451,0.16172154247760773,0.299636572599411,-4.581714630126953
42,23224,23226,-1.0062259435653687,-0.347827285528183,1.0409603118896484,-21.536787033081055,17.936199188232422,-1.5862337350845337,-0.5984700918197632,-0.8414579033851624,-0.3164841830730438,0.08192816376686096,0.17476707696914673,-4.622434616088867
43,23234,23236,-1.1329108476638794,-0.04157976433634758,1.0654189586639404,-13.316976547241211,5.071994781494141,-6.487476348876953,-0.6134693026542664,-0.8414579033851624,-0.31948402523994446,0.07046131789684296,0.07971186190843582,-4.677331447601318
44,23244,23246,-1.2673367261886597,-0.21629300713539124,1.0436019897460938,-1.0993586778640747,-13.484253883361816,-4.966125011444092,-0.616469144821167,-0.8564571738243103,-0.3164841830730438,0.17135940492153168,0.009824016131460667,-4.730637550354004
45,23254,23256,-1.2101328372955322,-0.3255320191383362,1.0025882720947266,3.487565755844116,-3.061143159866333,-6.038385391235352,-0.6044697761535645,-0.8684565424919128,-0.3164841830730438,0.3127041161060333,0.09399533271789551,-4.805190563201904
46,23264,23266,-0.7562718391418457,-1.0022292137145996,0.8993293642997742,1.7969731092453003,4.095762252807617,-4.8186726570129395,-0.6119694113731384,-0.851957380771637,-0.31798410415649414,0.24585798382759094,0.11900395154953003,-4.861471176147461
47,23274,23276,-0.5411040186882019,-0.6246606707572937,0.7885944247245789,-0.3103560209274292,11.573416709899902,-5.415790557861328,-0.622468888759613,-0.850457489490509,-0.3224838674068451,0.3541335463523865,0.10424195230007172,-4.899545669555664
48,23284,23286,-0.14336057007312775,-0.5650151968002319,1.0245554447174072,-9.193812370300293,19.37624168395996,-4.046411991119385,-0.6209689378738403,-0.8459576964378357,-0.32998350262641907,0.25548073649406433,0.14846161007881165,-4.960446834564209
49,23294,23296,-0.042249295860528946,-0.5055015683174133,1.0831027030944824,-5.801407337188721,23.239904403686523,-3.6067006587982178,-0.6059696674346924,-0.8459576964378357,-0.3209839463233948,0.09521491825580597,0.026974031701683998,-4.986472129821777
50,23304,23306,-0.08248668164014816,0.003056824440136552,1.0614510774612427,-6.595552444458008,34.62068176269531,-3.3825173377990723,-0.6209689378738403,-0.8729563355445862,-0.3209839463233948,-0.19821028411388397,-0.015589777380228043,-5.02785062789917
51,23314,23316,-0.010134827345609665,-0.057131327688694,1.102803349494934,-3.4746968746185303,24.692718505859375,-1.426161766052246,-0.6194689869880676,-0.8534573316574097,-0.3164841830730438,-0.574465274810791,-0.014919119887053967,-5.064219951629639
52,23324,23326,-0.1154426708817482,-0.10692145675420761,1.0233253240585327,0.5656552910804749,22.72364616394043,-2.3382976055145264,-0.616469144821167,-0.850457489490509,-0.3224838674068451,-0.642865777015686,-0.051016781479120255,-5.083192825317383
53,23334,23336,-0.35907238721847534,-0.7477983236312866,0.9799886345863342,2.08732271194458,23.749570846557617,-0.039623506367206573,-0.6209689378738403,-0.8489575386047363,-0.31798410415649414,-0.9773670434951782,0.015397300012409687,-5.104264736175537
54,23344,23346,-0.6378955245018005,-1.0210011005401611,1.0203043222427368,0.678339958190918,25.858205795288086,0.8822071552276611,-0.622468888759613,-0.8624568581581116,-0.3134843111038208,-0.9414589405059814,0.13137787580490112,-5.124124526977539
55,23354,23356,-0.24142742156982422,-0.30714431405067444,0.9178210496902466,2.925720453262329,30.23143768310547,0.002613885561004281,-0.6314684152603149,-0.8654567003250122,-0.3164841830730438,-1.2944153547286987,0.11995431035757065,-5.108829975128174
56,23364,23366,-0.15655243396759033,-0.3488697409629822,1.0253973007202148,1.1952712535858154,23.778871536254883,2.3965957164764404,-0.6434678435325623,-0.8534573316574097,-0.31948402523994446,-1.5721015930175781,0.1387675255537033,-5.086507320404053
57,23374,23376,-0.25097209215164185,-0.3571794629096985,1.0202999114990234,4.461608409881592,15.783832550048828,3.0932438373565674,-0.6344682574272156,-0.8594570159912109,-0.3134843111038208,-1.496505618095398,0.2535269558429718,-5.071015357971191
58,23384,23386,-0.2935374081134796,-0.045929647982120514,0.9582480788230896,1.2275395393371582,8.612191200256348,4.708836078643799,-0.6209689378738403,-0.8549572229385376,-0.31798410415649414,-1.765910267829895,0.2618301808834076,-5.025671005249023
59,23394,23396,-0.24761703610420227,-0.01622077450156212,1.052165150642395,-2.4942986965179443,4.352180004119873,7.52401065826416,-0.6374680995941162,-0.8624568581581116,-0.3044847846031189,-1.6472967863082886,0.20164574682712555,-4.969629764556885
60,23404,23406,-0.685923159122467,-0.08457706868648529,0.9388669729232788,-1.3690062761306763,-1.2880274057388306,8.77995777130127,-0.6344682574272156,-0.8624568581581116,-0.31948402523994446,-1.8216725587844849,0.19045941531658173,-4.881618976593018
61,23414,23416,-0.8600443601608276,-0.3257546126842499,0.9807423949241638,-11.121923446655273,-0.04624386876821518,10.473902702331543,-0.6389680504798889,-0.851957380771637,-0.3239837884902954,-1.718433141708374,0.1734263002872467,-4.7832231521606445
62,23424,23426,-0.3854343891143799,-0.24635091423988342,0.9103978276252747,-13.28950023651123,-0.7684775590896606,11.653427124023438,-0.6149692535400391,-0.8639568090438843,-0.31798410415649414,-1.8229790925979614,-0.014236676506698132,-4.667734146118164
63,23434,23436,-0.774020254611969,-0.02846093848347664,0.9939874410629272,-22.681859970092773,1.574121356010437,11.50693416595459,-0.6344682574272156,-0.8594570159912109,-0.3134843111038208,-1.8554792404174805,-0.30433475971221924,-4.5543084144592285
64,23444,23446,-0.2782392203807831,-0.001676138723269105,1.037051796913147,-23.027929306030273,6.175562381744385,10.66719913482666,-0.6179690957069397,-0.8489575386047363,-0.3209839463233948,-1.6827781200408936,-0.4224530756473541,-4.438328742980957
65,23454,23456,-0.1631736010313034,-0.08702018857002258,1.054283857345581,-20.29623794555664,12.798820495605469,9.22370719909668,-0.6314684152603149,-0.8534573316574097,-0.31948402523994446,-1.957090973854065,-0.7292534112930298,-4.343356132507324
66,23464,23466,-0.11368416994810104,-0.38493967056274414,1.0273958444595337,-16.670276641845703,16.4095458984375,7.67730188369751,-0.616469144821167,-0.850457489490509,-0.3224838674068451,-1.9461374282836914,-0.8404074311256409,-4.255283832550049
67,23474,23476,-0.09987466782331467,-0.2296922653913498,1.063991904258728,-3.6384103298187256,19.744184494018555,6.989705562591553,-0.6269686222076416,-0.8549572229385376,-0.3239837884902954,-2.290743112564087,-0.9363896250724792,-4.174579620361328
68,23484,23486,-0.10514634847640991,0.025593526661396027,0.9799543619155884,11.473413467407227,19.641902923583984,6.872689723968506,-0.6314684152603149,-0.8624568581581116,-0.3164841830730438,-2.6536383628845215,-0.8594169616699219,-4.092209339141846
69,23494,23496,-0.15831367671489716,0.0653056874871254,0.9970943331718445,24.563499450683594,14.832310676574707,7.639936447143555,-0.6374680995941162,-0.8624568581581116,-0.31948402523994446,-2.467008352279663,-0.5553882718086243,-4.03381872177124
70,23504,23506,-0.04254276677966118,-0.16629557311534882,1.0360888242721558,27.12297821044922,6.164117336273193,6.07309103012085,-0.6299684643745422,-0.8609569072723389,-0.3239837884902954,-2.5956594944000244,-0.29807257652282715,-3.9668147563934326
71,23514,23516,-0.3595350682735443,-0.4018762707710266,1.0964363813400269,25.867151260375977,-2.4248316287994385,5.328058242797852,-0.6299684643745422,-0.8609569072723389,-0.3239837884902954,-2.4859209060668945,-0.1033952608704567,-3.9399030208587646
72,23524,23526,-0.6287624835968018,-0.4254833161830902,1.0041594505310059,21.483474731445312,-8.312752723693848,5.24587869644165,-0.6299684643745422,-0.8609569072723389,-0.3239837884902954,-2.4811573028564453,0.16689473390579224,-3.87141752243042
73,23534,23536,-0.3246140480041504,-0.448485791683197,1.0500513315200806,15.297359466552734,-11.473746299743652,4.563573360443115,-0.6359682083129883,-0.8669566512107849,-0.32698363065719604,-2.395366668701172,0.3542402982711792,-3.8164703845977783
74,23544,23546,-0.12765195965766907,-0.7066043019294739,0.9851388931274414,7.134720325469971,-13.696345329284668,3.6918509006500244,-0.6449677348136902,-0.8609569072723389,-0.3209839463233948,-2.2524092197418213,0.21846461296081543,-3.840083360671997
75,23554,23556,-0.12691910564899445,-0.23924972116947174,0.9887027740478516,-2.0620694160461426,-14.555319786071777,2.827284812927246,-0.6314684152603149,-0.8534573316574097,-0.31048446893692017,-2.091761589050293,0.3009711802005768,-3.793506145477295
76,23564,23566,-0.21874859929084778,-0.1155024990439415,1.030852198600769,-6.476284027099609,-15.25771713256836,2.127195358276367,-0.616469144821167,-0.8594570159912109,-0.3134843111038208,-1.9026389122009277,0.14468538761138916,-3.8018031120300293
77,23574,23576,-0.5105801820755005,-0.7849158644676208,1.0062506198883057,-13.45905876159668,-12.646780014038086,0.38473811745643616,-0.623968780040741,-0.8549572229385376,-0.3239837884902954,-1.7485852241516113,-0.027344681322574615,-3.80903697013855
78,23584,23586,-0.5549730658531189,-1.2140737771987915,1.0626846551895142,-15.1251802444458,-8.88559627532959,-2.225903034210205,-0.6374680995941162,-0.8474575877189636,-0.3134843111038208,-1.6560781002044678,-0.18567781150341034,-3.821479082107544
79,23594,23596,-0.32335641980171204,-0.13787883520126343,0.9846712350845337,-11.397451400756836,-1.6750401258468628,-5.119289875030518,-0.6284685730934143,-0.8474575877189636,-0.3164841830730438,-1.6547725200653076,-0.25399938225746155,-3.836146831512451
80,23604,23606,-0.02310847118496895,0.04335108771920204,1.0011564493179321,-3.5277085304260254,10.667694091796875,-8.432602882385254,-0.6089695692062378,-0.836958110332489,-0.3149842321872711,-1.815132975578308,-0.2914167642593384,-3.8877856731414795
81,23614,23616,-0.07137932628393173,-0.08579404652118683,0.9552412033081055,8.17457389831543,22.57832145690918,-10.554494857788086,-0.6374680995941162,-0.8354582190513611,-0.3164841830730438,-2.083364963531494,-0.1702822744846344,-3.952714443206787
82,23624,23626,-0.4149864912033081,-0.12386181205511093,1.003600001335144,20.352312088012695,28.58004379272461,-12.241251945495605,-0.6374680995941162,-0.8414579033851624,-0.3014849126338959,-2.200516700744629,0.07813382148742676,-4.05137825012207
83,23634,23636,-0.6085548400878906,-0.6993181705474854,1.0275475978851318,29.482980728149414,25.821361541748047,-12.575665473937988,-0.6389680504798889,-0.8429578542709351,-0.31798410415649414,-2.5464072227478027,0.47700223326683044,-4.1287360191345215
84,23644,23646,-0.9020919799804688,-0.6024903059005737,0.9696336984634399,38.5108642578125,17.131332397460938,-12.996223449707031,-0.6449677348136902,-0.851957380771637,-0.30898454785346985,-2.727968692779541,0.6836449503898621,-4.295500755310059
85,23654,23656,-1.4329694509506226,-0.5519594550132751,1.1143434047698975,38.838829040527344,4.6877970695495605,-13.118003845214844,-0.6479675769805908,-0.8489575386047363,-0.3119843900203705,-2.8215293884277344,1.014641284942627,-4.447057247161865
86,23664,23666,-1.3861303329467773,-0.7259805798530579,0.9980507493019104,34.78560256958008,-9.635113716125488,-13.49884033203125,-0.6284685730934143,-0.8474575877189636,-0.33448326587677,-2.6532387733459473,1.3584628105163574,-4.591836452484131
87,23674,23676,-1.1036823987960815,-0.23806974291801453,0.9100927710533142,16.65556526184082,-25.39358901977539,-11.930521965026855,-0.6359682083129883,-0.8609569072723389,-0.3239837884902954,-2.357757806777954,1.644480586051941,-4.715982437133789
88,23684,23686,-0.7727844715118408,-0.4140470027923584,0.9386510252952576,-0.9282190799713135,-35.52678680419922,-10.527518272399902,-0.6329683661460876,-0.8609569072723389,-0.31798410415649414,-2.1686198711395264,1.5793399810791016,-4.875387191772461
89,23694,23696,-0.308107852935791,-0.24340616166591644,0.9230246543884277,-16.565956115722656,-37.00029373168945,-7.825706958770752,-0.6344682574272156,-0.8534573316574097,-0.31948402523994446,-1.6972936391830444,1.3792226314544678,-5.0066657066345215
90,23704,23706,-0.37730634212493896,-0.6099790334701538,1.054834246635437,-31.12731170654297,-32.57462692260742,-5.554373264312744,-0.6299684643745422,-0.8669566512107849,-0.3239837884902954,-1.3782347440719604,1.0005582571029663,-5.114773750305176
91,23714,23716,-0.3638230860233307,-0.32014894485473633,1.0304861068725586,-37.533992767333984,-28.619003295898438,-3.424318790435791,-0.6284685730934143,-0.8624568581581116,-0.31948402523994446,-1.043690800666809,0.7039348483085632,-5.145069599151611
92,23724,23726,-0.14534996449947357,-0.43208855390548706,0.9249119758605957,-32.35866165161133,-19.0959529876709,-1.1725366115570068,-0.6209689378738403,-0.8699564933776855,-0.3239837884902954,-0.8513873815536499,0.2813786268234253,-5.188098430633545
93,23734,23736,-0.5303410887718201,-0.546157956123352,0.9617423415184021,-17.879539489746094,-5.4344658851623535,0.037804923951625824,-0.6179690957069397,-0.8549572229385376,-0.31798410415649414,-0.7878618240356445,0.3733592629432678,-5.118877410888672
94,23744,23746,-0.5851017832756042,-0.2618783414363861,0.9952225089073181,-3.238203763961792,5.042258262634277,2.8670499324798584,-0.622468888759613,-0.844457745552063,-0.31048446893692017,-0.8565517067909241,0.21189060807228088,-5.121712684631348
95,23754,23756,-0.8122365474700928,-0.19194573163986206,1.0071887969970703,9.756267547607422,12.029894828796387,6.028429985046387,-0.6299684643745422,-0.8489575386047363,-0.3149842321872711,-1.0549771785736084,0.3413470685482025,-5.067654609680176
96,23764,23766,-0.3983587622642517,-0.09295554459095001,0.9578403234481812,13.930349349975586,19.08024024963379,9.585105895996094,-0.6434678435325623,-0.8474575877189636,-0.31048446893692017,-1.350845217704773,0.5243173241615295,-4.983780860900879
97,23774,23776,-0.06208236888051033,-0.07660248875617981,0.9622002840042114,6.968843936920166,20.503610610961914,12.048477172851562,-0.6254687309265137,-0.8594570159912109,-0.3224838674068451,-1.5320155620574951,0.5730125308036804,-4.882382869720459
98,23784,23786,-0.17458085715770721,-0.4703005850315094,0.9983415603637695,-6.860421180725098,17.523122787475586,14.078337669372559,-0.622468888759613,-0.8474575877189636,-0.3044847846031189,-1.7477161884307861,0.5070381164550781,-4.757845401763916
99,23794,23796,-0.15338070690631866,-0.4845641255378723,1.024540662765503,-20.770648956298828,12.01315975189209,15.580698013305664,-0.6284685730934143,-0.8594570159912109,-0.30748462677001953,-1.9557660818099976,0.2982872426509857,-4.618905067443848
100,23804,23806,-0.7796521186828613,-0.12596410512924194,1.027216911315918,-30.384824752807617,5.241118431091309,16.93459701538086,-0.6344682574272156,-0.8564571738243103,-0.3134843111038208,-2.074650764465332,-0.08357290923595428,-4.476745128631592
101,23814,23816,-1.103898525238037,-0.217596173286438,1.0469729900360107,-30.514129638671875,-5.932302474975586,17.599241256713867,-0.623968780040741,-0.8489575386047363,-0.3119843900203705,-1.9714161157608032,-0.38962218165397644,-4.299583435058594
102,23824,23826,-0.6459940075874329,-0.3935149013996124,1.0439589023590088,-23.803781509399414,-17.90047836303711,18.948415756225586,-0.6389680504798889,-0.8339582681655884,-0.29998499155044556,-1.7571887969970703,-0.4916343688964844,-4.082931041717529
103,23834,23836,-1.0658318996429443,-0.114010289311409,1.0010318756103516,-7.743821144104004,-30.732425689697266,20.951889038085938,-0.6284685730934143,-0.8384580612182617,-0.31048446893692017,-1.5397257804870605,-0.6776126027107239,-3.8886327743530273
104,23844,23846,-0.27725908160209656,0.013826537877321243,1.0263919830322266,6.750677585601807,-36.64213562011719,23.68451499938965,-0.6284685730934143,-0.8294585347175598,-0.31048446893692017,-1.11308753490448,-0.6031558513641357,-3.6488149166107178
105,23854,23856,-0.03227202966809273,-0.014097911305725574,1.004801630973816,18.185840606689453,-39.55632400512695,26.219013214111328,-0.616469144821167,-0.8564571738243103,-0.3164841830730438,-0.7820695042610168,-0.40277397632598877,-3.3841395378112793
106,23864,23866,-0.6318163275718689,-0.6552967429161072,1.0611494779586792,29.187644958496094,-36.96321105957031,29.09109115600586,-0.622468888759613,-0.8684565424919128,-0.31948402523994446,-0.5722804665565491,-0.09860969334840775,-3.0962493419647217
107,23874,23876,-0.30166980624198914,-0.5625332593917847,1.0017037391662598,29.943544387817383,-28.994808197021484,31.14537239074707,-0.6149692535400391,-0.8669566512107849,-0.3119843900203705,-0.16604453325271606,0.3510448634624481,-2.7781100273132324
108,23884,23886,-0.3328258693218231,-0.5988197922706604,1.0134263038635254,22.13437271118164,-18.056705474853516,31.806913375854492,-0.6059696674346924,-0.8549572229385376,-0.3149842321872711,-0.06348633021116257,0.4345424771308899,-2.4786720275878906
109,23894,23896,-0.11760275810956955,-0.1645459681749344,1.0293587446212769,5.519303321838379,-5.8089070320129395,31.4846248626709,-0.6119694113731384,-0.8729563355445862,-0.3119843900203705,0.14315065741539001,0.5301785469055176,-2.166290044784546
110,23904,23906,-0.03206205740571022,0.004154338967055082,1.024167537689209,-11.438576698303223,4.827114105224609,30.177949905395508,-0.6119694113731384,-0.8549572229385376,-0.30898454785346985,-0.039224859327077866,0.40248072147369385,-1.8567577600479126
111,23914,23916,-0.09697405248880386,0.001819406170397997,0.994784951210022,-24.644001007080078,9.405795097351074,30.19635009765625,-0.6104694604873657,-0.850457489490509,-0.30748462677001953,-0.11900383234024048,0.052142489701509476,-1.5576249361038208
112,23924,23926,-0.09408700466156006,-0.34379667043685913,1.0262869596481323,-31.78459930419922,6.175777912139893,30.635026931762695,-0.5969701409339905,-0.8609569072723389,-0.3209839463233948,-0.18601492047309875,-0.23022855818271637,-1.2519168853759766
113,23934,23936,-0.07686308026313782,-0.16519686579704285,1.0086426734924316,-32.14356994628906,2.4754080772399902,30.8796329498291,-0.6104694604873657,-0.850457489490509,-0.3224838674068451,-0.13174383342266083,-0.4890090227127075,-0.9460829496383667
114,23944,23946,-0.3859257102012634,-0.37288615107536316,1.0556362867355347,-25.931594848632812,-4.569688320159912,31.56308364868164,-0.5984700918197632,-0.8534573316574097,-0.3224838674068451,-0.07632924616336823,-0.8340004086494446,-0.6314756274223328
115,23954,23956,-0.3095090985298157,-0.29526954889297485,1.091005802154541,-14.239100456237793,-10.086050033569336,31.79021453857422,-0.5969701409339905,-0.8459576964378357,-0.3149842321872711,0.005347365513443947,-1.0102674961090088,-0.31523415446281433
116,23964,23966,-0.17242181301116943,-0.16723310947418213,1.0499534606933594,-0.15263620018959045,-12.42088794708252,30.920469284057617,-0.6029698252677917,-0.8459576964378357,-0.3209839463233948,0.08597765117883682,-0.9071901440620422,-0.0074637290090322495
117,23974,23976,-0.05050792172551155,0.06582246720790863,1.0096073150634766,11.627063751220703,-12.186944961547852,29.892642974853516,-0.6029698252677917,-0.8489575386047363,-0.3149842321872711,0.24892951548099518,-0.6762223243713379,0.28340813517570496
118,23984,23986,-0.21051673591136932,0.020026763901114464,1.0248022079467773,20.399303436279297,-9.502779960632324,29.707237243652344,-0.6059696674346924,-0.8429578542709351,-0.3209839463233948,0.22773943841457367,-0.506581723690033,0.5912400484085083
119,23994,23996,-0.38710641860961914,-0.05716288089752197,0.9991099834442139,19.481548309326172,-9.520719528198242,30.574405670166016,-0.6074696183204651,-0.8594570159912109,-0.31948402523994446,0.3211095631122589,-0.36255162954330444,0.898195743560791
120,24004,24006,-0.11195561289787292,-0.04365696758031845,0.9729204177856445,11.383379936218262,3.056173324584961,29.413856506347656,-0.5954701900482178,-0.8654567003250122,-0.3164841830730438,0.32591497898101807,-0.3031114935874939,1.2095504999160767
121,24014,24016,-0.09716809540987015,0.09900518506765366,0.9507585763931274,-5.136133670806885,0.43102261424064636,27.818317413330078,-0.6074696183204651,-0.8414579033851624,-0.3164841830730438,0.36928591132164,-0.38882842659950256,1.5092278718948364
122,24024,24026,-0.3121683597564697,-0.2956922650337219,1.0377674102783203,-24.195186614990234,-0.3752160966396332,26.377573013305664,-0.5954701900482178,-0.8534573316574097,-0.3134843111038208,0.2710437774658203,-0.7006028890609741,1.8104647397994995
123,24034,24036,-0.24722570180892944,-0.2200399488210678,1.0766465663909912,-34.185237884521484,-3.62015962600708,27.472902297973633,-0.5954701900482178,-0.8474575877189636,-0.3134843111038208,0.325029194355011,-1.071157455444336,2.0817317962646484
124,24044,24046,-0.10954958945512772,-0.03306764364242554,1.0202620029449463,-34.7551383972168,5.515464782714844,25.569042205810547,-0.577471137046814,-0.850457489490509,-0.3164841830730438,0.29722312092781067,-1.4327185153961182,2.3441720008850098
125,24054,24056,-0.14378927648067474,0.0012507406063377857,1.0524232387542725,-26.971128463745117,7.90496301651001,23.14242172241211,-0.5804709792137146,-0.844457745552063,-0.31948402523994446,0.21615803241729736,-1.6327589750289917,2.5703518390655518
126,24064,24066,-0.15243908762931824,0.07054898142814636,1.0062894821166992,-18.308055877685547,4.537832260131836,20.024564743041992,-0.5969701409339905,-0.8459576964378357,-0.3029848337173462,0.19402797520160675,-1.990622639656067,2.800541877746582
127,24074,24076,-0.22818590700626373,0.1770729422569275,0.9825652837753296,-5.423168659210205,7.607381343841553,19.912090301513672,-0.5954701900482178,-0.8324583768844604,-0.30748462677001953,0.09501082450151443,-2.170870780944824,3.005852222442627
128,24084,24086,-0.141969695687294,-0.09075262397527695,0.9599979519844055,1.500276803970337,12.267546653747559,15.982230186462402,-0.6014699339866638,-0.8354582190513611,-0.3164841830730438,0.029664164409041405,-2.1604182720184326,3.1699423789978027
129,24094,24096,-0.055172909051179886,-0.24593180418014526,0.9838144183158875,16.469066619873047,-0.32439449429512024,16.177125930786133,-0.6014699339866638,-0.8294585347175598,-0.30748462677001953,-0.009076314978301525,-1.9597090482711792,3.3096530437469482
130,24104,24106,-0.27304986119270325,0.014378936029970646,1.0475746393203735,29.374954223632812,-5.954399108886719,17.505054473876953,-0.5969701409339905,-0.836958110332489,-0.30898454785346985,0.06939341872930527,-1.5544054508209229,3.4306719303131104
131,24114,24116,-0.10382599383592606,-0.04495532438158989,1.0162484645843506,31.887325286865234,-11.05161190032959,15.322113990783691,-0.5924703478813171,-0.844457745552063,-0.31048446893692017,0.24263517558574677,-1.0478657484054565,3.5367841720581055
132,24124,24126,-0.12620271742343903,-0.2524069547653198,1.0075727701187134,31.872682571411133,-24.129228591918945,14.004857063293457,-0.5939702987670898,-0.8549572229385376,-0.3119843900203705,0.5009432435035706,-1.213340163230896,3.7676639556884766
133,24134,24136,-0.1429370492696762,-0.25128108263015747,1.0233533382415771,26.36794662475586,-34.33524703979492,13.480107307434082,-0.5894705057144165,-0.8534573316574097,-0.30748462677001953,0.9052024483680725,-0.7222486138343811,3.8435778617858887
134,24144,24146,-0.44342777132987976,-0.0333092175424099,1.0474252700805664,15.675564765930176,-31.49228858947754,11.759971618652344,-0.5729713439941406,-0.8579570651054382,-0.3119843900203705,1.4132696390151978,-0.4032805860042572,3.901252269744873
135,24154,24156,-0.25061506032943726,0.09374800324440002,1.0234483480453491,3.849907398223877,-24.413829803466797,8.565650939941406,-0.5849707126617432,-0.8549572229385376,-0.30898454785346985,1.5761748552322388,-0.25826549530029297,4.024324417114258
136,24164,24166,-0.1355375498533249,0.1177683100104332,1.0281102657318115,-6.509975910186768,-19.80054473876953,8.740818977355957,-0.5834708213806152,-0.8564571738243103,-0.31948402523994446,1.9063737392425537,-0.4333595633506775,4.125694751739502
137,24174,24176,-0.15724162757396698,0.05543822795152664,0.9870006442070007,-12.976004600524902,2.9681990146636963,6.159674644470215,-0.5939702987670898,-0.8429578542709351,-0.30898454785346985,1.8078399896621704,-0.6097360849380493,4.248096466064453
138,24184,24186,-0.23696181178092957,-0.3846544027328491,1.0847828388214111,-15.282293319702148,19.838464736938477,4.703474998474121,-0.5849707126617432,-0.8399580121040344,-0.3209839463233948,1.5648796558380127,-0.8250621557235718,4.342410087585449
139,24194,24196,-0.27752554416656494,-0.29281842708587646,0.9800544381141663,-15.38602066040039,27.16436767578125,3.4137725830078125,-0.5744712948799133,-0.8414579033851624,-0.3134843111038208,1.353960633277893,-0.84111088514328,4.328537464141846
140,24204,24206,-0.030680296942591667,0.005193090997636318,0.8995807766914368,-8.631326675415039,42.08065414428711,0.27314576506614685,-0.5849707126617432,-0.8309584259986877,-0.30898454785346985,0.7644745707511902,-1.2172147035598755,4.45965576171875
141,24214,24216,-0.5018160939216614,0.05665057897567749,0.9533689022064209,-3.1957461833953857,51.361385345458984,-4.368002891540527,-0.5864706635475159,-0.8264586329460144,-0.31048446893692017,0.23984608054161072,-1.1925017833709717,4.420657634735107
142,24224,24226,-0.4406602084636688,0.034423720091581345,0.9714515805244446,6.894993305206299,40.79542922973633,-3.443235397338867,-0.5969701409339905,-0.8339582681655884,-0.3119843900203705,0.09243910014629364,-1.1012868881225586,4.2985382080078125
143,24234,24236,-0.16291385889053345,-0.09410407394170761,0.9740336537361145,14.351825714111328,24.56934928894043,-2.5283122062683105,-0.6059696674346924,-0.8399580121040344,-0.3149842321872711,-0.44827884435653687,-1.1531473398208618,4.343512535095215
144,24244,24246,-0.1306036412715912,-0.021644873544573784,0.9658756852149963,17.781862258911133,15.676414489746094,-5.1573004722595215,-0.5909704566001892,-0.8309584259986877,-0.3029848337173462,-0.6719922423362732,-0.9079505205154419,4.279784202575684
145,24254,24256,-0.19387072324752808,-0.05805342644453049,1.0113134384155273,19.796764373779297,-5.316943645477295,-5.970680236816406,-0.6074696183204651,-0.844457745552063,-0.30748462677001953,-0.33250412344932556,-0.8369629383087158,4.178378582000732
146,24264,24266,-0.14583808183670044,-0.04364341124892235,0.9904174208641052,24.43876838684082,-19.6092586517334,-4.332605361938477,-0.6029698252677917,-0.8429578542709351,-0.3149842321872711,-0.10791117697954178,-0.48376721143722534,4.080384254455566
147,24274,24276,-0.13702112436294556,-0.14626093208789825,0.9974641799926758,25.351037979125977,-22.167531967163086,-3.405259609222412,-0.5984700918197632,-0.850457489490509,-0.3164841830730438,0.16888880729675293,-0.371267706155777,4.0670647621154785
148,24284,24286,-0.07698020339012146,-0.12798303365707397,0.9837612509727478,25.441417694091797,-22.6411075592041,-0.7852464914321899,-0.5864706635475159,-0.8534573316574097,-0.30748462677001953,0.3916042447090149,-0.23584388196468353,4.080904960632324
149,24294,24296,-0.19130167365074158,0.004792762920260429,0.9600075483322144,22.68718910217285,-15.70060920715332,-0.5229074358940125,-0.5924703478813171,-0.850457489490509,-0.3044847846031189,0.6569768786430359,0.07117249071598053,4.049867153167725
150,24304,24306,-0.274615615606308,-0.08674398809671402,1.0190500020980835,20.384296417236328,-4.44858455657959,-0.8281615376472473,-0.5909704566001892,-0.8429578542709351,-0.3209839463233948,0.7614468336105347,0.19589509069919586,4.059488773345947
151,24314,24316,-0.6322804093360901,-0.16331179440021515,1.021044135093689,18.659503936767578,10.59858512878418,-1.489966630935669,-0.5924703478813171,-0.850457489490509,-0.3224838674068451,0.6437003016471863,0.5074065327644348,4.035613059997559
152,24324,24326,-0.2291942536830902,-0.07390765845775604,1.0186753273010254,16.044178009033203,23.202425003051758,-2.540968418121338,-0.5954701900482178,-0.8474575877189636,-0.30748462677001953,0.3876403868198395,0.4998140037059784,4.066056728363037
153,24334,24336,-0.11104179173707962,-0.06930633634328842,1.0226384401321411,9.574258804321289,33.24730682373047,-4.025332927703857,-0.6044697761535645,-0.8384580612182617,-0.3134843111038208,0.15229415893554688,0.638198971748352,4.027717113494873
154,24344,24346,-0.07285796850919724,0.023892994970083237,1.0267024040222168,3.7969672679901123,39.25325393676758,-5.071132183074951,-0.5999699831008911,-0.8549572229385376,-0.30898454785346985,-0.14023827016353607,0.6650073528289795,3.985455274581909
155,24354,24356,-0.04961422458291054,0.11484872549772263,1.0144858360290527,2.5140397548675537,39.76521301269531,-4.752121448516846,-0.6194689869880676,-0.8534573316574097,-0.31948402523994446,-0.6993482708930969,0.6361263394355774,3.958331823348999
156,24364,24366,-0.053353533148765564,0.010487693361938,1.0187945365905762,3.337149143218994,33.90298080444336,-6.67697286605835,-0.6014699339866638,-0.8474575877189636,-0.3134843111038208,-1.0524640083312988,0.682475745677948,3.8958418369293213
157,24374,24376,-0.05905318632721901,0.0026404119562357664,0.9881998300552368,6.748517990112305,22.406906127929688,-8.052802085876465,-0.6014699339866638,-0.8474575877189636,-0.3134843111038208,-1.165776014328003,0.7083446979522705,3.8212246894836426
158,24384,24386,-0.03921537473797798,0.009613935835659504,0.9731937050819397,9.667723655700684,10.053045272827148,-10.388720512390137,-0.6014699339866638,-0.8474575877189636,-0.3134843111038208,-1.3560798168182373,0.9287466406822205,3.7116611003875732
159,24394,24396,-0.11506997048854828,-0.00746522331610322,0.9779110550880432,12.693960189819336,-0.9851155877113342,-13.364847183227539,-0.6014699339866638,-0.8474575877189636,-0.3134843111038208,-1.3486886024475098,0.9008750915527344,3.6048755645751953
160,24404,24406,-0.5009083151817322,-0.44755658507347107,0.9956763982772827,15.824681282043457,-6.436555862426758,-16.124311447143555,-0.6179690957069397,-0.836958110332489,-0.30898454785346985,-1.2993109226226807,1.0696719884872437,3.4532418251037598
161,24414,24416,-0.09924089908599854,-0.12971501052379608,0.9473797082901001,18.98932456970215,0.7282426357269287,-19.13184928894043,-0.6179690957069397,-0.836958110332489,-0.3149842321872711,-1.2567546367645264,1.288563847541809,3.2701640129089355
162,24424,24426,-0.3655618727207184,-0.0983031764626503,0.9842682480812073,24.340482711791992,-3.9528560638427734,-21.0609130859375,-0.6209689378738403,-0.8279585838317871,-0.3149842321872711,-1.1416207551956177,1.3144936561584473,3.0737361907958984
163,24434,24436,-0.3056623041629791,0.05972805246710777,0.9855555891990662,26.768577575683594,2.844024658203125,-21.443357467651367,-0.6209689378738403,-0.8429578542709351,-0.29998499155044556,-1.1478577852249146,1.6797419786453247,2.8542115688323975
164,24444,24446,-0.6877588033676147,0.044317908585071564,1.0088304281234741,23.432788848876953,6.695948123931885,-21.06806182861328,-0.6194689869880676,-0.8324583768844604,-0.3044847846031189,-1.1490548849105835,1.8726496696472168,2.6462278366088867
165,24454,24456,-0.6413751244544983,-0.33870363235473633,1.0121673345565796,21.912282943725586,6.637295246124268,-20.928356170654297,-0.6314684152603149,-0.8324583768844604,-0.29848507046699524,-1.2666327953338623,2.1742351055145264,2.432530641555786
166,24464,24466,-0.5997488498687744,-0.462719202041626,1.0754997730255127,17.36785888671875,5.794232368469238,-19.90459442138672,-0.6119694113731384,-0.8459576964378357,-0.3029848337173462,-1.320550799369812,2.410675048828125,2.234731674194336
167,24474,24476,-0.7907217144966125,-1.0300261974334717,1.1606887578964233,14.809514999389648,1.5249605178833008,-17.35686683654785,-0.6179690957069397,-0.8609569072723389,-0.30898454785346985,-1.4066994190216064,2.593440055847168,2.0474283695220947
168,24484,24486,-1.105149269104004,-0.9364427328109741,1.011663556098938,8.547590255737305,2.6145613193511963,-15.806809425354004,-0.616469144821167,-0.8474575877189636,-0.3044847846031189,-1.3669039011001587,2.5499351024627686,1.8828039169311523
169,24494,24496,-1.231711745262146,-0.8521291017532349,0.8828991055488586,6.056234836578369,-3.42350697517395,-13.990619659423828,-0.6314684152603149,-0.8474575877189636,-0.3254837095737457,-1.415610671043396,2.5947887897491455,1.7252503633499146
170,24504,24506,-0.43016037344932556,-0.8500797152519226,0.8202197551727295,1.6455252170562744,-0.19961628317832947,-14.358807563781738,-0.6134693026542664,-0.850457489490509,-0.3164841830730438,-1.391728401184082,2.6225357055664062,1.5854493379592896
171,24514,24516,-0.7468730807304382,-0.6449052095413208,0.8627986907958984,-5.641470909118652,-10.400533676147461,-11.865585327148438,-0.6209689378738403,-0.851957380771637,-0.2969851493835449,-1.3619680404663086,2.6082205772399902,1.448501467704773
172,24524,24526,-0.36608248949050903,0.06016865372657776,0.9521036744117737,-14.085680961608887,-10.588719367980957,-10.589238166809082,-0.6179690957069397,-0.851957380771637,-0.3059847056865692,-1.1880234479904175,2.3996694087982178,1.3341203927993774
173,24534,24536,-0.33001747727394104,0.02991511858999729,1.0964629650115967,-20.66562271118164,-15.088757514953613,-7.966538429260254,-0.6299684643745422,-0.8459576964378357,-0.3059847056865692,-0.9576382637023926,2.251086711883545,1.261322259902954
174,24544,24546,-0.4611111879348755,-0.22582298517227173,1.056162714958191,-19.665016174316406,-14.254938125610352,-7.976890563964844,-0.6074696183204651,-0.844457745552063,-0.31948402523994446,-1.022660255432129,2.138394594192505,1.122458815574646
175,24554,24556,-0.2666742205619812,-0.5904654264450073,0.9776173233985901,-18.24016571044922,-11.49219799041748,-8.441817283630371,-0.6179690957069397,-0.8549572229385376,-0.3209839463233948,-0.843693733215332,1.8826141357421875,1.0471229553222656
176,24564,24566,-0.27916407585144043,-0.19587276875972748,0.9358968138694763,-15.720653533935547,-8.86899471282959,-8.702444076538086,-0.6194689869880676,-0.844457745552063,-0.3164841830730438,-0.6885908246040344,1.7255820035934448,0.9749709367752075
177,24574,24576,-0.24038326740264893,-0.16748139262199402,1.0438714027404785,-13.043889999389648,-8.565450668334961,-8.806645393371582,-0.6194689869880676,-0.8414579033851624,-0.31048446893692017,-0.5442477464675903,1.6184802055358887,0.9036027193069458
178,24584,24586,-0.22313274443149567,-0.09753063321113586,1.1026198863983154,-6.723464488983154,4.4356231689453125,-11.692468643188477,-0.6119694113731384,-0.8339582681655884,-0.3119843900203705,-0.6384645700454712,1.5140379667282104,0.7657121419906616
179,24594,24596,-0.19638824462890625,-0.0009558772435411811,1.028143286705017,-0.8219367265701294,15.631243705749512,-12.70240592956543,-0.6209689378738403,-0.8459576964378357,-0.3239837884902954,-0.8347094655036926,1.6321089267730713,0.6301136612892151
180,24604,24606,-0.17006520926952362,-0.009584327228367329,1.0551459789276123,4.910694122314453,23.34553337097168,-14.68526554107666,-0.6104694604873657,-0.844457745552063,-0.3044847846031189,-1.1604729890823364,1.7047176361083984,0.46124467253685
181,24614,24616,-0.4600599706172943,-0.09379590302705765,1.0913071632385254,14.61012077331543,28.11112403869629,-16.8077335357666,-0.623968780040741,-0.8489575386047363,-0.31798410415649414,-1.3944487571716309,1.8328896760940552,0.32727834582328796
182,24624,24626,-1.2419772148132324,-0.27659618854522705,1.0025386810302734,21.712148666381836,21.250146865844727,-18.071638107299805,-0.6314684152603149,-0.8594570159912109,-0.3224838674068451,-1.622915506362915,2.0929276943206787,0.1858629286289215
183,24634,24636,-0.46044668555259705,-0.8703357577323914,0.9718372821807861,19.947622299194336,17.006446838378906,-19.919666290283203,-0.6374680995941162,-0.8804559707641602,-0.3224838674068451,-1.7665637731552124,2.220538377761841,0.015837732702493668
184,24644,24646,-0.33361750841140747,-0.9195747971534729,0.8491911888122559,17.116228103637695,12.884273529052734,-21.40234375,-0.6374680995941162,-0.8564571738243103,-0.3134843111038208,-2.0351576805114746,2.4464354515075684,-0.21441058814525604
185,24654,24656,-1.2721465826034546,-0.33152008056640625,0.924399197101593,2.910607099533081,-1.4902323484420776,-18.590423583984375,-0.6344682574272156,-0.8654567003250122,-0.32848358154296875,-1.972904086112976,2.5497419834136963,-0.37991026043891907
186,24664,24666,-0.6021270155906677,-0.1583968847990036,0.970189094543457,-15.334342956542969,-16.137041091918945,-17.731307983398438,-0.6299684643745422,-0.8609569072723389,-0.31798410415649414,-1.760653018951416,2.4120266437530518,-0.5443075895309448
187,24674,24676,-0.4606420695781708,-0.18922953307628632,1.038583517074585,-30.995223999023438,-21.690780639648438,-16.245492935180664,-0.6134693026542664,-0.8804559707641602,-0.30748462677001953,-1.464498519897461,2.0025436878204346,-0.716657817363739
188,24684,24686,-0.582965612411499,-0.5329551696777344,0.9391831755638123,-37.409305572509766,-29.79717254638672,-14.283268928527832,-0.6194689869880676,-0.8744562864303589,-0.3224838674068451,-1.348570704460144,1.8551784753799438,-0.8824173212051392
189,24694,24696,-0.7330145239830017,-0.4656848907470703,0.9441466927528381,-38.60061264038086,-17.51286506652832,-13.28048324584961,-0.623968780040741,-0.8669566512107849,-0.3209839463233948,-1.253507375717163,1.3330883979797363,-1.0830663442611694
190,24704,24706,-0.24307142198085785,-0.016010889783501625,0.8875038623809814,-36.56435775756836,-14.271185874938965,-9.340882301330566,-0.6149692535400391,-0.8669566512107849,-0.32698363065719604,-0.961950421333313,0.7581056952476501,-1.1937944889068604
191,24714,24716,-0.4466545581817627,0.08079244941473007,1.0387141704559326,-30.784374237060547,-11.821224212646484,-8.201788902282715,-0.6044697761535645,-0.8684565424919128,-0.32848358154296875,-0.9096044301986694,0.4224565327167511,-1.3173021078109741
192,24724,24726,-0.6746580600738525,-0.0003204845415893942,1.074854850769043,-9.55625057220459,-14.50635051727295,-4.4995856285095215,-0.6074696183204651,-0.8594570159912109,-0.30748462677001953,-0.6470194458961487,0.4445129930973053,-1.3074063062667847
193,24734,24736,-0.2554202377796173,-0.29820069670677185,1.0573525428771973,5.4862542152404785,-10.021637916564941,-2.43819260597229,-0.6089695692062378,-0.8579570651054382,-0.32998350262641907,-0.5093532800674438,0.5713265538215637,-1.3155361413955688
194,24744,24746,-0.05320549011230469,0.10175731778144836,0.9206376671791077,19.0241756439209,-10.52487564086914,0.5374498963356018,-0.6119694113731384,-0.8669566512107849,-0.3119843900203705,-0.5115687847137451,0.7890099883079529,-1.3440998792648315
195,24754,24756,-0.08290552347898483,0.013010841794312,1.0953640937805176,16.142972946166992,-9.391236305236816,2.394068717956543,-0.6089695692062378,-0.8819558620452881,-0.31798410415649414,-0.29151129722595215,0.9133394360542297,-1.3174223899841309
196,24764,24766,-0.08707228302955627,0.11079027503728867,1.096215844154358,15.489629745483398,-8.857800483703613,3.1051723957061768,-0.623968780040741,-0.8789560198783875,-0.3119843900203705,-0.11513037979602814,1.0995405912399292,-1.2688509225845337
197,24774,24776,-0.7047681212425232,-0.191067636013031,1.1034305095672607,3.2952144145965576,-7.325361728668213,4.42918586730957,-0.5879706144332886,-0.8909554481506348,-0.32998350262641907,-0.0329291969537735,1.2185367345809937,-1.2307108640670776
198,24784,24786,-0.31177252531051636,-0.04683048650622368,1.1235368251800537,-12.241110801696777,3.9584646224975586,3.478145122528076,-0.5954701900482178,-0.8744562864303589,-0.3134843111038208,-0.008378404192626476,0.9498069286346436,-1.2114284038543701
199,24794,24796,-0.17972321808338165,-0.2867640256881714,1.0164088010787964,-21.130491256713867,12.854143142700195,2.926466703414917,-0.6044697761535645,-0.8744562864303589,-0.31948402523994446,-0.1296125054359436,0.7065630555152893,-1.194088101387024
200,24804,24806,-0.48165953159332275,-0.4663025736808777,1.0034006834030151,-31.221330642700195,17.681915283203125,2.4289586544036865,-0.6014699339866638,-0.8714563846588135,-0.3254837095737457,-0.34489941596984863,0.5155234336853027,-1.1732721328735352
201,24814,24816,-0.7609390020370483,-0.341922402381897,0.9974507689476013,-30.272706985473633,22.492748260498047,1.0043840408325195,-0.5939702987670898,-0.8609569072723389,-0.3209839463233948,-0.5873015522956848,0.20383121073246002,-1.1608326435089111
202,24824,24826,-0.34782397747039795,-0.30210208892822266,1.0057471990585327,-23.500179290771484,16.582040786743164,2.857243299484253,-0.6074696183204651,-0.8744562864303589,-0.3254837095737457,-0.9242318272590637,-0.22422149777412415,-1.1668788194656372
203,24834,24836,-0.34922701120376587,-0.012651187367737293,0.93891441822052,-14.787992477416992,13.576470375061035,0.08110376447439194,-0.6134693026542664,-0.8654567003250122,-0.3224838674068451,-1.1496427059173584,-0.17851875722408295,-1.143182396888733
204,24844,24846,-0.26410260796546936,-0.08172936737537384,1.0460608005523682,-7.994233131408691,-1.3774951696395874,-0.7734951376914978,-0.6119694113731384,-0.8729563355445862,-0.3329833447933197,-1.1675763130187988,-0.2239914834499359,-1.136454463005066
205,24854,24856,-0.09683182835578918,-0.20430025458335876,1.0283288955688477,-2.6769425868988037,-13.015450477600098,-0.6093851327896118,-0.5924703478813171,-0.8774561285972595,-0.3314834237098694,-0.9995279312133789,-0.04936473071575165,-1.121533751487732
206,24864,24866,-0.2696608304977417,-0.32247719168663025,1.0523630380630493,-1.851108431816101,-27.363279342651367,-0.679436206817627,-0.6179690957069397,-0.8699564933776855,-0.33598318696022034,-0.6285560727119446,-0.1347392499446869,-1.118789553642273
207,24874,24876,-0.274433970451355,-0.20173460245132446,1.0277340412139893,0.6599336862564087,-38.293548583984375,-1.2691081762313843,-0.5894705057144165,-0.8834558129310608,-0.32848358154296875,-0.3734106421470642,-0.1792885810136795,-1.1358143091201782
208,24884,24886,-0.44759848713874817,-0.18297094106674194,1.1481904983520508,-1.1497670412063599,-35.89490509033203,0.11801883578300476,-0.5999699831008911,-0.8849557638168335,-0.34498274326324463,0.17032960057258606,-0.10399147123098373,-1.1313461065292358
209,24894,24896,-0.5023941397666931,0.05159291625022888,1.1175055503845215,0.7472579479217529,-31.408693313598633,-0.8964208960533142,-0.5894705057144165,-0.8834558129310608,-0.31948402523994446,0.5080382823944092,-0.14905023574829102,-1.1388856172561646
210,24904,24906,-0.5430757403373718,0.06051050126552582,1.0867921113967896,-3.789807081222534,-20.947755813598633,-0.6022104024887085,-0.5939702987670898,-0.8699564933776855,-0.3239837884902954,0.513839840888977,-0.15188254415988922,-1.1420862674713135
211,24914,24916,-0.38723477721214294,0.03322980925440788,1.001505732536316,-6.497859477996826,-15.773438453674316,-1.9931656122207642,-0.5894705057144165,-0.8834558129310608,-0.33448326587677,0.8469219207763672,-0.27517905831336975,-1.1596872806549072
212,24924,24926,-0.15504564344882965,-0.15458080172538757,1.055824875831604,-10.135610580444336,-11.294330596923828,-0.6381456255912781,-0.5924703478813171,-0.8834558129310608,-0.3254837095737457,1.0033423900604248,-0.45940080285072327,-1.1772410869598389
213,24934,24936,-0.06713308393955231,-0.02420971542596817,1.0554596185684204,-5.630804061889648,-4.906239986419678,-0.01444868091493845,-0.5894705057144165,-0.8684565424919128,-0.3254837095737457,1.0523561239242554,-0.5338548421859741,-1.1822874546051025
214,24944,24946,-0.00514725036919117,0.16176508367061615,1.0165807008743286,-0.09250785410404205,-5.172910213470459,1.2268210649490356,-0.5879706144332886,-0.8759561777114868,-0.32698363065719604,1.0352513790130615,-0.5157387256622314,-1.1757780313491821
215,24954,24956,-0.38728365302085876,0.05056638643145561,1.144208312034607,1.1739294528961182,-0.8143150806427002,-0.8811691403388977,-0.5999699831008911,-0.8759561777114868,-0.341982901096344,1.1023588180541992,-0.5308806300163269,-1.1734737157821655
216,24964,24966,-0.09389594942331314,-0.001019046874716878,1.041759729385376,3.7986598014831543,-7.567255020141602,0.8036003112792969,-0.5909704566001892,-0.8669566512107849,-0.32698363065719604,1.2020374536514282,-0.5059819221496582,-1.1746240854263306
217,24974,24976,-0.1723065972328186,-0.17549778521060944,1.1291061639785767,3.292281150817871,-5.130656719207764,2.920081615447998,-0.5999699831008911,-0.8639568090438843,-0.32698363065719604,1.2969822883605957,-0.4882919490337372,-1.159119963645935
218,24984,24986,-0.2453097701072693,-0.027673013508319855,1.1376802921295166,11.088618278503418,-1.0686125755310059,4.579456806182861,-0.5894705057144165,-0.8804559707641602,-0.3224838674068451,1.3289846181869507,-0.37406155467033386,-1.1323649883270264
219,24994,24996,-0.17026586830615997,0.015633869916200638,1.0808900594711304,11.62100887298584,7.530869960784912,3.663712501525879,-0.5894705057144165,-0.8744562864303589,-0.3314834237098694,1.2375569343566895,-0.23886461555957794,-1.0904287099838257
220,25004,25006,-0.07011277228593826,0.016755685210227966,1.088204026222229,18.168426513671875,12.01624584197998,1.5990716218948364,-0.6044697761535645,-0.8834558129310608,-0.33448326587677,1.048993468284607,-0.012285590171813965,-1.0642105340957642
221,25014,25016,-0.4676084816455841,-0.019786402583122253,1.078015685081482,20.402912139892578,15.068897247314453,1.22991144657135,-0.6059696674346924,-0.8729563355445862,-0.3239837884902954,1.027294635772705,0.20170824229717255,-1.0665439367294312
222,25024,25026,-0.4723721146583557,-0.4032520651817322,1.100961446762085,17.704179763793945,17.607084274291992,0.6141707301139832,-0.5984700918197632,-0.8804559707641602,-0.31948402523994446,1.0222358703613281,0.32675522565841675,-1.0664423704147339
223,25034,25036,-0.2698989510536194,-0.629340648651123,1.057442307472229,7.728717803955078,20.283992767333984,0.9260067343711853,-0.5984700918197632,-0.8654567003250122,-0.3314834237098694,0.670091450214386,0.41192618012428284,-1.0249886512756348
224,25044,25046,-0.1924997866153717,-0.14500994980335236,1.0739617347717285,-4.380263805389404,20.275365829467773,-0.5533772706985474,-0.5999699831008911,-0.8819558620452881,-0.341982901096344,0.41010865569114685,0.37807974219322205,-1.0010813474655151
225,25054,25056,-0.05530788004398346,0.008334924466907978,1.048215389251709,-21.82840919494629,20.092906951904297,-3.3406615257263184,-0.6014699339866638,-0.8714563846588135,-0.3404829800128937,0.13977912068367004,0.1080390065908432,-0.9864997267723083
226,25064,25066,-0.2829733192920685,-0.14574579894542694,1.1474072933197021,-32.23162078857422,20.35686683654785,-3.431267738342285,-0.6059696674346924,-0.8759561777114868,-0.32698363065719604,-0.1699727177619934,-0.29236364364624023,-0.9766578674316406
227,25074,25076,-0.659411609172821,-0.4635365307331085,1.0624369382858276,-31.157882690429688,21.09444236755371,-4.119512557983398,-0.6014699339866638,-0.8564571738243103,-0.32848358154296875,-0.42673245072364807,-0.6085171699523926,-1.0089640617370605
228,25084,25086,-0.5206219553947449,-0.28150975704193115,1.0779329538345337,-21.651803970336914,17.148523330688477,-1.9694503545761108,-0.6149692535400391,-0.8639568090438843,-0.3149842321872711,-0.35724252462387085,-0.9009121656417847,-1.0686957836151123
229,25094,25096,-0.046237457543611526,-0.009947247803211212,0.9877433776855469,-4.2136030197143555,9.987680435180664,-0.667618453502655,-0.6104694604873657,-0.8594570159912109,-0.3224838674068451,-0.44312599301338196,-0.9482213258743286,-1.106837272644043
230,25104,25106,-0.05593691021203995,0.08100960403680801,0.9998934864997864,12.994300842285156,6.775670051574707,1.4446473121643066,-0.6074696183204651,-0.8534573316574097,-0.3134843111038208,-0.45898735523223877,-0.8501173257827759,-1.1218150854110718
231,25114,25116,-0.045083366334438324,-0.1996474713087082,1.0638870000839233,27.297279357910156,-0.5315552949905396,2.415450096130371,-0.6134693026542664,-0.8564571738243103,-0.3164841830730438,-0.3845703899860382,-0.49918755888938904,-1.145174264907837
232,25124,25126,-0.05944015458226204,-0.08866828680038452,1.0228055715560913,33.59932327270508,1.916881799697876,3.1508638858795166,-0.6194689869880676,-0.8624568581581116,-0.3224838674068451,-0.46704521775245667,-0.14344778656959534,-1.1173715591430664
233,25134,25136,-0.2731906473636627,-0.23431654274463654,1.0728907585144043,26.433631896972656,-9.397272109985352,5.736087322235107,-0.6074696183204651,-0.8744562864303589,-0.3224838674068451,-0.4179609715938568,0.1821906864643097,-1.082104206085205
234,25144,25146,-0.5432106256484985,-0.445840060710907,1.0248819589614868,11.890368461608887,-8.751017570495605,5.381981372833252,-0.6119694113731384,-0.8789560198783875,-0.3209839463233948,-0.33135589957237244,0.3738822638988495,-1.032002329826355
235,25154,25156,-0.27020931243896484,-0.47734925150871277,1.0705182552337646,-7.244185924530029,-6.913037300109863,8.396677017211914,-0.6119694113731384,-0.8759561777114868,-0.32698363065719604,-0.23834346234798431,0.3449718952178955,-0.9609445929527283
236,25164,25166,-0.11917196959257126,-0.2385706603527069,1.058461308479309,-24.494861602783203,-5.155117511749268,9.346634864807129,-0.6029698252677917,-0.8489575386047363,-0.3209839463233948,-0.1640668511390686,0.03208216279745102,-0.8616026043891907
237,25174,25176,-0.20054960250854492,0.03281561657786369,1.0351834297180176,-31.633007049560547,-8.879998207092285,11.040074348449707,-0.6044697761535645,-0.844457745552063,-0.3314834237098694,-0.06014619395136833,-0.31946203112602234,-0.7626650333404541
238,25184,25186,-0.20937877893447876,0.0775429904460907,1.052558422088623,-30.927539825439453,-0.5271689295768738,11.571573257446289,-0.5954701900482178,-0.8624568581581116,-0.3164841830730438,-0.016485918313264847,-0.7039350271224976,-0.6472485661506653
239,25194,25196,-0.2987001836299896,0.13990075886249542,1.028742790222168,-18.537506103515625,3.5439460277557373,10.368354797363281,-0.6119694113731384,-0.8429578542709351,-0.3119843900203705,-0.0847056433558464,-0.8740179538726807,-0.5347853899002075
240,25204,25206,-0.7851682305335999,-0.01811075396835804,1.0354846715927124,-6.266036033630371,0.10364804416894913,12.386670112609863,-0.6074696183204651,-0.850457489490509,-0.3164841830730438,-0.13237887620925903,-0.9276763200759888,-0.41870495676994324
241,25214,25216,-0.48843637108802795,0.021255306899547577,1.014774203300476,7.984189510345459,-0.1988474726676941,14.495542526245117,-0.6134693026542664,-0.8564571738243103,-0.31948402523994446,-0.15995316207408905,-0.8246793150901794,-0.2855176627635956
242,25224,25226,-0.17933261394500732,-0.18745440244674683,1.0602924823760986,15.9666748046875,-7.491982936859131,16.10919952392578,-0.6119694113731384,-0.8579570651054382,-0.3119843900203705,-0.12497454881668091,-0.6270610094070435,-0.1409207582473755
243,25234,25236,-0.16015319526195526,-0.5894981622695923,1.0627789497375488,20.54720687866211,2.4839489459991455,14.901951789855957,-0.6119694113731384,-0.851957380771637,-0.3209839463233948,-0.02374132350087166,-0.4194296598434448,-0.005918389651924372
244,25244,25246,-0.2511645555496216,-0.4103403091430664,1.036571741104126,22.456695556640625,1.0133341550827026,13.723724365234375,-0.616469144821167,-0.8474575877189636,-0.3134843111038208,-0.08580920845270157,-0.2891053855419159,0.15141941606998444
245,25254,25256,-0.16532385349273682,-0.06780297309160233,0.9928601980209351,19.69289779663086,-1.5167346000671387,10.918079376220703,-0.616469144821167,-0.8474575877189636,-0.3134843111038208,-0.1054673120379448,0.038865432143211365,0.27515795826911926
246,25264,25266,-0.06390871107578278,-0.055754221975803375,0.992825448513031,10.08379077911377,-1.802577018737793,7.7043561935424805,-0.616469144821167,-0.8474575877189636,-0.3134843111038208,-0.10753364115953445,0.10162805020809174,0.37839704751968384
247,25274,25276,-0.09578637033700943,-0.10755591839551926,0.9953125715255737,2.2638845443725586,-9.345638275146484,5.797822952270508,-0.6149692535400391,-0.8339582681655884,-0.30898454785346985,-0.04029279947280884,0.03551741689443588,0.45336925983428955
248,25284,25286,-0.2606118321418762,-0.31390380859375,0.9989768266677856,-7.686651706695557,-8.098076820373535,5.661733627319336,-0.6194689869880676,-0.850457489490509,-0.3014849126338959,0.06486134976148605,-0.04022787883877754,0.5112712979316711
249,25294,25296,-0.30431514978408813,-0.26949554681777954,0.9971599578857422,-11.771591186523438,-5.922679901123047,6.4701972007751465,-0.6104694604873657,-0.8474575877189636,-0.30748462677001953,0.14615260064601898,-0.008790133520960808,0.5603229999542236
250,25304,25306,-0.13791032135486603,-0.09950994700193405,0.9895240664482117,-14.124913215637207,6.430988311767578,3.207683801651001,-0.616469144821167,-0.8324583768844604,-0.3044847846031189,0.08308087289333344,-0.24787788093090057,0.6170022487640381
251,25314,25316,-0.09948669373989105,0.003214653581380844,1.0208196640014648,-10.008353233337402,16.24880027770996,2.5380773544311523,-0.5999699831008911,-0.8279585838317871,-0.30898454785346985,-0.14917756617069244,-0.3075146973133087,0.6566125154495239
252,25324,25326,-0.05943627655506134,0.11004282534122467,0.9543513655662537,-4.536724090576172,27.076154708862305,2.4056355953216553,-0.6254687309265137,-0.8294585347175598,-0.30748462677001953,-0.4091910123825073,-0.2872568964958191,0.681283175945282
253,25334,25336,-0.25195103883743286,-0.4524778425693512,0.9478440284729004,-2.571113109588623,24.22257423400879,3.672978162765503,-0.6254687309265137,-0.8234587907791138,-0.3044847846031189,-0.6850773692131042,-0.3568648099899292,0.7146674394607544
254,25344,25346,-0.25081971287727356,-0.6498517394065857,0.897836446762085,2.4278147220611572,18.81373405456543,4.571120738983154,-0.6209689378738403,-0.836958110332489,-0.3029848337173462,-0.6927088499069214,-0.42293581366539,0.7321721911430359
255,25354,25356,-0.34895557165145874,-0.19190861284732819,0.8984500765800476,5.453205585479736,7.855434894561768,5.183126449584961,-0.6149692535400391,-0.8339582681655884,-0.29998499155044556,-0.7686851620674133,-0.4282917082309723,0.7763192057609558
256,25364,25366,-0.5737295746803284,-0.010406200774013996,0.959904134273529,8.586012840270996,1.2717190980911255,4.763754367828369,-0.6254687309265137,-0.8414579033851624,-0.30748462677001953,-0.8330163955688477,-0.3755558729171753,0.8404447436332703
257,25374,25376,-0.2420278787612915,-0.13758482038974762,1.0206657648086548,14.991119384765625,2.540828227996826,4.821991443634033,-0.6119694113731384,-0.8339582681655884,-0.3119843900203705,-0.7569770216941833,-0.17302340269088745,0.8781613111495972
258,25384,25386,-0.7022327184677124,-0.22878548502922058,1.0119787454605103,17.548412322998047,1.029260516166687,5.57189416885376,-0.6119694113731384,-0.8399580121040344,-0.3209839463233948,-0.799309253692627,-0.046672273427248,0.9312595129013062
259,25394,25396,-0.9690935015678406,-0.13518346846103668,1.109390139579773,18.320354461669922,-0.7941951155662537,7.441736698150635,-0.6179690957069397,-0.8459576964378357,-0.3209839463233948,-0.8328168988227844,0.17605656385421753,0.9977830052375793
260,25404,25406,-1.1289372444152832,-0.49495747685432434,1.0675626993179321,15.692307472229004,-3.8412280082702637,9.047797203063965,-0.6104694604873657,-0.8564571738243103,-0.3224838674068451,-0.815455436706543,0.38277435302734375,1.07582688331604
261,25414,25416,-0.9421579837799072,-0.20107561349868774,0.9906894564628601,11.689976692199707,-3.2585248947143555,9.807293891906738,-0.6134693026542664,-0.8474575877189636,-0.3134843111038208,-0.7818751335144043,0.4572465121746063,1.167463779449463
262,25424,25426,-0.5869216918945312,0.0584663562476635,1.0466800928115845,1.5447587966918945,-1.8928234577178955,11.192902565002441,-0.616469144821167,-0.8594570159912109,-0.31948402523994446,-0.7497438788414001,0.5463709235191345,1.277098298072815
263,25434,25436,-0.30292922258377075,0.0881844162940979,1.0618669986724854,-10.300043106079102,-2.2802135944366455,14.053339004516602,-0.6029698252677917,-0.8489575386047363,-0.3209839463233948,-0.7246207594871521,0.4536329507827759,1.4040544033050537
264,25444,25446,-0.04839770123362541,0.08053717017173767,1.0087929964065552,-23.63602638244629,-1.7190295457839966,15.51024055480957,-0.616469144821167,-0.8534573316574097,-0.3134843111038208,-0.6931857466697693,0.15369892120361328,1.5496562719345093
265,25454,25456,-0.0297350212931633,-0.10233250260353088,0.9687419533729553,-33.32691955566406,0.3530084788799286,14.999842643737793,-0.6074696183204651,-0.8384580612182617,-0.30748462677001953,-0.7061673998832703,-0.2504846751689911,1.6963951587677002
266,25464,25466,-0.13283255696296692,-0.2934068739414215,0.9485480785369873,-37.35136795043945,-3.7323997020721436,15.221540451049805,-0.6059696674346924,-0.836958110332489,-0.3119843900203705,-0.6950550079345703,-0.3990517556667328,1.8660991191864014
267,25474,25476,-0.2150217890739441,-0.2570295035839081,0.9782253503799438,-36.75613784790039,-9.455759048461914,16.34523582458496,-0.6059696674346924,-0.8429578542709351,-0.30898454785346985,-0.5982767939567566,-0.8609328269958496,2.018784523010254
268,25484,25486,-0.9236537218093872,-0.3503280580043793,1.0607554912567139,-33.22929763793945,-5.237362384796143,17.158823013305664,-0.6194689869880676,-0.8324583768844604,-0.30748462677001953,-0.517717719078064,-1.4211560487747192,2.17348575592041
269,25494,25496,-0.5044145584106445,-0.20860078930854797,1.0166667699813843,-24.19048500061035,4.1001691818237305,15.030723571777344,-0.6149692535400391,-0.8189590573310852,-0.2969851493835449,-0.5665678977966309,-1.6426186561584473,2.3387889862060547
270,25504,25506,-0.3282248377799988,-0.3972274661064148,0.9821594953536987,-10.28589153289795,11.581582069396973,13.567185401916504,-0.6059696674346924,-0.8339582681655884,-0.2939853072166443,-0.7907224297523499,-1.808910608291626,2.494736909866333
271,25514,25516,-0.3349548876285553,-0.1919640451669693,0.9365745782852173,6.926064968109131,22.748310089111328,11.411314010620117,-0.616469144821167,-0.8204589486122131,-0.30748462677001953,-1.0237202644348145,-1.7761530876159668,2.6229872703552246
272,25524,25526,-0.15192687511444092,0.14019466936588287,0.9627203345298767,18.836360931396484,28.46994400024414,8.317704200744629,-0.6359682083129883,-0.8279585838317871,-0.2939853072166443,-1.3737651109695435,-1.5213382244110107,2.732619285583496
273,25534,25536,-0.7509114146232605,-0.39185553789138794,0.9935073852539062,27.39739227294922,24.713611602783203,5.675978660583496,-0.6254687309265137,-0.8354582190513611,-0.31048446893692017,-1.3534451723098755,-1.1738717555999756,2.766047477722168
274,25544,25546,-0.39543747901916504,-0.263784259557724,0.9361173510551453,33.93566131591797,19.273883819580078,2.4402310848236084,-0.6194689869880676,-0.8324583768844604,-0.30748462677001953,-1.7052326202392578,-0.7802033424377441,2.8331398963928223
275,25554,25556,-0.05998342111706734,0.03357778117060661,0.9527003169059753,35.16372299194336,10.882247924804688,-0.36070945858955383,-0.6329683661460876,-0.836958110332489,-0.3149842321872711,-1.9343807697296143,-0.3450714647769928,2.862203598022461
276,25564,25566,-0.04025188460946083,0.04901004210114479,0.9707276821136475,29.73098373413086,0.8788002133369446,-3.125687837600708,-0.6194689869880676,-0.8324583768844604,-0.30748462677001953,-1.654758095741272,-0.17302237451076508,2.7574079036712646
277,25574,25576,-0.017330225557088852,0.06849633157253265,1.0070178508758545,18.777420043945312,-4.486733436584473,-7.139296531677246,-0.6209689378738403,-0.836958110332489,-0.3119843900203705,-1.60870361328125,0.07269900292158127,2.6995255947113037
278,25584,25586,-0.12473674863576889,0.0728529840707779,1.0217379331588745,5.356055736541748,-16.217395782470703,-8.121729850769043,-0.623968780040741,-0.8189590573310852,-0.3209839463233948,-1.4025189876556396,0.1815076321363449,2.6115119457244873
279,25594,25596,-0.4365057647228241,-0.08016373962163925,0.9559628367424011,-8.197765350341797,-22.873180389404297,-10.984411239624023,-0.6134693026542664,-0.8354582190513611,-0.31048446893692017,-1.139166235923767,0.07168084383010864,2.4890334606170654
280,25604,25606,-0.25460487604141235,0.0473761223256588,1.0276267528533936,-17.861013412475586,-24.15909767150879,-11.149812698364258,-0.6149692535400391,-0.8309584259986877,-0.3059847056865692,-0.8992927670478821,-0.14756062626838684,2.3611667156219482
281,25614,25616,-0.03206801041960716,0.08570178598165512,0.9564095139503479,-20.170454025268555,-18.590150833129883,-12.733362197875977,-0.6104694604873657,-0.8354582190513611,-0.3164841830730438,-0.843811571598053,-0.45365020632743835,2.2410850524902344
282,25624,25626,-0.16418074071407318,0.08664211630821228,0.9540359377861023,-15.70169448852539,-8.584444046020508,-12.05554485321045,-0.6104694604873657,-0.844457745552063,-0.31048446893692017,-0.6855487823486328,-0.5712184309959412,2.128706455230713
283,25634,25636,-0.3097062408924103,0.025067679584026337,1.0014708042144775,-5.692683696746826,-5.594807147979736,-10.938871383666992,-0.6104694604873657,-0.8354582190513611,-0.3014849126338959,-0.627423107624054,-0.6874806880950928,2.0191361904144287
284,25644,25646,-0.29518967866897583,-0.03395043686032295,1.0171773433685303,2.5712900161743164,-5.453084945678711,-8.994876861572266,-0.6209689378738403,-0.8279585838317871,-0.29998499155044556,-0.5448377728462219,-0.6548414826393127,1.9276987314224243
285,25654,25656,-0.520872950553894,0.014242780394852161,0.9566336274147034,7.0856499671936035,-1.8414479494094849,-7.16480016708374,-0.6194689869880676,-0.8354582190513611,-0.29848507046699524,-0.6675313711166382,-0.5403193235397339,1.8757266998291016
286,25664,25666,-0.9180747270584106,-0.24108614027500153,0.8675603270530701,14.748798370361328,-4.7866058349609375,-7.127695083618164,-0.6149692535400391,-0.836958110332489,-0.3059847056865692,-0.6153829097747803,-0.4033108651638031,1.8045790195465088
287,25674,25676,-0.35889676213264465,-0.2650240659713745,0.8890470266342163,20.30455780029297,-11.188873291015625,-5.853823661804199,-0.6149692535400391,-0.8339582681655884,-0.3059847056865692,-0.5284124612808228,-0.15495148301124573,1.7477855682373047
288,25684,25686,-0.060680631548166275,-0.056937407702207565,0.9465539455413818,21.92681312561035,-15.079781532287598,-3.223794460296631,-0.6029698252677917,-0.836958110332489,-0.3029848337173462,-0.6295673251152039,-0.13823126256465912,1.7016870975494385
289,25694,25696,-0.8088759183883667,-0.15946072340011597,1.0292357206344604,19.252687454223633,-14.265331268310547,-2.207139015197754,-0.6134693026542664,-0.850457489490509,-0.30748462677001953,-0.34769824147224426,0.03168275207281113,1.6505476236343384
290,25704,25706,-0.8074895143508911,-0.19098880887031555,1.040579080581665,20.188276290893555,-5.381911754608154,-2.695322036743164,-0.6119694113731384,-0.851957380771637,-0.3239837884902954,-0.3449195325374603,0.24575622379779816,1.6365622282028198
291,25714,25716,-0.17417767643928528,-0.09506532549858093,1.0148439407348633,20.98796272277832,-1.765067219734192,-1.9535202980041504,-0.6134693026542664,-0.8564571738243103,-0.3164841830730438,-0.4090319275856018,0.5449619293212891,1.6323691606521606
292,25724,25726,-0.5470561385154724,-0.02327088452875614,1.0153552293777466,21.13948631286621,2.323744535446167,-0.4857797622680664,-0.6119694113731384,-0.8669566512107849,-0.30898454785346985,-0.3886285126209259,0.7767168879508972,1.621880292892456
293,25734,25736,-0.7226305603981018,0.05357854440808296,0.9380829930305481,16.19031524658203,5.29646635055542,1.184767484664917,-0.6014699339866638,-0.844457745552063,-0.31948402523994446,-0.4101462662220001,0.7504591941833496,1.6068115234375
294,25744,25746,-0.4893485903739929,0.0028566138353198767,0.966567873954773,13.669410705566406,3.906097650527954,2.3722527027130127,-0.6029698252677917,-0.8549572229385376,-0.3149842321872711,-0.41074612736701965,1.0284138917922974,1.635452389717102
295,25754,25756,-0.23641227185726166,-0.1693364828824997,1.0433268547058105,9.121737480163574,-3.817286729812622,4.770570278167725,-0.5954701900482178,-0.8684565424919128,-0.31048446893692017,-0.3908812403678894,0.9666449427604675,1.6631675958633423
296,25764,25766,-0.5732415914535522,-0.6073156595230103,0.9801177978515625,6.069284439086914,-7.9598846435546875,6.726715087890625,-0.6044697761535645,-0.8624568581581116,-0.3224838674068451,-0.29209813475608826,1.072141408920288,1.7261463403701782
297,25774,25776,-0.9063300490379333,-0.6712326407432556,0.9202470183372498,0.767960250377655,-4.339465618133545,5.909924507141113,-0.5984700918197632,-0.8654567003250122,-0.32848358154296875,-0.21311892569065094,1.1567643880844116,1.7912769317626953
298,25784,25786,-0.5867488384246826,-0.4452650249004364,0.9315612316131592,-1.8325546979904175,-2.185046911239624,5.217093467712402,-0.5999699831008911,-0.8699564933776855,-0.32698363065719604,-0.1889198273420334,1.1777968406677246,1.8496800661087036
299,25794,25796,-0.12095072865486145,-0.06838764250278473,0.9295084476470947,0.03879283368587494,-5.469564437866211,5.387372016906738,-0.5984700918197632,-0.8654567003250122,-0.33448326587677,-0.15478810667991638,1.188834547996521,1.9054404497146606
300,25804,25806,-0.012008336372673512,0.0406094454228878,0.9064049124717712,4.382532596588135,-11.482608795166016,5.405447959899902,-0.6059696674346924,-0.8759561777114868,-0.3149842321872711,-0.047663114964962006,1.1855671405792236,1.959031581878662
301,25814,25816,-0.014822140336036682,-0.0696704089641571,0.8995116949081421,10.852996826171875,-20.743179321289062,4.0375895500183105,-0.6014699339866638,-0.8744562864303589,-0.3254837095737457,0.19832706451416016,1.3517110347747803,2.0073931217193604
302,25824,25826,-0.16430240869522095,0.023706315085291862,0.9593735933303833,16.18143081665039,-28.89236068725586,2.8688271045684814,-0.6089695692062378,-0.8759561777114868,-0.3119843900203705,0.5115534067153931,1.5398555994033813,2.041517734527588
303,25834,25836,-0.16903500258922577,0.006201548967510462,1.0286612510681152,20.12832260131836,-29.669525146484375,2.5260355472564697,-0.5939702987670898,-0.8699564933776855,-0.3329833447933197,0.6028269529342651,1.5746935606002808,2.0380046367645264
304,25844,25846,-0.11285119503736496,0.17206412553787231,1.00283944606781,16.548795700073242,-27.172117233276367,2.97011399269104,-0.5984700918197632,-0.8714563846588135,-0.3254837095737457,0.96591717004776,1.8289382457733154,2.0676016807556152
305,25854,25856,-0.11866747587919235,-0.007931279018521309,0.9745437502861023,8.852622985839844,-22.12529754638672,1.5149582624435425,-0.5924703478813171,-0.8684565424919128,-0.3224838674068451,1.1837873458862305,1.8357220888137817,2.084697961807251
306,25864,25866,-0.04502023756504059,-0.18360130488872528,0.9256091117858887,-2.8707385063171387,-13.97802734375,1.4909911155700684,-0.6029698252677917,-0.8759561777114868,-0.3329833447933197,1.3506931066513062,1.8863292932510376,2.094315767288208
307,25874,25876,-0.14510400593280792,-0.20691487193107605,1.0294630527496338,-13.352170944213867,-0.679510772228241,-0.19824275374412537,-0.5909704566001892,-0.8789560198783875,-0.31798410415649414,1.2669044733047485,1.7598875761032104,2.079577684402466
308,25884,25886,-0.3521648943424225,-0.07521414011716843,1.0609056949615479,-22.34427833557129,17.24577522277832,-2.7808709144592285,-0.577471137046814,-0.8804559707641602,-0.3254837095737457,1.1156926155090332,1.46358323097229,2.0686612129211426
309,25894,25896,-0.1844034045934677,0.16146130859851837,1.1038354635238647,-28.603322982788086,26.97604751586914,-6.086216926574707,-0.6029698252677917,-0.8729563355445862,-0.31798410415649414,0.982563853263855,1.1977356672286987,2.0515525341033936
310,25904,25906,-0.15478819608688354,-0.07405289262533188,1.1012072563171387,-27.432432174682617,30.059396743774414,-7.767034530639648,-0.5954701900482178,-0.8684565424919128,-0.3314834237098694,0.5292341113090515,1.1148426532745361,1.9276056289672852
311,25914,25916,-0.19689242541790009,-0.024304844439029694,1.0435866117477417,-18.716598510742188,32.47195816040039,-9.62353229522705,-0.6059696674346924,-0.8759561777114868,-0.32998350262641907,0.17834822833538055,0.831586480140686,1.8471347093582153
312,25924,25926,-0.6421099305152893,-0.06260712444782257,1.1227778196334839,-8.067113876342773,22.861980438232422,-12.10733699798584,-0.6014699339866638,-0.8804559707641602,-0.31048446893692017,0.1866985410451889,0.7877771258354187,1.7928876876831055
313,25934,25936,-0.7733040452003479,-0.30243122577667236,1.0664265155792236,-0.9905996918678284,18.109317779541016,-12.747401237487793,-0.5954701900482178,-0.8594570159912109,-0.3224838674068451,-0.13511860370635986,0.7244250774383545,1.6484243869781494
314,25944,25946,-0.35905590653419495,-0.18983915448188782,1.0210462808609009,9.858765602111816,9.595721244812012,-11.19588851928711,-0.6119694113731384,-0.8639568090438843,-0.3149842321872711,-0.3093874156475067,0.8840138912200928,1.5037882328033447
315,25954,25956,-0.17639784514904022,-0.1516028344631195,1.0299205780029297,17.918174743652344,-3.575026512145996,-8.253623008728027,-0.6179690957069397,-0.8639568090438843,-0.3209839463233948,-0.21181580424308777,1.0547518730163574,1.4316880702972412
316,25964,25966,-0.09014705568552017,-0.23674887418746948,0.9982657432556152,21.2447566986084,-13.798047065734863,-6.890304088592529,-0.6104694604873657,-0.8744562864303589,-0.3224838674068451,-0.00796310044825077,1.3114944696426392,1.3716449737548828
317,25974,25976,0.03360728546977043,0.04890091344714165,1.0597516298294067,19.625032424926758,-19.352113723754883,-6.713037967681885,-0.6059696674346924,-0.8699564933776855,-0.3239837884902954,0.08793415874242783,1.626607894897461,1.271609902381897
318,25984,25986,-0.33893120288848877,-0.017280902713537216,1.1030572652816772,12.446844100952148,-19.907285690307617,-4.7830119132995605,-0.6014699339866638,-0.8624568581581116,-0.31948402523994446,0.38634371757507324,1.7157106399536133,1.2357841730117798
319,25994,25996,-0.6088213920593262,-0.07869027554988861,1.0944342613220215,3.3499197959899902,-14.04109001159668,-4.93719482421875,-0.6014699339866638,-0.8714563846588135,-0.31948402523994446,0.5285845994949341,1.740267276763916,1.185068130493164
320,26004,26006,-0.42491602897644043,-0.12013974040746689,1.1390856504440308,-6.204366683959961,-14.445027351379395,-2.2655389308929443,-0.5954701900482178,-0.8684565424919128,-0.31048446893692017,0.7299346923828125,1.6786915063858032,1.1645842790603638
321,26014,26016,-0.6710193157196045,-0.5948160290718079,1.1185176372528076,-19.794506072998047,-7.091503143310547,0.15020626783370972,-0.5924703478813171,-0.8654567003250122,-0.31948402523994446,0.8439942598342896,1.4224964380264282,1.1708213090896606
322,26024,26026,-0.19960546493530273,-0.34742969274520874,1.043042778968811,-25.98750114440918,1.1352580785751343,0.14157724380493164,-0.6134693026542664,-0.8654567003250122,-0.3254837095737457,0.823298990726471,1.1612412929534912,1.1668707132339478
323,26034,26036,-0.04292910546064377,-0.043197326362133026,0.9876392483711243,-25.330032348632812,4.197975158691406,1.0506291389465332,-0.6104694604873657,-0.8564571738243103,-0.3224838674068451,0.7845635414123535,0.8688035607337952,1.1769801378250122
324,26044,26046,-0.04753345996141434,-0.36493030190467834,0.936075747013092,-22.234819412231445,10.250054359436035,1.3253557682037354,-0.5999699831008911,-0.851957380771637,-0.3239837884902954,0.6422474980354309,0.6761760711669922,1.169521689414978
325,26054,26056,-1.1367679834365845,-0.4915626347064972,0.9964924454689026,-12.299018859863281,5.295345783233643,2.1521475315093994,-0.6044697761535645,-0.8414579033851624,-0.30748462677001953,0.5534316897392273,0.7448808550834656,1.1439707279205322
326,26064,26066,-0.5901235342025757,-0.19331583380699158,0.8838757276535034,-1.8913861513137817,3.4901010990142822,3.01993989944458,-0.6134693026542664,-0.844457745552063,-0.31948402523994446,0.49270954728126526,0.7561321258544922,1.1555440425872803
327,26074,26076,-0.5368150472640991,-0.17259478569030762,0.9147744178771973,5.350223541259766,-4.914988040924072,5.112127304077148,-0.6119694113731384,-0.8549572229385376,-0.29998499155044556,0.5492298603057861,0.763086199760437,1.207198143005371
328,26084,26086,-0.6073170900344849,-0.2977496087551117,0.9519798159599304,3.158355236053467,-2.554281711578369,5.28551721572876,-0.6059696674346924,-0.8609569072723389,-0.3209839463233948,0.5499187111854553,0.7907323837280273,1.2522079944610596
329,26094,26096,-0.43875712156295776,-0.43448060750961304,0.9369528293609619,-2.1004350185394287,-6.3230719566345215,5.464897155761719,-0.6104694604873657,-0.8474575877189636,-0.30748462677001953,0.6672666072845459,0.8254724144935608,1.314846158027649
330,26104,26106,-0.8640896677970886,-0.6167541146278381,0.982456386089325,-10.324453353881836,-4.894741058349609,6.508100509643555,-0.6119694113731384,-0.8639568090438843,-0.32698363065719604,0.7717508673667908,0.6689774394035339,1.398322582244873
331,26114,26116,-0.6710482239723206,-0.26551368832588196,0.9985218048095703,-22.446949005126953,4.521877288818359,6.118035316467285,-0.5909704566001892,-0.8579570651054382,-0.30898454785346985,0.7435479760169983,0.465693861246109,1.4641140699386597
332,26124,26126,-0.6929621696472168,-0.04196111112833023,1.026444911956787,-31.47212028503418,7.566514015197754,7.052131652832031,-0.5909704566001892,-0.8579570651054382,-0.30898454785346985,0.6604960560798645,0.25392934679985046,1.5166239738464355
333,26134,26136,-0.3743104636669159,-0.0614498108625412,1.0531036853790283,-35.83383560180664,17.898099899291992,6.256551265716553,-0.5909704566001892,-0.8579570651054382,-0.30898454785346985,0.43453630805015564,-0.14428070187568665,1.579988956451416
334,26144,26146,-0.06482721120119095,-0.021812550723552704,1.0506099462509155,-32.493629455566406,19.804780960083008,5.238480091094971,-0.6044697761535645,-0.8564571738243103,-0.3314834237098694,0.20146091282367706,-0.31936874985694885,1.6052756309509277
335,26154,26156,-0.10521496087312698,-0.16736933588981628,0.9719603657722473,-22.121414184570312,18.783348083496094,6.901828765869141,-0.5954701900482178,-0.8534573316574097,-0.32848358154296875,0.01749510131776333,-0.6566379070281982,1.6806883811950684
336,26164,26166,-0.25662630796432495,-0.24854989349842072,0.9129871726036072,-12.856436729431152,22.22196388244629,5.902177333831787,-0.6029698252677917,-0.8549572229385376,-0.3149842321872711,-0.19787296652793884,-0.7645666003227234,1.7310444116592407
337,26174,26176,-1.1337215900421143,-0.18521471321582794,1.0066118240356445,-5.115030288696289,15.363755226135254,5.124116897583008,-0.6104694604873657,-0.8624568581581116,-0.31948402523994446,-0.3548818528652191,-0.8052708506584167,1.7793877124786377
338,26184,26186,-0.8742778897285461,-0.06901116669178009,1.1063517332077026,-0.78492271900177,8.016307830810547,3.076657295227051,-0.6104694604873657,-0.850457489490509,-0.3134843111038208,-0.31487059593200684,-0.9042946696281433,1.8339191675186157
339,26194,26196,-0.1579378843307495,0.05242771655321121,1.1113332509994507,5.928250789642334,0.3729815185070038,-1.373958945274353,-0.6134693026542664,-0.8414579033851624,-0.3134843111038208,-0.5107752680778503,-0.8183619976043701,1.8288131952285767
340,26204,26206,0.017652003094553947,0.09511196613311768,1.0857387781143188,8.051227569580078,-13.464665412902832,-1.1362107992172241,-0.6104694604873657,-0.8564571738243103,-0.31948402523994446,-0.35575565695762634,-0.7396382093429565,1.8176873922348022
341,26214,26216,-0.10909701883792877,-0.3515002429485321,1.038737177848816,4.4383111000061035,-15.9421968460083,-2.033461809158325,-0.6059696674346924,-0.8579570651054382,-0.30898454785346985,-0.17557376623153687,-0.6969515681266785,1.806286096572876
342,26224,26226,-0.3814723789691925,-0.4061833620071411,0.9727106094360352,3.3431613445281982,-17.552030563354492,-1.5938570499420166,-0.5984700918197632,-0.8474575877189636,-0.3224838674068451,0.03164413198828697,-0.6826473474502563,1.7959364652633667
343,26234,26236,-0.1962103545665741,-0.021558823063969612,1.0259674787521362,2.827117681503296,-16.96932601928711,0.9439627528190613,-0.5999699831008911,-0.8489575386047363,-0.31798410415649414,0.15930458903312683,-0.6738207340240479,1.8033307790756226
344,26244,26246,-0.6419972777366638,-0.3997202217578888,1.0844340324401855,-0.4853753447532654,-14.609979629516602,2.5906612873077393,-0.6059696674346924,-0.851957380771637,-0.32998350262641907,0.27748459577560425,-0.6948022246360779,1.8266981840133667
345,26254,26256,-0.3774926960468292,-0.1663576364517212,1.1160516738891602,-3.8227410316467285,0.8046677708625793,0.5772325396537781,-0.5954701900482178,-0.8594570159912109,-0.3164841830730438,0.2162153571844101,-0.7858153581619263,1.8596042394638062
346,26264,26266,-0.15702557563781738,-0.10305620729923248,1.1283408403396606,-3.6792659759521484,10.401838302612305,-1.1766166687011719,-0.5939702987670898,-0.8549572229385376,-0.3239837884902954,0.18371132016181946,-0.7417261004447937,1.844544768333435
347,26274,26276,-0.2185496836900711,-0.3104214370250702,1.1158006191253662,-4.6527886390686035,15.155224800109863,-2.1645588874816895,-0.5939702987670898,-0.8549572229385376,-0.31798410415649414,-0.03529571741819382,-0.7081780433654785,1.829357385635376
348,26284,26286,-0.30151695013046265,-0.08303374797105789,1.071645736694336,-6.888131618499756,16.585527420043945,-5.029118061065674,-0.6044697761535645,-0.8534573316574097,-0.31948402523994446,-0.2766803503036499,-0.7800725102424622,1.8025704622268677
349,26294,26296,-0.169655904173851,-0.10985251516103745,1.0797280073165894,-5.7751054763793945,10.035187721252441,-6.78943395614624,-0.5984700918197632,-0.8564571738243103,-0.3044847846031189,-0.3231881260871887,-0.8482791185379028,1.7325295209884644
350,26304,26306,-0.14845575392246246,-0.24750083684921265,1.0205119848251343,-2.8127379417419434,-2.292128324508667,-5.000549793243408,-0.5984700918197632,-0.8474575877189636,-0.3224838674068451,-0.21464233100414276,-0.945783257484436,1.6590074300765991
351,26314,26316,-1.1812028884887695,-0.17898520827293396,1.0500335693359375,1.146990180015564,-10.94266414642334,-4.2848219871521,-0.6089695692062378,-0.8429578542709351,-0.29998499155044556,-0.09520824253559113,-0.923916757106781,1.602692723274231
352,26324,26326,-1.0115574598312378,-0.11425741761922836,1.0270507335662842,4.024940490722656,-17.4523983001709,-3.3075406551361084,-0.6089695692062378,-0.8429578542709351,-0.3119843900203705,0.12834519147872925,-0.9172728061676025,1.5552252531051636
353,26334,26336,-0.8283702731132507,-0.19399109482765198,0.9553653597831726,5.094882488250732,-21.41187286376953,-0.30453038215637207,-0.6089695692062378,-0.8489575386047363,-0.31798410415649414,0.28980106115341187,-0.87385493516922,1.543603539466858
354,26344,26346,-0.47325679659843445,-0.34837689995765686,0.9993284344673157,8.920634269714355,-15.436189651489258,-0.30047574639320374,-0.6074696183204651,-0.8474575877189636,-0.31048446893692017,0.4757084548473358,-0.7996518611907959,1.5350542068481445
355,26354,26356,-0.24035947024822235,-0.1885293573141098,1.0355322360992432,8.953059196472168,-8.79946231842041,0.34143707156181335,-0.6014699339866638,-0.8654567003250122,-0.3044847846031189,0.5137046575546265,-0.6859421133995056,1.547868251800537
356,26364,26366,-0.07045480608940125,-0.11339548975229263,1.0510480403900146,7.638399600982666,-0.7045524716377258,3.5593581199645996,-0.5924703478813171,-0.8414579033851624,-0.3164841830730438,0.5715348124504089,-0.7292072772979736,1.5689351558685303
357,26374,26376,-0.1126808226108551,-0.0219081062823534,1.0264554023742676,3.143702268600464,12.059874534606934,5.75065279006958,-0.6044697761535645,-0.8414579033851624,-0.3134843111038208,0.4514543414115906,-0.6656948924064636,1.6236172914505005
358,26384,26386,-0.08590752631425858,-0.009865086525678635,0.9954680800437927,-3.9254260063171387,25.5021915435791,6.468845844268799,-0.6119694113731384,-0.8339582681655884,-0.3149842321872711,0.2693532407283783,-0.7029796838760376,1.6838661432266235
359,26394,26396,-0.1674005538225174,0.11695177108049393,0.9423909187316895,-7.111298561096191,31.52865219116211,8.012968063354492,-0.6044697761535645,-0.850457489490509,-0.3044847846031189,-0.12556348741054535,-0.6832090616226196,1.775660514831543
360,26404,26406,-0.5032482743263245,0.020046088844537735,0.9971561431884766,-12.9591064453125,27.948951721191406,9.592521667480469,-0.6104694604873657,-0.8414579033851624,-0.31948402523994446,-0.5061699151992798,-0.7400069236755371,1.8804348707199097
361,26414,26416,-0.9813042879104614,-0.319820761680603,0.8667519092559814,-16.086759567260742,16.676877975463867,9.725015640258789,-0.6134693026542664,-0.8414579033851624,-0.31048446893692017,-0.7513543367385864,-1.0125802755355835,1.9861549139022827
362,26424,26426,-1.899179458618164,-1.0839518308639526,0.9454901218414307,-18.10748863220215,6.869293212890625,9.41466999053955,-0.616469144821167,-0.850457489490509,-0.31048446893692017,-0.7237007021903992,-1.2475907802581787,2.053652286529541
363,26434,26436,-1.3547621965408325,-0.7369602918624878,0.9612840414047241,-17.21947479248047,-13.564719200134277,11.505635261535645,-0.6029698252677917,-0.8399580121040344,-0.3149842321872711,-0.6185333132743835,-1.403433084487915,2.14701509475708
364,26444,26446,-0.4183524250984192,-0.38486775755882263,0.9903068542480469,-16.551414489746094,-23.905664443969727,10.759090423583984,-0.5924703478813171,-0.8474575877189636,-0.31048446893692017,-0.28293824195861816,-1.6253288984298706,2.232304334640503
365,26454,26456,-0.09023348987102509,-0.044125963002443314,1.0026321411132812,-8.563161849975586,-25.317729949951172,8.13727855682373,-0.5939702987670898,-0.8489575386047363,-0.3059847056865692,0.0450422465801239,-1.679662823677063,2.315171480178833
366,26464,26466,-0.04810726270079613,0.11742711812257767,1.0060184001922607,-1.1012401580810547,-22.00079345703125,6.659607410430908,-0.5999699831008911,-0.8429578542709351,-0.3119843900203705,0.20818248391151428,-1.6782187223434448,2.4127957820892334
367,26474,26476,-0.18251550197601318,-0.10446023941040039,0.9676562547683716,8.95262622833252,-14.540217399597168,5.038236141204834,-0.5939702987670898,-0.8429578542709351,-0.31798410415649414,0.3493419587612152,-1.6110029220581055,2.4876794815063477
368,26484,26486,-0.132909893989563,-0.039805591106414795,0.9973857998847961,22.584611892700195,-5.031154632568359,4.975337505340576,-0.5909704566001892,-0.851957380771637,-0.30898454785346985,0.4892522394657135,-1.477969765663147,2.529792070388794
369,26494,26496,-0.1442587524652481,0.1363946497440338,1.0547019243240356,31.567352294921875,3.8343217372894287,3.985379934310913,-0.5894705057144165,-0.8534573316574097,-0.3164841830730438,0.3386642634868622,-1.2247580289840698,2.6126019954681396
370,26504,26506,-0.3469681441783905,0.11203786730766296,1.04156494140625,28.99347686767578,5.674113750457764,2.95463490486145,-0.6029698252677917,-0.8669566512107849,-0.3149842321872711,0.26823171973228455,-0.7947681546211243,2.652874231338501
371,26514,26516,-0.4064044654369354,0.06516075879335403,0.9944054484367371,22.28569984436035,3.516092300415039,2.058932304382324,-0.5954701900482178,-0.8564571738243103,-0.32848358154296875,0.22502969205379486,-0.6725455522537231,2.6812617778778076
372,26524,26526,-0.1995779275894165,-0.1919146329164505,1.0226463079452515,10.455787658691406,8.549450874328613,1.3376449346542358,-0.6149692535400391,-0.8699564933776855,-0.31798410415649414,0.18717437982559204,-0.4936380088329315,2.68794584274292
373,26534,26536,-0.2579985558986664,-0.08941566944122314,1.0525181293487549,-3.57826828956604,8.891534805297852,0.5798830986022949,-0.5954701900482178,-0.8564571738243103,-0.31948402523994446,0.043040886521339417,-0.46620506048202515,2.7090399265289307
374,26544,26546,-0.17709723114967346,0.0064154090359807014,1.1213136911392212,-16.391212463378906,7.932834148406982,-1.9015476703643799,-0.5849707126617432,-0.8609569072723389,-0.32698363065719604,0.05485393479466438,-0.6596564650535583,2.6761457920074463
375,26554,26556,-0.05278778448700905,-0.038178883492946625,1.0620746612548828,-21.000682830810547,6.552218914031982,-4.204824924468994,-0.5969701409339905,-0.8609569072723389,-0.3149842321872711,-0.06313829123973846,-0.9815471172332764,2.65409779548645
376,26564,26566,-0.07374071329832077,-0.09903533011674881,1.0575480461120605,-9.959442138671875,1.7587502002716064,-4.1971306800842285,-0.5909704566001892,-0.8459576964378357,-0.3329833447933197,-0.12061546742916107,-1.1993889808654785,2.620490312576294
377,26574,26576,-0.5057752728462219,-0.17769835889339447,1.1141247749328613,6.082674980163574,-8.753440856933594,-1.8348145484924316,-0.5924703478813171,-0.850457489490509,-0.31948402523994446,0.015121275559067726,-1.1690824031829834,2.566668748855591
378,26584,26586,-1.2973212003707886,-0.2923842668533325,1.0590089559555054,18.04701805114746,-11.06330394744873,0.9916350841522217,-0.5894705057144165,-0.844457745552063,-0.3254837095737457,0.16179567575454712,-0.924201488494873,2.5460338592529297
379,26594,26596,-0.7185660004615784,-0.10941888391971588,1.0129367113113403,24.757568359375,-12.360568046569824,1.680330753326416,-0.5924703478813171,-0.8624568581581116,-0.31948402523994446,0.3505806028842926,-0.5939173698425293,2.5431535243988037
380,26604,26606,-0.16072067618370056,0.03319431096315384,1.0132580995559692,21.724206924438477,-10.55631160736084,2.2988827228546143,-0.5909704566001892,-0.8729563355445862,-0.3209839463233948,0.3789771795272827,-0.476657897233963,2.588820219039917
381,26614,26616,-0.2898867726325989,-0.264154314994812,1.0217137336730957,13.140397071838379,-3.74387264251709,2.528538227081299,-0.5969701409339905,-0.8579570651054382,-0.3209839463233948,0.31784921884536743,-0.267056941986084,2.640265464782715
382,26624,26626,-0.4297187030315399,-0.5230699181556702,1.0041000843048096,11.796672821044922,-0.6284340620040894,2.4267942905426025,-0.5999699831008911,-0.8459576964378357,-0.31798410415649414,0.4083506762981415,-0.2570282816886902,2.655878782272339
383,26634,26636,-0.5829375982284546,-0.9812989830970764,1.037506103515625,10.853900909423828,4.412335395812988,4.041080951690674,-0.6059696674346924,-0.8489575386047363,-0.3059847056865692,0.35061872005462646,-0.1136631965637207,2.6927075386047363
384,26644,26646,-1.4001719951629639,-0.3406923711299896,1.0213063955307007,13.297205924987793,6.067020893096924,4.574111461639404,-0.6014699339866638,-0.850457489490509,-0.3164841830730438,0.33069172501564026,0.11382776498794556,2.7286911010742188
385,26654,26656,-1.4617732763290405,-0.10172706097364426,1.0150294303894043,12.37180233001709,4.871179103851318,4.702915668487549,-0.5984700918197632,-0.8384580612182617,-0.31048446893692017,0.24089224636554718,-0.004483344499021769,2.7943570613861084
386,26664,26666,-0.9540870785713196,-0.0035216836258769035,1.048484444618225,9.80704116821289,-4.389119625091553,2.7535879611968994,-0.5969701409339905,-0.8579570651054382,-0.3119843900203705,0.21963223814964294,0.13670578598976135,2.833676338195801
387,26674,26676,-0.22424940764904022,-0.017471415922045708,1.0360081195831299,3.8361399173736572,-5.273314952850342,0.7570936679840088,-0.5984700918197632,-0.8624568581581116,-0.3254837095737457,0.2528912425041199,0.261027067899704,2.8481953144073486
388,26684,26686,-0.15048612654209137,-0.18566329777240753,1.0292762517929077,2.082531452178955,-13.493115425109863,1.0180002450942993,-0.5864706635475159,-0.850457489490509,-0.3134843111038208,0.39993640780448914,0.1933872550725937,2.8544418811798096
389,26694,26696,-0.2099638730287552,-0.5516200661659241,1.0338027477264404,4.606383800506592,-8.536151885986328,0.48656970262527466,-0.6014699339866638,-0.8564571738243103,-0.3224838674068451,0.6137917637825012,0.2805285155773163,2.8447813987731934
390,26704,26706,-0.2296966314315796,-0.1410774290561676,1.0367047786712646,6.671902656555176,0.3612670600414276,-1.174628496170044,-0.5924703478813171,-0.844457745552063,-0.3224838674068451,0.6422505378723145,0.26667308807373047,2.843245267868042
391,26714,26716,-0.14745792746543884,0.008732150308787823,1.047253131866455,9.980546951293945,6.146468162536621,-0.37699225544929504,-0.5894705057144165,-0.8474575877189636,-0.3224838674068451,0.5633993744850159,0.44423866271972656,2.8344783782958984
392,26724,26726,-0.04966879263520241,-0.061766307801008224,1.0354981422424316,13.836275100708008,13.235610961914062,0.6754970550537109,-0.5984700918197632,-0.850457489490509,-0.30748462677001953,0.3480711579322815,0.6818149089813232,2.833580493927002
393,26734,26736,-0.3130395710468292,-0.4296012222766876,0.9597375392913818,13.020427703857422,16.7855224609375,1.7829469442367554,-0.6089695692062378,-0.8609569072723389,-0.3209839463233948,0.197732076048851,0.7046124935150146,2.8555827140808105
394,26744,26746,-0.5277446508407593,-0.44658178091049194,1.0034728050231934,9.442608833312988,24.836835861206055,-0.038917623460292816,-0.6194689869880676,-0.850457489490509,-0.31948402523994446,-0.0489504411816597,0.7711890339851379,2.8682141304016113
395,26754,26756,-0.35432150959968567,-0.027091335505247116,1.031978964805603,4.407382965087891,26.983976364135742,-1.6019906997680664,-0.6134693026542664,-0.850457489490509,-0.3314834237098694,-0.19642916321754456,0.8434340953826904,2.8634285926818848
396,26764,26766,-0.17627690732479095,-0.076375812292099,1.0367722511291504,-6.395833969116211,28.49423599243164,-2.5956573486328125,-0.6209689378738403,-0.8399580121040344,-0.3119843900203705,-0.5996347665786743,0.7652707099914551,2.843423366546631
397,26774,26776,-0.3778502941131592,-0.028233490884304047,1.0575212240219116,-14.822052955627441,26.08269500732422,-2.2090513706207275,-0.6059696674346924,-0.8399580121040344,-0.3059847056865692,-0.6942161321640015,0.5448112487792969,2.8332924842834473
398,26784,26786,-0.1309443712234497,-0.18194210529327393,1.0034723281860352,-21.87387466430664,24.545324325561523,-3.3589210510253906,-0.616469144821167,-0.8414579033851624,-0.3134843111038208,-1.061901330947876,0.3419422507286072,2.799501895904541
399,26794,26796,-0.086750827729702,-0.029628928750753403,0.9774114489555359,-25.2653751373291,15.861006736755371,-3.9014248847961426,-0.6119694113731384,-0.8309584259986877,-0.3119843900203705,-1.1720157861709595,-0.013815728947520256,2.772738456726074
400,26804,26806,-0.03981485217809677,-0.01363414991647005,0.9960207939147949,-18.247072219848633,6.427170753479004,-5.623102188110352,-0.6149692535400391,-0.8339582681655884,-0.3059847056865692,-1.152058482170105,-0.1057511419057846,2.736703872680664
401,26814,26816,-0.09104181826114655,-0.24935513734817505,0.9939403533935547,-1.9457942247390747,-3.3074893951416016,-8.73878002166748,-0.6284685730934143,-0.8234587907791138,-0.3044847846031189,-1.1969573497772217,-0.1984228789806366,2.6637303829193115
402,26824,26826,-0.0969853475689888,-0.12533637881278992,0.9866559505462646,12.903059005737305,-16.738332748413086,-9.772744178771973,-0.6074696183204651,-0.8534573316574097,-0.3014849126338959,-1.106516718864441,-0.03537358343601227,2.5778722763061523
403,26834,26836,-0.13323961198329926,-0.31228357553482056,0.9460312128067017,20.406558990478516,-20.57683753967285,-7.914033889770508,-0.623968780040741,-0.836958110332489,-0.3119843900203705,-0.903427243232727,0.21527764201164246,2.5002827644348145
404,26844,26846,-0.0821571946144104,-0.40465492010116577,1.0083872079849243,22.828723907470703,-17.0549373626709,-8.432765007019043,-0.6194689869880676,-0.8474575877189636,-0.3164841830730438,-0.6488643288612366,0.5933620929718018,2.4323008060455322
405,26854,26856,-0.1610119342803955,-0.4195612967014313,0.9758886694908142,21.835224151611328,-14.125228881835938,-7.994543075561523,-0.616469144821167,-0.844457745552063,-0.3224838674068451,-0.6449943780899048,0.6964188814163208,2.324260711669922
406,26864,26866,-0.3024967610836029,-0.19887696206569672,1.007367491722107,16.81051254272461,-9.440547943115234,-6.714859485626221,-0.6194689869880676,-0.8684565424919128,-0.3224838674068451,-0.4802294671535492,0.9454174637794495,2.25583553314209
407,26874,26876,-0.16399027407169342,-0.008298147469758987,0.9514343738555908,10.963519096374512,0.446580708026886,-7.363259792327881,-0.6179690957069397,-0.8549572229385376,-0.3149842321872711,-0.503321647644043,0.973250687122345,2.162574052810669
408,26884,26886,-0.11049319058656693,-0.034081775695085526,0.978308916091919,5.632450580596924,9.712349891662598,-8.770339965820312,-0.6179690957069397,-0.8579570651054382,-0.3119843900203705,-0.5992992520332336,1.0542622804641724,2.07438063621521
409,26894,26896,-0.6183313131332397,-0.10878553241491318,1.0656657218933105,0.03870943561196327,17.693857192993164,-9.0853271484375,-0.6209689378738403,-0.8309584259986877,-0.31798410415649414,-0.8165445923805237,1.122889757156372,1.981783151626587
410,26904,26906,-0.7508948445320129,-0.2939585745334625,1.0572295188903809,-7.079349994659424,28.396238327026367,-8.429819107055664,-0.6179690957069397,-0.8609569072723389,-0.3119843900203705,-1.0135927200317383,1.0121625661849976,1.894939661026001
411,26914,26916,-0.3131149113178253,-0.2314494103193283,1.0913094282150269,-19.242706298828125,26.036808013916016,-6.581157684326172,-0.616469144821167,-0.8414579033851624,-0.3254837095737457,-1.302936315536499,0.8133182525634766,1.8138089179992676
412,26924,26926,-0.46136096119880676,-0.17080464959144592,1.0824849605560303,-25.53042221069336,19.826753616333008,-6.588534832000732,-0.6074696183204651,-0.8414579033851624,-0.31048446893692017,-1.534432053565979,0.5220007300376892,1.7452478408813477
413,26934,26936,-0.9673439264297485,-0.7269932627677917,1.1269629001617432,-24.699464797973633,4.262697219848633,-5.278855800628662,-0.6254687309265137,-0.8474575877189636,-0.3044847846031189,-1.6237447261810303,0.28018784523010254,1.6949269771575928
414,26944,26946,-0.5218780040740967,-0.6360525488853455,1.0702136754989624,-19.97615623474121,-2.7306129932403564,-6.5638909339904785,-0.6209689378738403,-0.8279585838317871,-0.3119843900203705,-1.6314893960952759,0.1613863855600357,1.6536999940872192
415,26954,26956,-0.06374450773000717,-0.13578905165195465,1.0403937101364136,-6.9733405113220215,-14.73508071899414,-6.119003772735596,-0.616469144821167,-0.8174591064453125,-0.3134843111038208,-1.4555813074111938,0.05706651508808136,1.6053693294525146
416,26964,26966,-0.27523279190063477,-0.029674425721168518,1.0548027753829956,5.7815070152282715,-18.70021629333496,-5.404210567474365,-0.6134693026542664,-0.8354582190513611,-0.29848507046699524,-1.3126866817474365,0.08758172392845154,1.548991322517395
417,26974,26976,-0.12164918333292007,-0.06009736657142639,0.959396243095398,19.39999771118164,-17.037139892578125,-6.320346355438232,-0.6254687309265137,-0.8384580612182617,-0.31048446893692017,-1.1461706161499023,0.3471195101737976,1.5090136528015137
418,26984,26986,-0.5741920471191406,-0.07121967524290085,0.9737295508384705,25.864240646362305,-12.424728393554688,-5.7790207862854,-0.6284685730934143,-0.8384580612182617,-0.31048446893692017,-0.8950392603874207,0.5951787829399109,1.4617007970809937
419,26994,26996,-0.9547135233879089,-0.32953983545303345,1.1399725675582886,25.333723068237305,-11.50645923614502,-4.174072742462158,-0.6284685730934143,-0.8384580612182617,-0.31048446893692017,-0.7339789867401123,0.8145765066146851,1.404754638671875
420,27004,27006,-1.1095401048660278,-0.44841283559799194,1.1421985626220703,31.29403305053711,-4.431242942810059,-4.896303653717041,-0.6284685730934143,-0.8384580612182617,-0.31048446893692017,-0.6979898810386658,1.1693458557128906,1.3674027919769287
421,27014,27016,-1.240418553352356,-0.4877203106880188,1.1319986581802368,33.51028823852539,-5.65696382522583,-3.6789910793304443,-0.6284685730934143,-0.8384580612182617,-0.31048446893692017,-0.6282964944839478,1.6383846998214722,1.3565170764923096
422,27024,27026,-0.6850084066390991,-0.8493616580963135,1.019680380821228,27.936113357543945,-2.1104977130889893,-2.5204038619995117,-0.6269686222076416,-0.8459576964378357,-0.3209839463233948,-0.6262568235397339,1.7041860818862915,1.2733627557754517
423,27034,27036,-0.50331711769104,-0.7890983819961548,0.9382534623146057,15.377490043640137,-6.385285377502441,-0.38206446170806885,-0.6179690957069397,-0.851957380771637,-0.3149842321872711,-0.5668136477470398,1.908814549446106,1.2576236724853516
424,27044,27046,-0.4663434326648712,-1.2707476615905762,0.9536800980567932,0.15055912733078003,-11.211193084716797,1.274011492729187,-0.623968780040741,-0.8399580121040344,-0.31798410415649414,-0.49743229150772095,1.991592288017273,1.2633599042892456
425,27054,27056,-0.5277964472770691,-0.4462011158466339,0.9353765249252319,-10.813095092773438,-13.557516098022461,2.910531997680664,-0.6344682574272156,-0.8294585347175598,-0.3044847846031189,-0.35148149728775024,1.867614984512329,1.2763831615447998
426,27064,27066,-0.6559467315673828,-0.521003246307373,1.0015666484832764,-25.5081844329834,-13.553154945373535,3.528893232345581,-0.616469144821167,-0.844457745552063,-0.31948402523994446,-0.3136550188064575,1.6021720170974731,1.2733206748962402
427,27074,27076,-0.8971893787384033,-0.35947751998901367,0.9114323854446411,-35.88085174560547,-10.069509506225586,3.5365002155303955,-0.6134693026542664,-0.8414579033851624,-0.30748462677001953,-0.16253821551799774,1.2207609415054321,1.3008084297180176
428,27084,27086,-1.0482960939407349,-0.5277869701385498,1.010688066482544,-40.82263946533203,-3.777794361114502,2.473437547683716,-0.6104694604873657,-0.8354582190513611,-0.30748462677001953,-0.1781827062368393,0.7333686947822571,1.2949942350387573
429,27094,27096,-0.3597572147846222,-0.9403440952301025,0.9445728659629822,-41.52981948852539,2.9072861671447754,1.7589490413665771,-0.6179690957069397,-0.836958110332489,-0.3149842321872711,-0.23813915252685547,0.43048861622810364,1.3171305656433105
430,27104,27106,-0.2891547381877899,-0.4838731586933136,0.9508858323097229,-35.63813400268555,7.976596832275391,0.24118191003799438,-0.6149692535400391,-0.8399580121040344,-0.31798410415649414,-0.3121453523635864,0.10048578679561615,1.3305065631866455
431,27114,27116,-0.11432122439146042,-0.14185264706611633,0.9493180513381958,-28.087312698364258,8.781745910644531,-1.1816209554672241,-0.6044697761535645,-0.8384580612182617,-0.3164841830730438,-0.42356932163238525,-0.048778653144836426,1.3397443294525146
432,27124,27126,-0.3758384585380554,-0.16381219029426575,1.040697455406189,-16.74818229675293,5.353578567504883,-2.567970037460327,-0.6044697761535645,-0.8414579033851624,-0.31048446893692017,-0.4911929666996002,-0.2669914662837982,1.3214030265808105
433,27134,27136,-0.25041189789772034,-0.33506539463996887,0.9742898941040039,-1.8016904592514038,0.03816667199134827,-3.847201347351074,-0.5999699831008911,-0.8459576964378357,-0.3119843900203705,-0.47933945059776306,-0.3867267668247223,1.2899800539016724
434,27144,27146,-0.20318593084812164,-0.09047746658325195,1.0100057125091553,9.154929161071777,-6.301107406616211,-5.3907012939453125,-0.6194689869880676,-0.8534573316574097,-0.30748462677001953,-0.4563164710998535,-0.17459572851657867,1.2599351406097412
435,27154,27156,-0.34918320178985596,-0.14085523784160614,1.00705087184906,17.464208602905273,-12.987750053405762,-5.89136266708374,-0.6104694604873657,-0.850457489490509,-0.3224838674068451,-0.35151389241218567,-0.10302868485450745,1.2007688283920288
436,27164,27166,-0.32731571793556213,-0.24940267205238342,0.9125540852546692,23.434864044189453,-10.591043472290039,-5.692394256591797,-0.6059696674346924,-0.8579570651054382,-0.3059847056865692,-0.2203381359577179,0.22403748333454132,1.161963939666748
437,27174,27176,-0.5665452480316162,-0.46925240755081177,1.0028796195983887,17.648761749267578,-16.79621124267578,-3.7551307678222656,-0.5969701409339905,-0.8729563355445862,-0.32698363065719604,-0.06817477941513062,0.44577258825302124,1.1201989650726318
438,27184,27186,-0.7411375641822815,-0.22646456956863403,1.0015883445739746,10.459939956665039,-21.088214874267578,-2.7037410736083984,-0.5999699831008911,-0.8609569072723389,-0.3209839463233948,0.1344432532787323,0.49265623092651367,1.081915020942688
439,27194,27196,-0.24592582881450653,-0.15879756212234497,1.0055886507034302,3.122668504714966,-25.09757423400879,-2.439274549484253,-0.616469144821167,-0.8654567003250122,-0.33748310804367065,0.412891149520874,0.4191877841949463,1.0500332117080688
440,27204,27206,-0.08011322468519211,-0.20076288282871246,1.0038971900939941,-2.198460817337036,-24.49405288696289,-1.196568489074707,-0.5909704566001892,-0.8639568090438843,-0.3119843900203705,0.7718994617462158,0.39758357405662537,1.0407952070236206
441,27214,27216,-0.31020504236221313,-0.22779765725135803,0.9882897138595581,-6.304344654083252,-21.816295623779297,0.37740373611450195,-0.5894705057144165,-0.8744562864303589,-0.31948402523994446,0.7281243205070496,0.37891414761543274,1.0128341913223267
442,27224,27226,-0.5821498036384583,-0.25341829657554626,1.026829481124878,-6.554286956787109,-23.68500328063965,2.337644338607788,-0.6029698252677917,-0.8639568090438843,-0.33598318696022034,1.085386872291565,0.25586244463920593,1.0351309776306152
443,27234,27236,-0.2507728338241577,-0.6494842171669006,0.9946598410606384,-10.124677658081055,-3.978187322616577,1.6192890405654907,-0.5999699831008911,-0.8579570651054382,-0.3209839463233948,1.0281212329864502,0.16300489008426666,1.039566159248352
444,27244,27246,-0.21308624744415283,-0.41700413823127747,0.978672206401825,-12.064242362976074,3.9704744815826416,0.20456521213054657,-0.5924703478813171,-0.8684565424919128,-0.33448326587677,1.0451940298080444,0.03802792727947235,1.0484596490859985
445,27254,27256,-0.4592105448246002,-0.056921686977148056,0.9656193852424622,-15.437519073486328,9.620471954345703,-0.2160336971282959,-0.5999699831008911,-0.8579570651054382,-0.3239837884902954,0.9568576812744141,-0.2014157921075821,1.0512001514434814
446,27264,27266,-0.28600013256073,-0.07517102360725403,1.0330742597579956,-13.734319686889648,10.670830726623535,-0.0729205384850502,-0.5969701409339905,-0.8669566512107849,-0.33898305892944336,0.8263660669326782,-0.2294779121875763,1.0385733842849731
447,27274,27276,-0.39743572473526,-0.2233874648809433,1.0424519777297974,-5.5438151359558105,8.752259254455566,0.6577942967414856,-0.5924703478813171,-0.850457489490509,-0.3314834237098694,0.7055961489677429,-0.3770497143268585,1.0483002662658691
448,27284,27286,-0.6917523145675659,-0.18651385605335236,1.0567574501037598,4.151699542999268,4.312419891357422,-0.959120512008667,-0.5969701409339905,-0.8609569072723389,-0.30898454785346985,0.6328563094139099,-0.36824876070022583,1.046430230140686
449,27294,27296,-0.24683620035648346,-0.05425906926393509,1.0422344207763672,13.729771614074707,-3.359910249710083,-3.7024285793304443,-0.5999699831008911,-0.8729563355445862,-0.32698363065719604,0.6556490063667297,-0.13163484632968903,1.005510926246643
450,27304,27306,-0.41606125235557556,-0.0831536054611206,1.0291941165924072,22.98347282409668,-9.334173202514648,-6.807612895965576,-0.577471137046814,-0.8834558129310608,-0.32848358154296875,0.7898456454277039,0.1748209148645401,0.9360457062721252
451,27314,27316,-0.5498866438865662,-0.5746196508407593,1.0834499597549438,27.48654556274414,-10.799107551574707,-8.66287612915039,-0.5939702987670898,-0.8879556059837341,-0.33898305892944336,0.9651315808296204,0.3607807457447052,0.869257926940918
452,27324,27326,-0.3551529049873352,-0.4741281270980835,1.0535881519317627,24.38347625732422,-9.651138305664062,-10.21925163269043,-0.5939702987670898,-0.8819558620452881,-0.32698363065719604,1.0712727308273315,0.6949067711830139,0.761335015296936
453,27334,27336,-0.3073787987232208,-0.06816316395998001,1.0880225896835327,16.704160690307617,-1.2927407026290894,-13.278703689575195,-0.5879706144332886,-0.8909554481506348,-0.32998350262641907,1.1818732023239136,0.9285070896148682,0.6428753733634949
454,27344,27346,-0.5148285627365112,-0.01687355525791645,1.0407133102416992,2.5762476921081543,2.0766003131866455,-11.465384483337402,-0.5879706144332886,-0.8819558620452881,-0.341982901096344,1.184447169303894,0.8043015003204346,0.5620043873786926
455,27354,27356,-0.33147311210632324,-0.22239619493484497,1.0651423931121826,-12.232808113098145,10.056224822998047,-10.881189346313477,-0.5879706144332886,-0.8789560198783875,-0.341982901096344,1.0781047344207764,0.6859678030014038,0.4636102616786957
456,27364,27366,-0.14727148413658142,-0.26631832122802734,1.0431605577468872,-23.79058074951172,16.11176300048828,-11.512354850769043,-0.5954701900482178,-0.8774561285972595,-0.3314834237098694,0.8552759885787964,0.4923107326030731,0.35312405228614807
457,27374,27376,-0.0765419453382492,-0.03600639849901199,1.0275453329086304,-26.73953628540039,17.82904624938965,-11.148633003234863,-0.577471137046814,-0.8774561285972595,-0.3224838674068451,0.5775014162063599,0.19532495737075806,0.24475440382957458
458,27384,27386,-0.14279410243034363,-0.19591760635375977,1.089566946029663,-22.544816970825195,21.811845779418945,-9.745667457580566,-0.5834708213806152,-0.8744562864303589,-0.3254837095737457,0.3303478956222534,-0.0669381245970726,0.14223122596740723
459,27394,27396,-0.2740861475467682,-0.23170281946659088,1.1144591569900513,-16.37741470336914,21.61615562438965,-6.88143253326416,-0.5909704566001892,-0.8699564933776855,-0.32698363065719604,-0.01676006242632866,-0.31079989671707153,0.06446966528892517
460,27404,27406,-0.2170703262090683,-0.5847898721694946,1.056253433227539,-10.203231811523438,16.572725296020508,-6.6748199462890625,-0.5969701409339905,-0.8699564933776855,-0.32698363065719604,0.05979320779442787,-0.1005416288971901,-0.05855914205312729
461,27414,27416,-0.17241927981376648,-0.47024673223495483,1.0352380275726318,-2.4425339698791504,7.915762901306152,-4.995311260223389,-0.5984700918197632,-0.8624568581581116,-0.31948402523994446,0.09128864854574203,-0.15290920436382294,-0.11922750622034073
462,27424,27426,-0.19606778025627136,-0.06248345598578453,1.0953656435012817,1.1264734268188477,-2.0499954223632812,-2.726423740386963,-0.5909704566001892,-0.8699564933776855,-0.31798410415649414,-0.010292291641235352,-0.04121427983045578,-0.17933273315429688
463,27434,27436,-0.3303302228450775,0.04700067266821861,1.0422120094299316,-3.749443292617798,-6.640786647796631,0.035607270896434784,-0.6059696674346924,-0.8699564933776855,-0.3329833447933197,0.07292085140943527,-0.1232796385884285,-0.18168190121650696
464,27444,27446,-0.20620286464691162,0.036431752145290375,1.0463535785675049,-7.94941520690918,-7.026158332824707,1.1805564165115356,-0.6104694604873657,-0.8744562864303589,-0.3134843111038208,0.1845543384552002,-0.19410724937915802,-0.17377451062202454
465,27454,27456,-0.1408252865076065,-0.28512275218963623,1.1042814254760742,-11.683520317077637,-5.461925029754639,0.7629896402359009,-0.6059696674346924,-0.851957380771637,-0.31798410415649414,0.2760944068431854,-0.33395758271217346,-0.16034840047359467
466,27464,27466,-0.12875236570835114,-0.14079181849956512,1.0643328428268433,-11.966075897216797,-0.39258334040641785,0.07021012157201767,-0.5999699831008911,-0.8699564933776855,-0.3239837884902954,0.3145275115966797,-0.48539140820503235,-0.15329475700855255
467,27474,27476,-0.41425588726997375,-0.21577681601047516,1.0296802520751953,-15.185084342956543,5.120773792266846,0.5528225302696228,-0.6029698252677917,-0.8759561777114868,-0.32698363065719604,0.2659534811973572,-0.6756153702735901,-0.142668679356575
468,27484,27486,-0.5837664008140564,-0.16149549186229706,1.0720288753509521,-12.205489158630371,7.204068183898926,0.6035836338996887,-0.5969701409339905,-0.8699564933776855,-0.32998350262641907,0.09704483300447464,-0.8467221260070801,-0.13185766339302063
469,27494,27496,-0.6601519584655762,-0.1130007654428482,1.0674973726272583,-8.385259628295898,7.994870662689209,2.49436092376709,-0.5924703478813171,-0.8654567003250122,-0.3224838674068451,-0.023867778480052948,-0.9488704204559326,-0.11237169057130814
470,27504,27506,-0.14218881726264954,-0.05673149228096008,0.9993277192115784,-5.575623512268066,6.245278835296631,3.9131715297698975,-0.5969701409339905,-0.8729563355445862,-0.31798410415649414,-0.1394105851650238,-0.9982686042785645,-0.0778702050447464
471,27514,27516,-0.021707313135266304,-0.0241935346275568,1.0245355367660522,-2.782243013381958,2.7316527366638184,4.527907371520996,-0.6029698252677917,-0.8669566512107849,-0.3239837884902954,-0.12777100503444672,-1.0066792964935303,-0.043238915503025055
472,27524,27526,-0.13820689916610718,0.01132404338568449,1.0496748685836792,-3.625945806503296,1.5384626388549805,4.264495372772217,-0.6074696183204651,-0.8624568581581116,-0.3164841830730438,-0.17349731922149658,-1.0024365186691284,-0.0012626275420188904
473,27534,27536,-0.9748704433441162,-0.39501821994781494,1.0838690996170044,-6.082855224609375,-3.8059825897216797,3.142578363418579,-0.5924703478813171,-0.850457489490509,-0.31948402523994446,-0.07620211690664291,-1.0383104085922241,0.022560272365808487
474,27544,27546,-0.8944776654243469,-0.14058777689933777,1.0392342805862427,-5.662321090698242,-11.08022689819336,1.3360886573791504,-0.6029698252677917,-0.8699564933776855,-0.3209839463233948,0.1328132450580597,-1.0160006284713745,0.021378127858042717
475,27554,27556,-0.212271586060524,-0.04017861932516098,1.0044218301773071,-7.156243801116943,-18.290990829467773,-0.1310444176197052,-0.6044697761535645,-0.8624568581581116,-0.31048446893692017,0.3771696090698242,-1.1480400562286377,0.021323122084140778
476,27564,27566,-0.3134666979312897,-0.1384379267692566,0.975422203540802,-5.6149139404296875,-23.383289337158203,-1.3305222988128662,-0.5969701409339905,-0.8669566512107849,-0.3209839463233948,0.6982965469360352,-1.2752329111099243,0.005030882079154253
