,timestamp_start,timestamp_end,acc.x,acc.y,acc.z,gyro.x,gyro.y,gyro.z,mag.x,mag.y,mag.z,stabilizer.pitch,stabilizer.roll,stabilizer.yaw
0,1424573,1424574,-0.8112219572067261,-0.21634653210639954,0.9156036972999573,18.109708786010742,-5.803651332855225,-4.27073860168457,-0.5789710283279419,-0.45297732949256897,-0.3059847056865692,-0.8285135626792908,0.3870193660259247,-5.342734336853027
1,1424583,1424584,-0.6860172748565674,-0.24429062008857727,0.9226679801940918,14.46857738494873,-19.355205535888672,-3.9536802768707275,-0.5759711861610413,-0.4469776451587677,-0.28798559308052063,-0.6484652757644653,0.5731631517410278,-5.332470417022705
2,1424593,1424594,-0.2650720179080963,-0.0759977325797081,0.9280977845191956,6.190427780151367,-28.037961959838867,-3.400952100753784,-0.577471137046814,-0.4634768068790436,-0.3164841830730438,-0.4277592897415161,0.7117134928703308,-5.36167049407959
3,1424603,1424604,-0.2460997849702835,-0.3332410752773285,0.941022515296936,-1.5002965927124023,-26.47812271118164,-1.1356080770492554,-0.5759711861610413,-0.46197688579559326,-0.2969851493835449,-0.19259783625602722,0.7304776906967163,-5.4151835441589355
4,1424613,1424614,-0.5475080609321594,-0.2619272768497467,0.9868090152740479,-16.53705596923828,-19.57159996032715,1.0367465019226074,-0.5729713439941406,-0.4739762842655182,-0.3119843900203705,0.10107246041297913,0.5760664343833923,-5.443073272705078
5,1424623,1424624,-0.5185837149620056,0.005062533542513847,1.050222396850586,-27.993803024291992,-14.222515106201172,3.1430134773254395,-0.562471866607666,-0.4634768068790436,-0.3134843111038208,0.43098047375679016,0.6304460167884827,-5.385325908660889
6,1424633,1424634,-0.8373427987098694,-0.17403382062911987,0.9894037842750549,-29.391799926757812,-11.494218826293945,5.781179904937744,-0.5564721822738647,-0.46947652101516724,-0.31948402523994446,0.6536912322044373,0.2600390613079071,-5.344305038452148
7,1424643,1424644,-0.4892922639846802,-0.19930656254291534,0.7398801445960999,-26.244932174682617,-2.5770435333251953,8.074178695678711,-0.562471866607666,-0.46047696471214294,-0.30748462677001953,0.8076430559158325,-0.03977133706212044,-5.28371524810791
8,1424653,1424654,-1.1309417486190796,-0.26369208097457886,0.8661430478096008,-26.427701950073242,7.400238037109375,10.246785163879395,-0.5504724383354187,-0.4634768068790436,-0.3134843111038208,0.7922695279121399,-0.11763343214988708,-5.219442844390869
9,1424663,1424664,-0.5761948823928833,-0.5557066202163696,0.9873128533363342,-20.602981567382812,15.54556655883789,12.180452346801758,-0.5609719157218933,-0.45297732949256897,-0.3149842321872711,0.7002550363540649,-0.4612307548522949,-5.128120422363281
10,1424673,1424674,-0.5254043340682983,0.09402560442686081,0.9074111580848694,-16.551252365112305,24.903135299682617,11.747323036193848,-0.5654717087745667,-0.4574771225452423,-0.31048446893692017,0.5600720047950745,-0.44699546694755554,-5.011133193969727
11,1424683,1424684,-0.20643359422683716,0.15488678216934204,1.0216104984283447,-7.9720587730407715,26.93330955505371,12.56411361694336,-0.5654717087745667,-0.47247636318206787,-0.32848358154296875,0.30467191338539124,-0.5727658271789551,-4.9025702476501465
12,1424693,1424694,-0.3863549530506134,0.05841471999883652,1.0030159950256348,5.149724960327148,29.082786560058594,11.240705490112305,-0.5594720244407654,-0.46947652101516724,-0.31948402523994446,-0.12574800848960876,-0.6768948435783386,-4.8156046867370605
13,1424703,1424704,-0.7678262591362,-0.13642889261245728,0.9472009539604187,12.665237426757812,29.371047973632812,9.191929817199707,-0.5729713439941406,-0.4589770436286926,-0.3209839463233948,-0.393098920583725,-0.5323012471199036,-4.700669765472412
14,1424713,1424714,-0.43609821796417236,-0.4566764831542969,0.9717752933502197,15.648415565490723,23.72332000732422,6.633322238922119,-0.554972231388092,-0.47997599840164185,-0.3209839463233948,-0.8328148722648621,-0.441956102848053,-4.629782199859619
15,1424723,1424724,-0.3388175666332245,0.10264777392148972,0.9372626543045044,8.300657272338867,7.540467262268066,3.6254191398620605,-0.577471137046814,-0.49047547578811646,-0.31948402523994446,-0.926425039768219,-0.4112755358219147,-4.536807060241699
16,1424733,1424734,-0.2590382397174835,0.17568421363830566,0.9180876016616821,-6.28448486328125,-12.066773414611816,-0.708423376083374,-0.56997150182724,-0.4829758405685425,-0.31798410415649414,-0.9668828845024109,-0.21460065245628357,-4.47706413269043
17,1424743,1424744,-0.07101689279079437,-0.23318013548851013,0.9512837529182434,-20.26883316040039,-26.405622482299805,-4.423490047454834,-0.5729713439941406,-0.47997599840164185,-0.32698363065719604,-0.7405480146408081,-0.04090939089655876,-4.444687843322754
18,1424753,1424754,-0.36617687344551086,-0.17348265647888184,0.9072108864784241,-32.95900344848633,-33.58894348144531,-6.74067497253418,-0.5654717087745667,-0.46947652101516724,-0.31948402523994446,-0.5228387713432312,-0.1837174892425537,-4.482632637023926
19,1424763,1424764,-0.3674016296863556,0.2425961196422577,0.9675481915473938,-48.300662994384766,-34.15189743041992,-6.6646599769592285,-0.5489725470542908,-0.4829758405685425,-0.3329833447933197,-0.05973462387919426,-0.6787253618240356,-4.539429664611816
20,1424773,1424774,-0.24919413030147552,-0.034889258444309235,1.1213470697402954,-62.51539611816406,-26.507923126220703,-5.0192484855651855,-0.5399730205535889,-0.48897555470466614,-0.341982901096344,0.23882226645946503,-0.9920052289962769,-4.596017360687256
21,1424783,1424784,-0.5049273371696472,-0.4975675344467163,1.1003578901290894,-66.09843444824219,-13.685230255126953,-3.208000898361206,-0.5384730696678162,-0.48147591948509216,-0.3524823784828186,0.6179243922233582,-1.9714757204055786,-4.652744293212891
22,1424793,1424794,-0.3278977572917938,-0.23914438486099243,1.0058245658874512,-58.03191375732422,2.204493999481201,-2.5722928047180176,-0.5414729118347168,-0.4754762053489685,-0.3224838674068451,0.6341948509216309,-2.4435136318206787,-4.681245803833008
23,1424803,1424804,-0.042131755501031876,0.06023937836289406,0.9665250182151794,-40.041221618652344,12.28196907043457,-0.768271267414093,-0.5414729118347168,-0.4754762053489685,-0.3224838674068451,0.5703438520431519,-2.770998239517212,-4.703251361846924
24,1424813,1424814,-0.3919117748737335,0.03416852653026581,0.9651243090629578,-14.822205543518066,18.608219146728516,1.651240348815918,-0.5414729118347168,-0.4754762053489685,-0.3224838674068451,0.3571534752845764,-3.2723500728607178,-4.7166547775268555
25,1424823,1424824,-0.1528184562921524,0.02092531882226467,0.9736361503601074,9.258563041687012,19.414703369140625,3.918261766433716,-0.5594720244407654,-0.4454777240753174,-0.34648266434669495,0.2821904122829437,-3.306532859802246,-4.718717575073242
26,1424833,1424834,-0.023168256506323814,0.011903283186256886,0.9861246943473816,28.0947322845459,15.199172019958496,6.609441757202148,-0.56997150182724,-0.47097644209861755,-0.341982901096344,0.1332632452249527,-3.195716619491577,-4.696059703826904
27,1424843,1424844,0.07682882249355316,0.06316925585269928,1.0089759826660156,38.265968322753906,6.554145812988281,8.48056697845459,-0.5639718174934387,-0.46197688579559326,-0.3239837884902954,-0.07983043044805527,-2.8937649726867676,-4.635599613189697
28,1424853,1424854,0.08248630166053772,0.055715516209602356,0.9903243184089661,39.835548400878906,-2.8225159645080566,10.688699722290039,-0.562471866607666,-0.4754762053489685,-0.3404829800128937,-0.16024833917617798,-2.5968031883239746,-4.559373378753662
29,1424863,1424864,-0.38402989506721497,0.023878304287791252,0.9925475716590881,35.954185485839844,-12.277994155883789,11.579647064208984,-0.5639718174934387,-0.4829758405685425,-0.3539822995662689,-0.1627061367034912,-2.068768262863159,-4.45361852645874
30,1424873,1424874,-0.4683930575847626,-0.08094771206378937,1.0910687446594238,28.27212142944336,-22.299909591674805,12.4766263961792,-0.5609719157218933,-0.47097644209861755,-0.34798258543014526,0.05519363656640053,-1.896451473236084,-4.3698296546936035
31,1424883,1424884,-0.10674923658370972,-0.033905982971191406,1.068888545036316,19.610511779785156,-30.41415786743164,13.709468841552734,-0.554972231388092,-0.4859756827354431,-0.34498274326324463,0.3546259105205536,-1.5523760318756104,-4.26226806640625
32,1424893,1424894,0.03586779162287712,0.16625814139842987,0.9547585844993591,8.561702728271484,-31.977819442749023,13.746739387512207,-0.5579720735549927,-0.4859756827354431,-0.3209839463233948,0.5534217357635498,-1.4867970943450928,-4.095913887023926
33,1424903,1424904,-0.1344844102859497,0.030266882851719856,1.0114696025848389,0.5639300346374512,-27.80780792236328,14.646880149841309,-0.5564721822738647,-0.47847607731819153,-0.3254837095737457,1.0366073846817017,-1.4272222518920898,-3.9855053424835205
34,1424913,1424914,-0.1035945937037468,0.025667928159236908,1.0377339124679565,-3.594310760498047,-14.741239547729492,14.267768859863281,-0.5534723401069641,-0.46047696471214294,-0.3254837095737457,1.3328338861465454,-1.4090653657913208,-3.832618236541748
35,1424923,1424924,-0.06860783696174622,-0.0721491277217865,1.0524861812591553,1.7073661088943481,3.7124924659729004,11.572881698608398,-0.5489725470542908,-0.4829758405685425,-0.33598318696022034,1.3217090368270874,-1.4768022298812866,-3.646118640899658
36,1424933,1424934,2.1763255062978715e-05,-0.09870968759059906,1.004443645477295,12.163238525390625,21.097017288208008,6.656635761260986,-0.5459727048873901,-0.4829758405685425,-0.32998350262641907,1.1680322885513306,-1.44561767578125,-3.5020601749420166
37,1424943,1424944,0.012659917585551739,-0.05935351178050041,1.0207438468933105,18.284976959228516,34.400814056396484,2.661182403564453,-0.5414729118347168,-0.4844757616519928,-0.3404829800128937,0.897134006023407,-1.274907112121582,-3.422795057296753
38,1424953,1424954,-0.13936294615268707,-0.453274667263031,1.0257067680358887,18.379304885864258,47.07881546020508,-1.9389814138412476,-0.562471866607666,-0.4934753179550171,-0.33448326587677,0.35046815872192383,-1.2418797016143799,-3.3466637134552
39,1424963,1424964,-0.07505933195352554,-0.4716172516345978,0.9279161095619202,20.3691349029541,54.644840240478516,-5.652695178985596,-0.562471866607666,-0.4844757616519928,-0.33448326587677,-0.14685288071632385,-1.1013916730880737,-3.3515031337738037
40,1424973,1424974,-0.15485157072544098,-0.2513146698474884,0.9442752003669739,19.301570892333984,48.42177963256836,-9.721820831298828,-0.5759711861610413,-0.5009749531745911,-0.32698363065719604,-0.7075735926628113,-0.872948169708252,-3.4109065532684326
41,1424983,1424984,-0.14415676891803741,-0.2594126760959625,1.0652780532836914,12.675091743469238,33.84247589111328,-13.674233436584473,-0.5654717087745667,-0.502474844455719,-0.35548222064971924,-1.0813013315200806,-0.6344729065895081,-3.5307164192199707
42,1424993,1424994,-0.051321014761924744,-0.1273195743560791,0.9068073630332947,3.005826473236084,18.179834365844727,-15.540191650390625,-0.5594720244407654,-0.49947500228881836,-0.31948402523994446,-1.2894489765167236,-0.7050560116767883,-3.67999267578125
43,1425003,1425004,-0.19305749237537384,-0.33229711651802063,1.0239248275756836,-11.7695951461792,1.3370648622512817,-16.210676193237305,-0.5744712948799133,-0.48747560381889343,-0.33448326587677,-1.5209710597991943,-0.7166025638580322,-3.837935209274292
44,1425013,1425014,-0.35663607716560364,-0.1855224370956421,1.0825129747390747,-25.841310501098633,-11.73673152923584,-16.767507553100586,-0.5684715509414673,-0.502474844455719,-0.33748310804367065,-1.4934924840927124,-0.8813241720199585,-4.008336544036865
45,1425023,1425024,-0.36783161759376526,-0.19660812616348267,1.0385665893554688,-38.20577621459961,-19.709918975830078,-17.539159774780273,-0.5519723892211914,-0.49797508120536804,-0.341982901096344,-1.2715840339660645,-1.122312068939209,-4.180147647857666
46,1425033,1425034,-0.4034935534000397,-0.21439872682094574,0.9916158318519592,-44.75018310546875,-24.555068969726562,-17.654611587524414,-0.554972231388092,-0.48897555470466614,-0.341982901096344,-1.0246063470840454,-1.6653581857681274,-4.374693870544434
47,1425043,1425044,-0.3220754563808441,-0.06327717006206512,0.9989529252052307,-40.023990631103516,-24.576061248779297,-17.62639808654785,-0.554972231388092,-0.4919753968715668,-0.34798258543014526,-0.8462619781494141,-1.902235746383667,-4.512411594390869
48,1425053,1425054,-0.15282095968723297,-0.001983139431104064,1.058652400970459,-20.957433700561523,-20.918569564819336,-18.221187591552734,-0.5414729118347168,-0.4964751601219177,-0.3404829800128937,-0.5335623025894165,-2.1556432247161865,-4.663349628448486
49,1425063,1425064,-0.24847689270973206,-0.17605648934841156,1.1168055534362793,2.5939090251922607,-15.659893989562988,-17.571203231811523,-0.5384730696678162,-0.48747560381889343,-0.3524823784828186,-0.3519401252269745,-2.397853374481201,-4.832377910614014
50,1425073,1425074,-0.13374263048171997,-0.2002106010913849,1.1015092134475708,26.22983169555664,-4.0262579917907715,-15.561810493469238,-0.5534723401069641,-0.49047547578811646,-0.3494825065135956,-0.1915665864944458,-2.33367919921875,-4.982239723205566
51,1425083,1425084,-0.034137558192014694,0.0052888039499521255,1.0695369243621826,42.44634246826172,7.85861873626709,-16.148067474365234,-0.562471866607666,-0.4964751601219177,-0.3434828221797943,-0.15415123105049133,-1.8563896417617798,-5.102722644805908
52,1425093,1425094,0.01645624078810215,0.16525277495384216,1.0400049686431885,51.06041717529297,14.609046936035156,-17.292667388916016,-0.5639718174934387,-0.49797508120536804,-0.341982901096344,-0.2044818252325058,-1.4458811283111572,-5.261765480041504
53,1425103,1425104,0.13960513472557068,0.09683278948068619,1.1330676078796387,49.20775604248047,16.188644409179688,-18.064319610595703,-0.5474725961685181,-0.49047547578811646,-0.3404829800128937,-0.34109270572662354,-0.9298192262649536,-5.425048828125
54,1425113,1425114,-0.19465094804763794,-0.18654024600982666,1.0867242813110352,36.67818832397461,16.78299903869629,-17.101665496826172,-0.5564721822738647,-0.5054747462272644,-0.3404829800128937,-0.44169116020202637,-0.7444097995758057,-5.643033504486084
55,1425123,1425124,-0.35265836119651794,-0.1920950561761856,1.0518386363983154,17.23577117919922,18.236854553222656,-16.221357345581055,-0.5579720735549927,-0.4859756827354431,-0.33598318696022034,-0.6284238696098328,-0.3301892876625061,-5.811617851257324
56,1425133,1425134,-0.08314777910709381,-0.013711059466004372,0.9928441643714905,-5.701047420501709,21.320276260375977,-15.805418014526367,-0.5684715509414673,-0.4934753179550171,-0.32848358154296875,-0.8097035884857178,-0.1952095776796341,-5.986039638519287
57,1425143,1425144,-0.06257777661085129,0.020431512966752052,0.9908652305603027,-23.25383186340332,21.313880920410156,-14.467329025268555,-0.5669716596603394,-0.4769761562347412,-0.3059847056865692,-1.0270670652389526,-0.33722078800201416,-6.155819892883301
58,1425153,1425154,-0.10842154920101166,-0.0652524009346962,0.9933161735534668,-36.37409210205078,17.48638153076172,-11.857970237731934,-0.5654717087745667,-0.4634768068790436,-0.3224838674068451,-1.3310948610305786,-0.5939009189605713,-6.303577899932861
59,1425163,1425164,-0.07040957361459732,-0.25905945897102356,1.0053057670593262,-42.877193450927734,12.340094566345215,-10.020675659179688,-0.5609719157218933,-0.4589770436286926,-0.32998350262641907,-1.4930089712142944,-0.8877478837966919,-6.419593334197998
60,1425173,1425174,-0.02807452157139778,-0.05576761066913605,0.9898282885551453,-40.40781021118164,8.157975196838379,-8.521429061889648,-0.5519723892211914,-0.455977201461792,-0.3209839463233948,-1.5877190828323364,-1.3083713054656982,-6.526029586791992
61,1425183,1425184,-0.09363600611686707,-0.11710357666015625,1.0137674808502197,-29.572093963623047,1.1260194778442383,-6.836475849151611,-0.5579720735549927,-0.44997748732566833,-0.3209839463233948,-1.6771451234817505,-1.8043041229248047,-6.631206035614014
62,1425193,1425194,-0.2970029413700104,-0.012898467481136322,0.9824447631835938,-9.327927589416504,-7.577361583709717,-5.632195949554443,-0.5654717087745667,-0.44247788190841675,-0.3044847846031189,-1.6571719646453857,-2.14479398727417,-6.707141876220703
63,1425203,1425204,-0.10755791515111923,0.016962014138698578,0.9867950677871704,9.639702796936035,-14.106297492980957,-1.808613657951355,-0.5609719157218933,-0.44997748732566833,-0.3209839463233948,-1.5061113834381104,-2.039562940597534,-6.716736793518066
64,1425213,1425214,-0.2377680242061615,-0.05983426421880722,0.9811766147613525,22.84248161315918,-17.97414779663086,1.1962945461273193,-0.5609719157218933,-0.45297732949256897,-0.32998350262641907,-1.453762173652649,-1.8842804431915283,-6.709871768951416
65,1425223,1425224,-0.7602562308311462,-0.38338008522987366,0.9978823065757751,30.329538345336914,-20.878721237182617,5.382056713104248,-0.562471866607666,-0.46947652101516724,-0.3254837095737457,-1.1862868070602417,-1.4709440469741821,-6.655264377593994
66,1425233,1425234,-0.3852854073047638,-0.4978070557117462,1.0242196321487427,33.8818473815918,-23.016233444213867,10.231578826904297,-0.5579720735549927,-0.4769761562347412,-0.3329833447933197,-0.8798707127571106,-1.2984492778778076,-6.635326385498047
67,1425243,1425244,-0.4462636113166809,-0.5945672392845154,1.0919740200042725,37.73316192626953,-22.18584442138672,14.982616424560547,-0.5714713931083679,-0.47247636318206787,-0.3314834237098694,-0.7077201008796692,-1.0403575897216797,-6.548486232757568
68,1425253,1425254,-0.17732559144496918,-0.5412478446960449,1.0095555782318115,35.187660217285156,-21.5197696685791,18.048370361328125,-0.5654717087745667,-0.47247636318206787,-0.3314834237098694,-0.4042070806026459,-0.4803740680217743,-6.373752117156982
69,1425263,1425264,-0.046375028789043427,-0.09245000779628754,0.9494977593421936,25.12633514404297,-17.976158142089844,19.725143432617188,-0.5564721822738647,-0.46947652101516724,-0.3224838674068451,-0.21337394416332245,-0.3462563753128052,-6.239253044128418
70,1425273,1425274,-0.42290517687797546,-0.21299822628498077,1.005721926689148,14.507579803466797,-11.15711498260498,20.12348175048828,-0.5714713931083679,-0.4754762053489685,-0.32848358154296875,-0.10009711980819702,0.058883536607027054,-6.021082878112793
71,1425283,1425284,-0.6534925699234009,-0.1245281770825386,1.0178616046905518,11.541020393371582,-1.722993016242981,19.242528915405273,-0.5654717087745667,-0.47847607731819153,-0.31948402523994446,-0.09949534386396408,-0.026964377611875534,-5.855966091156006
72,1425293,1425294,-0.33526378870010376,-0.15622089803218842,0.9985724091529846,15.418292045593262,5.168474197387695,16.12824821472168,-0.5639718174934387,-0.4919753968715668,-0.32698363065719604,-0.21181493997573853,0.01957804709672928,-5.671354293823242
73,1425303,1425304,-0.6051750183105469,-0.2686220407485962,1.0815973281860352,24.844234466552734,8.470996856689453,13.373176574707031,-0.5519723892211914,-0.47097644209861755,-0.32698363065719604,-0.18532270193099976,0.3666767477989197,-5.479185581207275
74,1425313,1425314,-0.3120338022708893,-0.4901520311832428,1.0405313968658447,32.26628875732422,7.290465831756592,10.091976165771484,-0.5519723892211914,-0.4859756827354431,-0.32698363065719604,-0.25609090924263,0.5561132431030273,-5.346975803375244
75,1425323,1425324,-0.5296381711959839,-0.22514674067497253,1.0113065242767334,35.14356231689453,-1.396767020225525,8.314720153808594,-0.5504724383354187,-0.49947500228881836,-0.3314834237098694,-0.26965585350990295,0.9888880848884583,-5.225735664367676
76,1425333,1425334,-1.1843880414962769,-0.04373122751712799,1.030247449874878,29.032575607299805,-12.89062213897705,6.406776428222656,-0.5654717087745667,-0.5054747462272644,-0.3314834237098694,-0.21227991580963135,1.0753610134124756,-5.15994119644165
77,1425343,1425344,-0.4601256847381592,-0.40753307938575745,1.0220046043395996,17.276857376098633,-24.7730770111084,4.365229606628418,-0.5579720735549927,-0.4859756827354431,-0.32998350262641907,0.01430321205407381,1.3553396463394165,-5.086991310119629
78,1425353,1425354,0.05256206914782524,-0.09300827980041504,0.9562879204750061,0.2436671257019043,-28.12975311279297,3.168341636657715,-0.5519723892211914,-0.49797508120536804,-0.3239837884902954,0.22130219638347626,1.624163031578064,-5.047783374786377
79,1425363,1425364,0.018371041864156723,0.010494128800928593,0.9774454832077026,-17.527238845825195,-20.17896842956543,1.3380842208862305,-0.5429728627204895,-0.4829758405685425,-0.3209839463233948,0.4337717294692993,1.5360636711120605,-5.0408172607421875
80,1425373,1425374,-0.03201238065958023,-0.1226828470826149,0.9858211874961853,-32.85395431518555,-6.78793478012085,-0.24475131928920746,-0.5504724383354187,-0.49947500228881836,-0.31948402523994446,0.6494691967964172,1.2488330602645874,-5.0326056480407715
81,1425383,1425384,-0.005236835218966007,-0.01058616116642952,0.9578022956848145,-38.42119598388672,8.174640655517578,-1.363814115524292,-0.5444727540016174,-0.47247636318206787,-0.3254837095737457,0.4444790482521057,0.7766215801239014,-5.106910705566406
82,1425393,1425394,-0.07746793329715729,0.0619824156165123,0.9639769196510315,-34.87438201904297,17.89276885986328,-3.054661989212036,-0.5534723401069641,-0.49047547578811646,-0.3254837095737457,0.3243579864501953,0.5305273532867432,-5.134384632110596
83,1425403,1425404,-0.03963500261306763,0.008600052446126938,1.0141630172729492,-21.685712814331055,22.153226852416992,-3.8551390171051025,-0.5534723401069641,-0.4844757616519928,-0.3224838674068451,0.26637402176856995,0.3728720247745514,-5.13543176651001
84,1425413,1425414,-0.39714932441711426,-0.3997652530670166,1.016690969467163,-6.731932640075684,21.398754119873047,-3.7302920818328857,-0.5579720735549927,-0.4769761562347412,-0.3239837884902954,-0.05405527353286743,0.19289717078208923,-5.199831008911133
85,1425423,1425424,-0.8244149684906006,-0.4651033282279968,0.9778221249580383,9.58403491973877,17.997421264648438,-1.4666937589645386,-0.5669716596603394,-0.47997599840164185,-0.32698363065719604,-0.20368510484695435,0.04175008088350296,-5.21818208694458
86,1425433,1425434,-0.2153724879026413,-0.2490575611591339,0.9731144905090332,24.90184211730957,8.14207649230957,0.6145022511482239,-0.5714713931083679,-0.47847607731819153,-0.3164841830730438,-0.2753393054008484,0.2870413661003113,-5.213391304016113
87,1425443,1425444,-0.053835488855838776,-0.0462130531668663,1.0322189331054688,38.630088806152344,-0.5299417972564697,3.254835605621338,-0.5609719157218933,-0.5009749531745911,-0.32698363065719604,-0.3388878405094147,0.62400883436203,-5.205268859863281
88,1425453,1425454,-0.43138056993484497,-0.3223772943019867,1.0266549587249756,44.06034469604492,-5.603610992431641,6.068603992462158,-0.5654717087745667,-0.49947500228881836,-0.32848358154296875,-0.47785213589668274,0.9246485233306885,-5.207401275634766
89,1425463,1425464,-0.4900680482387543,-0.36957794427871704,1.1452330350875854,43.00471878051758,-8.527490615844727,7.926458358764648,-0.5579720735549927,-0.5129743218421936,-0.33598318696022034,-0.38258588314056396,1.2319611310958862,-5.141503810882568
90,1425473,1425474,-0.17095279693603516,-0.4606039822101593,1.0525039434432983,44.90415954589844,-16.518701553344727,7.105622291564941,-0.5669716596603394,-0.509974479675293,-0.3329833447933197,-0.15345850586891174,1.772875189781189,-5.036221504211426
91,1425483,1425484,-0.07492631673812866,-0.16965213418006897,1.0706653594970703,42.93638229370117,-27.114776611328125,5.435314655303955,-0.5564721822738647,-0.508474588394165,-0.33448326587677,-0.02752021700143814,2.101595401763916,-4.977342128753662
92,1425493,1425494,-0.24955938756465912,-0.050436489284038544,1.0560520887374878,33.07662582397461,-34.41566848754883,2.68940806388855,-0.5459727048873901,-0.5279735922813416,-0.3149842321872711,0.31590569019317627,2.6251368522644043,-4.904566764831543
93,1425503,1425504,-0.3726380169391632,-0.016324006021022797,1.0008705854415894,16.482776641845703,-35.352535247802734,-0.5478571653366089,-0.5504724383354187,-0.5264736413955688,-0.3254837095737457,0.5510896444320679,3.014234781265259,-4.9227190017700195
94,1425513,1425514,-0.290446937084198,-0.078555166721344,1.0201970338821411,-1.9696110486984253,-27.859228134155273,-2.1946098804473877,-0.5414729118347168,-0.508474588394165,-0.3134843111038208,0.8564027547836304,3.14320707321167,-4.959327697753906
95,1425523,1425524,-1.0793890953063965,-0.04092271998524666,1.0369480848312378,-19.42921257019043,-14.28100872039795,-2.518359661102295,-0.5534723401069641,-0.508474588394165,-0.31948402523994446,1.1497572660446167,3.0615859031677246,-4.992565155029297
96,1425533,1425534,-0.9179474711418152,0.014907154254615307,1.0199817419052124,-29.62017250061035,-3.7765188217163086,-2.9286155700683594,-0.5459727048873901,-0.509974479675293,-0.31798410415649414,1.1596121788024902,2.7410831451416016,-5.077790260314941
97,1425543,1425544,-0.08331464976072311,0.002600977662950754,0.9907810688018799,-33.02873229980469,3.7641353607177734,-3.2939164638519287,-0.5429728627204895,-0.5009749531745911,-0.30898454785346985,1.2205954790115356,2.411789894104004,-5.094490051269531
98,1425553,1425554,0.042685333639383316,0.015207388438284397,1.0133799314498901,-29.8376407623291,6.567085266113281,-5.395411491394043,-0.5354732275009155,-0.5054747462272644,-0.30748462677001953,1.1214519739151,2.191887855529785,-5.168193817138672
99,1425563,1425564,-0.06267529726028442,-0.02152732014656067,1.0257043838500977,-23.366750717163086,6.364597797393799,-6.649622440338135,-0.5444727540016174,-0.4964751601219177,-0.31948402523994446,1.0739275217056274,1.883486270904541,-5.209432601928711
100,1425573,1425574,-0.03454205021262169,-0.1358359307050705,0.90092933177948,-11.94411563873291,4.986690044403076,-6.507532119750977,-0.5489725470542908,-0.5039747953414917,-0.32698363065719604,1.0321542024612427,1.6396247148513794,-5.2612714767456055
101,1425583,1425584,-0.06678207963705063,-0.06526482105255127,1.011112093925476,-4.176640510559082,2.3549625873565674,-5.842695236206055,-0.5489725470542908,-0.5039747953414917,-0.32698363065719604,1.0102450847625732,1.691845178604126,-5.339955806732178
102,1425593,1425594,-0.09346408396959305,-0.39039143919944763,1.0276861190795898,1.9861712455749512,-2.9903085231781006,-5.046186447143555,-0.5489725470542908,-0.5039747953414917,-0.32698363065719604,1.0352203845977783,1.6331044435501099,-5.373347282409668
103,1425603,1425604,-0.28848928213119507,-0.1760459542274475,1.14556086063385,1.0596222877502441,-5.925152778625488,-4.917747497558594,-0.5429728627204895,-0.5039747953414917,-0.3239837884902954,0.9744547009468079,1.6330870389938354,-5.4579620361328125
104,1425613,1425614,-0.19084547460079193,-0.31137922406196594,1.0750348567962646,-3.4475257396698,-4.598503112792969,-4.249568939208984,-0.5459727048873901,-0.5039747953414917,-0.3239837884902954,0.9441756010055542,1.6686084270477295,-5.549391269683838
105,1425623,1425624,-0.18580830097198486,-0.036390382796525955,1.0275042057037354,-10.851702690124512,-0.7101739645004272,-3.1958441734313965,-0.5489725470542908,-0.5009749531745911,-0.3209839463233948,1.1027764081954956,1.7545303106307983,-5.564301490783691
106,1425633,1425634,-0.3713241219520569,-0.03524347022175789,1.0451611280441284,-18.897018432617188,-0.2740554213523865,-2.6155812740325928,-0.5399730205535889,-0.5009749531745911,-0.33598318696022034,1.1569455862045288,1.5668776035308838,-5.562727451324463
107,1425643,1425644,-0.41698017716407776,-0.25584933161735535,1.0162503719329834,-26.11597442626953,-1.5117896795272827,-2.526024103164673,-0.5564721822738647,-0.4964751601219177,-0.3224838674068451,1.2160629034042358,1.3335484266281128,-5.559274196624756
108,1425653,1425654,-0.4172569215297699,-0.37973058223724365,0.9887973070144653,-29.97572135925293,-1.1934006214141846,-2.370474338531494,-0.5339732766151428,-0.4829758405685425,-0.32698363065719604,1.2031582593917847,1.2221157550811768,-5.625646114349365
109,1425663,1425664,-0.2838117778301239,-0.2969037890434265,1.0269125699996948,-28.32079315185547,-1.766025185585022,-1.475150465965271,-0.5429728627204895,-0.5009749531745911,-0.3239837884902954,1.2423168420791626,0.7202980518341064,-5.59444522857666
110,1425673,1425674,-0.7954663634300232,-0.35100463032722473,1.0882108211517334,-21.180877685546875,-3.7169270515441895,-0.9053706526756287,-0.5324733853340149,-0.4844757616519928,-0.3134843111038208,1.1475231647491455,0.6866491436958313,-5.702552795410156
111,1425683,1425684,-0.734355092048645,-0.5618768930435181,1.0810623168945312,-11.035917282104492,0.5822579860687256,0.2971998453140259,-0.5519723892211914,-0.4919753968715668,-0.31798410415649414,1.20059335231781,0.5411496758460999,-5.722932815551758
112,1425693,1425694,-0.1517161875963211,-0.2556464374065399,1.007310152053833,-4.403820037841797,5.198268413543701,1.696260690689087,-0.5414729118347168,-0.49047547578811646,-0.32848358154296875,1.181701898574829,0.46034565567970276,-5.739232540130615
113,1425703,1425704,-0.05161968991160393,-0.26659461855888367,0.9512763023376465,-5.10917854309082,12.583674430847168,3.286750078201294,-0.5504724383354187,-0.48747560381889343,-0.3254837095737457,1.076231837272644,0.3105776011943817,-5.720841884613037
114,1425713,1425714,-0.1369522660970688,-0.024052316322922707,0.9862541556358337,-11.087251663208008,17.269792556762695,4.167072772979736,-0.5504724383354187,-0.4754762053489685,-0.3224838674068451,0.9480383396148682,0.13638809323310852,-5.664113998413086
115,1425723,1425724,-0.3810860216617584,-0.07988639920949936,0.9994425773620605,-16.72579002380371,19.324785232543945,5.0146894454956055,-0.5429728627204895,-0.4859756827354431,-0.3149842321872711,0.7643860578536987,-0.11458240449428558,-5.596207141876221
116,1425733,1425734,-0.06634020060300827,-0.16883835196495056,0.9630616903305054,-16.05629539489746,14.473114013671875,5.09229850769043,-0.5564721822738647,-0.46047696471214294,-0.3314834237098694,0.6594699025154114,-0.1312074363231659,-5.560532569885254
117,1425743,1425744,-0.16983602941036224,-0.1718866229057312,1.0304760932922363,-8.109354972839355,5.82441520690918,4.279116630554199,-0.5459727048873901,-0.4649767279624939,-0.3209839463233948,0.559602677822113,-0.1803819090127945,-5.525495529174805
118,1425753,1425754,-0.2616569399833679,0.03352583944797516,0.9905487298965454,4.327790260314941,-4.125454902648926,3.1386828422546387,-0.5669716596603394,-0.4679765999317169,-0.31798410415649414,0.44329845905303955,-0.16478246450424194,-5.512534141540527
119,1425763,1425764,-0.2712453007698059,-0.027577966451644897,1.0205154418945312,16.095691680908203,-12.629798889160156,1.8349543809890747,-0.5669716596603394,-0.4769761562347412,-0.3209839463233948,0.5411626100540161,-0.10809296369552612,-5.473202228546143
120,1425773,1425774,-0.36539989709854126,-0.04118400812149048,1.0170366764068604,20.63469886779785,-19.039813995361328,0.01449665054678917,-0.5609719157218933,-0.4859756827354431,-0.3209839463233948,0.6294763684272766,0.08627733588218689,-5.4652099609375
121,1425783,1425784,-0.14674904942512512,0.009492628276348114,0.9718720316886902,18.821001052856445,-20.517066955566406,-0.5666530728340149,-0.5669716596603394,-0.4769761562347412,-0.3329833447933197,0.8067253828048706,0.2544502913951874,-5.4562482833862305
122,1425793,1425794,-0.26015785336494446,-0.05996070057153702,1.0164490938186646,10.845967292785645,-15.400110244750977,-1.4495877027511597,-0.5504724383354187,-0.4844757616519928,-0.3254837095737457,1.046701192855835,0.4523540735244751,-5.457367897033691
123,1425803,1425804,-0.17068326473236084,0.1343126744031906,1.0029714107513428,-2.4289796352386475,-11.681229591369629,-2.8219494819641113,-0.5594720244407654,-0.4844757616519928,-0.31948402523994446,1.275673270225525,0.5074276328086853,-5.454259872436523
124,1425813,1425814,-0.3258126974105835,-0.24538740515708923,1.1192299127578735,-17.019794464111328,-7.714051246643066,-3.4533164501190186,-0.5444727540016174,-0.48147591948509216,-0.3134843111038208,1.4319003820419312,0.4117947518825531,-5.460197925567627
125,1425823,1425824,-0.745171844959259,-0.22088564932346344,0.9873527884483337,-27.04622459411621,-1.615058183670044,-3.530690908432007,-0.5444727540016174,-0.4934753179550171,-0.3224838674068451,1.4461584091186523,0.17252841591835022,-5.48673152923584
126,1425833,1425834,-0.4119219183921814,-0.5542290806770325,1.0396355390548706,-30.955537796020508,2.447110414505005,-1.5554639101028442,-0.5504724383354187,-0.46947652101516724,-0.32848358154296875,1.4600708484649658,-0.11763697862625122,-5.5174479484558105
127,1425843,1425844,-0.4149816930294037,-0.46648481488227844,1.0023741722106934,-33.31374740600586,5.1221818923950195,1.2068698406219482,-0.5474725961685181,-0.46947652101516724,-0.31948402523994446,1.4170185327529907,-0.3962545096874237,-5.5424275398254395
128,1425853,1425854,-0.41339361667633057,-0.3335455060005188,1.0448253154754639,-29.400493621826172,3.6352803707122803,4.450069904327393,-0.5489725470542908,-0.47097644209861755,-0.3239837884902954,1.3475797176361084,-0.7497745752334595,-5.5297346115112305
129,1425863,1425864,-0.09595414251089096,-0.116045281291008,1.0240274667739868,-20.80217933654785,2.605703830718994,7.420416831970215,-0.554972231388092,-0.4679765999317169,-0.3239837884902954,1.2930195331573486,-1.0878735780715942,-5.483156681060791
130,1425873,1425874,0.028523610904812813,-0.02987220510840416,0.9682198762893677,-8.447340965270996,4.020716190338135,9.67776870727539,-0.5384730696678162,-0.46947652101516724,-0.3134843111038208,1.3085237741470337,-1.1354187726974487,-5.4503254890441895
131,1425883,1425884,-0.3009294867515564,-0.4492280185222626,1.0183883905410767,8.85229206085205,5.691496849060059,12.384729385375977,-0.5414729118347168,-0.47247636318206787,-0.3404829800128937,1.2951910495758057,-1.2590755224227905,-5.3592448234558105
132,1425893,1425894,-0.13356073200702667,-0.5690131783485413,1.0695689916610718,25.467531204223633,11.140467643737793,14.295354843139648,-0.5474725961685181,-0.46947652101516724,-0.3224838674068451,1.161098599433899,-1.1756913661956787,-5.241397857666016
133,1425903,1425904,-0.12759073078632355,-0.5110934972763062,1.022635817527771,37.90642547607422,11.026933670043945,15.191163063049316,-0.5579720735549927,-0.47097644209861755,-0.32998350262641907,1.160530924797058,-0.7738988399505615,-5.148664474487305
134,1425913,1425914,-0.3032754063606262,-0.5038254857063293,1.0277708768844604,42.37187576293945,8.62376880645752,15.203756332397461,-0.5564721822738647,-0.49047547578811646,-0.3224838674068451,0.9586225748062134,-0.3608264625072479,-5.006169319152832
135,1425923,1425924,-0.09592407941818237,-0.5523738265037537,1.034498691558838,33.734439849853516,7.573195457458496,14.471061706542969,-0.5564721822738647,-0.48147591948509216,-0.3224838674068451,0.8698557019233704,-0.08922675251960754,-4.829826354980469
136,1425933,1425934,-0.16947461664676666,-0.19570249319076538,0.9836586713790894,16.5802001953125,7.494821548461914,13.789398193359375,-0.5519723892211914,-0.4829758405685425,-0.3239837884902954,0.8114022016525269,0.24293698370456696,-4.68287467956543
137,1425943,1425944,-0.4129878282546997,-0.016529014334082603,0.9693452715873718,-6.653589725494385,6.811501979827881,13.40914535522461,-0.562471866607666,-0.49047547578811646,-0.32848358154296875,0.7549392580986023,0.3624362647533417,-4.529455661773682
138,1425953,1425954,-0.296787291765213,-0.20897799730300903,1.080942988395691,-26.635189056396484,7.583824157714844,12.980737686157227,-0.5564721822738647,-0.4754762053489685,-0.3134843111038208,0.6736757755279541,0.07273208349943161,-4.3491387367248535
139,1425963,1425964,-0.20383606851100922,-0.5638434290885925,1.0492373704910278,-42.46575164794922,9.03510856628418,12.05698299407959,-0.5444727540016174,-0.47247636318206787,-0.32848358154296875,0.49726325273513794,-0.16198189556598663,-4.213607311248779
140,1425973,1425974,-0.13406480848789215,-0.40609726309776306,0.948162853717804,-49.75558090209961,12.085037231445312,10.532449722290039,-0.5579720735549927,-0.4859756827354431,-0.31798410415649414,0.5020735263824463,-0.481758713722229,-4.109043121337891
141,1425983,1425984,-0.13166937232017517,-0.1124105378985405,1.0222326517105103,-50.08877182006836,15.715933799743652,9.428760528564453,-0.5534723401069641,-0.47247636318206787,-0.33448326587677,0.38788744807243347,-1.3226221799850464,-3.957550048828125
142,1425993,1425994,-0.3628000020980835,-0.3598228693008423,0.9807766675949097,-42.68408966064453,19.779306411743164,8.777892112731934,-0.562471866607666,-0.4634768068790436,-0.31948402523994446,0.28918400406837463,-1.4844669103622437,-3.9115591049194336
143,1426003,1426004,-0.5388058423995972,-0.09862743318080902,0.9909465909004211,-29.85552215576172,23.876455307006836,7.33544921875,-0.562471866607666,-0.4544772803783417,-0.3254837095737457,-0.0706351101398468,-2.081817865371704,-3.7963688373565674
144,1426013,1426014,-0.5449677109718323,-0.1516757607460022,1.067600131034851,-12.77163314819336,28.277711868286133,6.9316935539245605,-0.562471866607666,-0.4454777240753174,-0.3224838674068451,-0.21170692145824432,-2.2255711555480957,-3.7548515796661377
145,1426023,1426024,-0.09070936590433121,-0.007731107994914055,0.9983129501342773,6.281067371368408,29.73986053466797,7.156569480895996,-0.56997150182724,-0.45297732949256897,-0.31798410415649414,-0.48468679189682007,-2.373443365097046,-3.6957194805145264
146,1426033,1426034,-0.008362461812794209,0.018576806411147118,0.9732332825660706,22.281309127807617,24.87874412536621,6.944901943206787,-0.5669716596603394,-0.455977201461792,-0.3329833447933197,-0.8973056077957153,-2.232656955718994,-3.617846727371216
147,1426043,1426044,-0.04182764142751694,-0.036675747483968735,1.001164436340332,32.25646209716797,16.04668426513672,6.802685737609863,-0.5639718174934387,-0.46197688579559326,-0.32998350262641907,-1.0673245191574097,-2.075549840927124,-3.5740761756896973
148,1426053,1426054,-0.012346416711807251,-0.08045446127653122,0.9034083485603333,37.098236083984375,2.3693130016326904,6.625448703765869,-0.5684715509414673,-0.48747560381889343,-0.3314834237098694,-1.0027662515640259,-1.6259784698486328,-3.5624709129333496
149,1426063,1426064,-0.023965399712324142,-0.012889843434095383,0.9612035751342773,33.020751953125,-14.080301284790039,7.205077648162842,-0.5684715509414673,-0.46947652101516724,-0.3314834237098694,-0.9984577298164368,-1.4236916303634644,-3.5163848400115967
150,1426073,1426074,-0.11136818677186966,-0.12739042937755585,1.0216670036315918,24.059282302856445,-29.067838668823242,8.21010684967041,-0.5729713439941406,-0.47997599840164185,-0.3329833447933197,-0.7536530494689941,-1.0040810108184814,-3.4689223766326904
151,1426083,1426084,-0.0973571166396141,-0.23372626304626465,1.0342109203338623,13.190950393676758,-37.201534271240234,9.195579528808594,-0.5714713931083679,-0.47247636318206787,-0.31948402523994446,-0.3915907144546509,-0.6701473593711853,-3.403547763824463
152,1426093,1426094,-0.10914023965597153,-0.598383903503418,1.042210340499878,2.5506043434143066,-37.24882125854492,9.388792991638184,-0.5654717087745667,-0.49047547578811646,-0.3254837095737457,-0.15068593621253967,-0.8699215054512024,-3.313100576400757
153,1426103,1426104,-0.4637000560760498,-0.36234980821609497,1.0840613842010498,-2.7293989658355713,-32.16764831542969,9.768274307250977,-0.5609719157218933,-0.49797508120536804,-0.33898305892944336,0.36418208479881287,-0.7654750347137451,-3.243969202041626
154,1426113,1426114,-0.5032736659049988,-0.13658566772937775,1.05397367477417,-1.6755810976028442,-21.102880477905273,10.854086875915527,-0.5459727048873901,-0.4859756827354431,-0.33898305892944336,0.4850703477859497,-0.7989137172698975,-3.099459409713745
155,1426123,1426124,-0.049957942217588425,0.0021705219987779856,1.0299673080444336,0.6077860593795776,-5.3899993896484375,11.950835227966309,-0.554972231388092,-0.4919753968715668,-0.34498274326324463,0.7088456749916077,-0.8161574602127075,-2.9917194843292236
156,1426133,1426134,-0.06359962373971939,0.0551287904381752,1.0102102756500244,6.300960540771484,7.237485408782959,13.641438484191895,-0.5444727540016174,-0.47247636318206787,-0.33448326587677,0.7045168280601501,-0.7726746201515198,-2.855567693710327
157,1426143,1426144,-0.3288845419883728,-0.055648963898420334,1.0103615522384644,13.163161277770996,16.412742614746094,14.12983226776123,-0.5534723401069641,-0.48747560381889343,-0.33748310804367065,0.7175241708755493,-0.7030138373374939,-2.7389004230499268
158,1426153,1426154,-0.0768161416053772,0.004087694920599461,1.0099457502365112,20.0736083984375,23.008024215698242,15.581162452697754,-0.5654717087745667,-0.48147591948509216,-0.3404829800128937,0.3737695813179016,-0.5293574333190918,-2.5602266788482666
159,1426163,1426164,-0.004824107978492975,0.0369722917675972,0.9934775829315186,25.607807159423828,25.162067413330078,16.009225845336914,-0.5744712948799133,-0.48147591948509216,-0.33448326587677,0.1073790118098259,-0.4575008749961853,-2.4044034481048584
160,1426173,1426174,-0.007518094033002853,-0.035816553980112076,1.0554970502853394,26.390399932861328,25.479419708251953,16.37562370300293,-0.5684715509414673,-0.4844757616519928,-0.3254837095737457,-0.2564704120159149,-0.1053951159119606,-2.220371723175049
161,1426183,1426184,-0.012998906895518303,-0.013506464660167694,0.9941646456718445,21.361698150634766,21.268863677978516,16.940698623657227,-0.5594720244407654,-0.49947500228881836,-0.32848358154296875,-0.4522707164287567,0.22634047269821167,-2.062901020050049
162,1426193,1426194,-0.11376114934682846,-0.13053949177265167,0.9853476881980896,13.693763732910156,13.69413948059082,17.054641723632812,-0.5729713439941406,-0.4919753968715668,-0.32998350262641907,-0.6341260671615601,0.33202770352363586,-1.905720829963684
163,1426203,1426204,-0.080438993871212,-0.07312232255935669,1.033109188079834,4.690884590148926,4.7165703773498535,16.963178634643555,-0.5759711861610413,-0.47997599840164185,-0.3239837884902954,-0.6917687058448792,0.4579381048679352,-1.7466189861297607
164,1426213,1426214,-0.22848300635814667,-0.11782681196928024,0.9703016877174377,-4.4371113777160645,-3.447572946548462,15.912788391113281,-0.5714713931083679,-0.4844757616519928,-0.31948402523994446,-0.7531313896179199,0.5108827948570251,-1.5773917436599731
165,1426223,1426224,-0.4575405418872833,-0.11273754388093948,1.0609573125839233,-10.24474811553955,-11.26534652709961,13.81714153289795,-0.5714713931083679,-0.4844757616519928,-0.3314834237098694,-0.6795977354049683,0.43381962180137634,-1.426729440689087
166,1426233,1426234,-0.4402177929878235,-0.15185989439487457,1.045039415359497,-7.528620719909668,-13.269126892089844,11.880728721618652,-0.5609719157218933,-0.5009749531745911,-0.3239837884902954,-0.5808110237121582,0.37610456347465515,-1.2826220989227295
167,1426243,1426244,-0.07853531837463379,-0.34431564807891846,1.0628690719604492,-3.570491313934326,-10.902483940124512,8.780787467956543,-0.562471866607666,-0.4844757616519928,-0.33448326587677,-0.4000731408596039,0.28233858942985535,-1.1665257215499878
168,1426253,1426254,-0.029239865019917488,-0.06544139236211777,1.023473858833313,2.4409523010253906,-7.5081281661987305,5.244417667388916,-0.5669716596603394,-0.4949752390384674,-0.3209839463233948,-0.266715407371521,0.2642425298690796,-1.0716383457183838
169,1426263,1426264,-0.049773670732975006,0.038280196487903595,0.9796876311302185,9.000055313110352,-5.090750217437744,2.53977108001709,-0.5744712948799133,-0.4844757616519928,-0.3224838674068451,-0.11170457303524017,0.3399888277053833,-1.0089253187179565
170,1426273,1426274,-0.09187490493059158,-0.007338566705584526,1.0336171388626099,15.998952865600586,-3.7351551055908203,-1.744376540184021,-0.5759711861610413,-0.4859756827354431,-0.32998350262641907,-0.07134106755256653,0.5183936953544617,-0.9694325923919678
171,1426283,1426284,-0.09724687039852142,-0.008268752135336399,1.0465912818908691,18.435401916503906,-1.9100532531738281,-5.117406368255615,-0.56997150182724,-0.49797508120536804,-0.3239837884902954,-0.12787653505802155,0.5682206749916077,-0.9926796555519104
172,1426293,1426294,-0.08619899302721024,-0.10375719517469406,0.8966993689537048,14.521893501281738,2.277649164199829,-8.71178150177002,-0.5819708704948425,-0.48897555470466614,-0.3329833447933197,-0.0791039913892746,0.7059920430183411,-1.0428122282028198
173,1426303,1426304,-0.02847542241215706,-0.09691780060529709,0.966450572013855,1.7919710874557495,7.851280689239502,-10.06882381439209,-0.5804709792137146,-0.4934753179550171,-0.3254837095737457,-0.03734293952584267,0.8171007633209229,-1.1239548921585083
174,1426313,1426314,-0.3394945561885834,0.004415242001414299,0.9891860485076904,-14.37160873413086,14.168750762939453,-10.547626495361328,-0.5759711861610413,-0.48897555470466614,-0.3149842321872711,-0.23578491806983948,0.8500446677207947,-1.2284791469573975
175,1426323,1426324,-0.34471240639686584,-0.12601575255393982,0.8920315504074097,-28.149715423583984,22.14699935913086,-10.454140663146973,-0.5789710283279419,-0.4829758405685425,-0.31798410415649414,-0.2520761489868164,0.7165882587432861,-1.328905701637268
176,1426333,1426334,-0.2755884528160095,-0.017947236075997353,0.8405634164810181,-36.97938919067383,29.0009765625,-8.757566452026367,-0.5759711861610413,-0.4859756827354431,-0.3209839463233948,-0.5350134372711182,0.5979909300804138,-1.4206886291503906
177,1426343,1426344,-0.06616766005754471,-0.051327385008335114,0.9792653918266296,-40.375858306884766,34.56167984008789,-6.121409893035889,-0.5759711861610413,-0.4679765999317169,-0.3119843900203705,-0.786901593208313,0.12473335862159729,-1.5235986709594727
178,1426353,1426354,-0.0045001329854130745,0.01257922500371933,1.0217257738113403,-29.211843490600586,37.855403900146484,-3.6097640991210938,-0.56997150182724,-0.4679765999317169,-0.3239837884902954,-1.2489796876907349,-0.2644023597240448,-1.5975059270858765
179,1426363,1426364,-0.14125961065292358,-0.28857675194740295,1.053653597831726,-9.476472854614258,32.97004318237305,-2.304892063140869,-0.56997150182724,-0.47097644209861755,-0.3119843900203705,-1.648517370223999,-0.5268687605857849,-1.6325188875198364
180,1426373,1426374,-0.16190938651561737,-0.17109531164169312,1.0186519622802734,12.96471881866455,16.106176376342773,-0.7172940373420715,-0.56997150182724,-0.47097644209861755,-0.3119843900203705,-1.8457520008087158,-0.5320048332214355,-1.6305357217788696
181,1426383,1426384,-0.04482123255729675,-0.06829357892274857,1.0466036796569824,31.720247268676758,-5.1931281089782715,0.3036735951900482,-0.56997150182724,-0.47097644209861755,-0.3119843900203705,-1.8467650413513184,-0.4877585172653198,-1.639472484588623
182,1426393,1426394,-0.03195303678512573,-0.08015082776546478,1.0643881559371948,39.54581832885742,-29.280818939208984,1.9784694910049438,-0.5864706635475159,-0.49047547578811646,-0.33748310804367065,-1.7067973613739014,-0.04069935157895088,-1.5961289405822754
183,1426403,1426404,-0.3860410749912262,-0.06833820790052414,0.9637978672981262,30.930057525634766,-48.658084869384766,3.318964958190918,-0.5789710283279419,-0.4859756827354431,-0.34498274326324463,-1.4711817502975464,0.3170364797115326,-1.5853716135025024
184,1426413,1426414,-0.469463586807251,-0.13366590440273285,1.0747979879379272,19.527095794677734,-56.911415100097656,5.648433208465576,-0.577471137046814,-0.5144742727279663,-0.34648266434669495,-0.9011983871459961,0.5494694709777832,-1.5738434791564941
185,1426423,1426424,-0.3692537844181061,-0.12002979964017868,1.2116827964782715,5.658668041229248,-54.73249053955078,7.015261650085449,-0.5684715509414673,-0.508474588394165,-0.33748310804367065,-0.3183494508266449,0.736152708530426,-1.5356134176254272
186,1426433,1426434,-0.4366227090358734,-0.005510576069355011,1.029511570930481,-6.151890277862549,-42.78789138793945,7.530467987060547,-0.5684715509414673,-0.502474844455719,-0.3254837095737457,0.06045397371053696,0.7755043506622314,-1.4915505647659302
187,1426443,1426444,-0.21732687950134277,0.11356599628925323,1.0158417224884033,-15.17501163482666,-23.31943702697754,7.997595310211182,-0.5729713439941406,-0.5009749531745911,-0.33598318696022034,0.5087481141090393,0.6406203508377075,-1.4432463645935059
188,1426453,1426454,-0.2994740903377533,-0.5004128813743591,1.0134024620056152,-15.429351806640625,0.2934715151786804,7.906174659729004,-0.562471866607666,-0.49047547578811646,-0.3224838674068451,0.6235520839691162,0.550583004951477,-1.3717117309570312
189,1426463,1426464,-0.09305785596370697,-0.16947907209396362,1.0322157144546509,-12.732514381408691,19.46802520751953,6.667911529541016,-0.5669716596603394,-0.47997599840164185,-0.31798410415649414,0.5979102253913879,0.4452555775642395,-1.2911972999572754
190,1426473,1426474,-0.2472534030675888,-0.040803879499435425,1.0512560606002808,-8.928163528442383,30.15333366394043,4.854403495788574,-0.5744712948799133,-0.48147591948509216,-0.33448326587677,0.24475215375423431,0.31489288806915283,-1.2374497652053833
191,1426483,1426484,-0.7051199078559875,-0.0228164903819561,1.0417152643203735,-1.4255677461624146,40.595149993896484,3.6668779850006104,-0.5669716596603394,-0.4739762842655182,-0.31798410415649414,0.06610723584890366,0.19201171398162842,-1.1783384084701538
192,1426493,1426494,-0.2427910566329956,0.044324666261672974,0.9677878618240356,3.983272075653076,44.70387649536133,1.4546834230422974,-0.5714713931083679,-0.48747560381889343,-0.3134843111038208,-0.39650437235832214,0.17733636498451233,-1.1440171003341675
193,1426503,1426504,-0.049084246158599854,-0.1064140573143959,1.035509705543518,5.860389232635498,40.66619873046875,-0.5650083422660828,-0.577471137046814,-0.48147591948509216,-0.31948402523994446,-0.81465083360672,0.23650780320167542,-1.1189106702804565
194,1426513,1426514,0.01741359941661358,-0.840918779373169,0.9915610551834106,8.592245101928711,28.938690185546875,-1.8009439706802368,-0.5999699831008911,-0.47097644209861755,-0.3119843900203705,-1.134664535522461,0.330361932516098,-1.105492353439331
195,1426523,1426524,-0.3259040415287018,-0.6569241285324097,1.0521471500396729,13.04692554473877,10.352246284484863,-2.856070041656494,-0.5879706144332886,-0.46197688579559326,-0.3209839463233948,-1.441646933555603,0.4725950062274933,-1.1123020648956299
196,1426533,1426534,-0.8263731002807617,-0.00014757153985556215,0.9876731634140015,16.211280822753906,-9.476704597473145,-2.071187973022461,-0.5954701900482178,-0.4664766788482666,-0.3164841830730438,-1.453710913658142,0.6777618527412415,-1.1177911758422852
197,1426543,1426544,-0.31307122111320496,0.14248237013816833,0.9779348969459534,19.568925857543945,-29.232261657714844,-2.5515758991241455,-0.5879706144332886,-0.4649767279624939,-0.3149842321872711,-1.2480963468551636,0.7299091219902039,-1.1472141742706299
198,1426553,1426554,-0.4581226110458374,-0.221856951713562,1.1523995399475098,21.49952507019043,-45.08132553100586,-4.630291938781738,-0.5834708213806152,-0.47247636318206787,-0.31948402523994446,-0.9733676314353943,0.9638062119483948,-1.1677095890045166
199,1426563,1426564,-0.8742606043815613,-0.42955681681632996,0.9898402690887451,14.187941551208496,-49.122642517089844,-4.877094268798828,-0.5939702987670898,-0.4739762842655182,-0.3209839463233948,-0.4945368766784668,1.237321138381958,-1.2016854286193848
200,1426573,1426574,-0.6984803676605225,-0.6951885223388672,1.028054118156433,2.236461639404297,-44.98038864135742,-4.092493057250977,-0.5744712948799133,-0.4934753179550171,-0.30748462677001953,0.10663153976202011,1.303780436515808,-1.2607762813568115
201,1426583,1426584,-0.5580592155456543,-0.5290830135345459,1.0568394660949707,-9.394583702087402,-33.73223114013672,-2.6300222873687744,-0.5759711861610413,-0.47997599840164185,-0.3209839463233948,0.27729734778404236,1.2667180299758911,-1.3595497608184814
202,1426593,1426594,-0.530727207660675,-0.3786824643611908,1.0691041946411133,-15.41158390045166,-22.89322853088379,-1.5947750806808472,-0.5684715509414673,-0.48747560381889343,-0.3224838674068451,0.6415826082229614,1.147501826286316,-1.3977705240249634
203,1426603,1426604,-0.6415621042251587,-0.29709210991859436,1.0099908113479614,-17.458599090576172,-10.129976272583008,-0.853827714920044,-0.56997150182724,-0.4679765999317169,-0.30898454785346985,0.8195127844810486,1.0835309028625488,-1.4241085052490234
204,1426613,1426614,-0.8086606860160828,-0.05110758915543556,1.015928030014038,-14.212557792663574,0.1740650236606598,-1.0090487003326416,-0.5789710283279419,-0.455977201461792,-0.30898454785346985,0.954376220703125,0.8699241280555725,-1.4378362894058228
205,1426623,1426624,-0.6165152788162231,-0.3052174746990204,1.1076595783233643,-9.350991249084473,10.24493408203125,-0.4612436294555664,-0.5744712948799133,-0.4544772803783417,-0.29848507046699524,0.9916171431541443,0.7117422223091125,-1.449060082435608
206,1426633,1426634,-0.8167802095413208,-0.6611000299453735,0.9960839748382568,-4.923574447631836,15.424067497253418,0.25574368238449097,-0.56997150182724,-0.4589770436286926,-0.30898454785346985,0.7980711460113525,0.7554260492324829,-1.4651238918304443
207,1426643,1426644,-0.38530203700065613,-0.5438823699951172,0.9272450804710388,-3.3738045692443848,12.368878364562988,0.43455398082733154,-0.5729713439941406,-0.4649767279624939,-0.2969851493835449,0.6216108202934265,0.6448804140090942,-1.4681576490402222
208,1426653,1426654,-0.02784832939505577,-0.3375478684902191,0.8520763516426086,-3.85605788230896,4.169393539428711,1.2343417406082153,-0.5744712948799133,-0.43347832560539246,-0.30748462677001953,0.5160841941833496,0.5500326752662659,-1.4632642269134521
209,1426663,1426664,-0.254114031791687,-0.3153635859489441,0.8501615524291992,-2.946614980697632,-1.7030376195907593,1.505732536315918,-0.5924703478813171,-0.4544772803783417,-0.3134843111038208,0.4551320970058441,0.6112715005874634,-1.4534331560134888
210,1426673,1426674,-0.3772984445095062,-0.17260527610778809,0.8871263265609741,-2.301238536834717,-3.2588388919830322,3.625668525695801,-0.5804709792137146,-0.4454777240753174,-0.2954852283000946,0.5253285765647888,0.6633182764053345,-1.433211088180542
211,1426683,1426684,-0.1517411321401596,-0.06001213192939758,0.9829471111297607,1.9685498476028442,0.7743425965309143,4.878632545471191,-0.5894705057144165,-0.4574771225452423,-0.3224838674068451,0.5507132411003113,0.5986148715019226,-1.398242712020874
212,1426693,1426694,0.008880711160600185,-0.04885314777493477,0.969243586063385,7.705324172973633,9.053370475769043,4.164890289306641,-0.5714713931083679,-0.4664766788482666,-0.31048446893692017,0.5754919648170471,0.6784558296203613,-1.3525090217590332
213,1426703,1426704,-0.4944153428077698,-0.017800061032176018,1.016390085220337,12.296941757202148,15.53613567352295,2.9810993671417236,-0.577471137046814,-0.46947652101516724,-0.30748462677001953,0.40702277421951294,0.8468338847160339,-1.3295669555664062
214,1426713,1426714,-0.5432137846946716,-0.26871272921562195,0.9781437516212463,15.385634422302246,19.782928466796875,-0.10122525691986084,-0.5714713931083679,-0.4664766788482666,-0.3164841830730438,0.2606000304222107,1.0046566724777222,-1.2995061874389648
215,1426723,1426724,-0.2521643340587616,-0.38785746693611145,0.896841287612915,17.24746322631836,19.219711303710938,-4.111326694488525,-0.577471137046814,-0.4844757616519928,-0.3164841830730438,0.07155320793390274,1.136722445487976,-1.2885704040527344
216,1426733,1426734,-0.4031641483306885,-0.39043107628822327,1.0536304712295532,10.026013374328613,15.409974098205566,-8.41842269897461,-0.577471137046814,-0.4844757616519928,-0.3224838674068451,-0.16039280593395233,1.3227171897888184,-1.323891282081604
217,1426743,1426744,-0.13766756653785706,-0.5626921653747559,1.1926754713058472,-1.298848032951355,2.767167329788208,-12.589228630065918,-0.577471137046814,-0.48147591948509216,-0.31948402523994446,-0.36127185821533203,1.377868890762329,-1.396995186805725
218,1426753,1426754,-0.5157908201217651,-0.15880849957466125,1.08876633644104,-15.485538482666016,-6.751043319702148,-15.573224067687988,-0.5879706144332886,-0.4949752390384674,-0.31798410415649414,-0.2387375384569168,1.3214861154556274,-1.4822330474853516
219,1426763,1426764,-0.2669597864151001,-0.1877051442861557,0.9617597460746765,-33.99216079711914,-10.849398612976074,-18.60067367553711,-0.5684715509414673,-0.4844757616519928,-0.32848358154296875,-0.26905274391174316,1.0807592868804932,-1.6484688520431519
220,1426773,1426774,-0.2259964942932129,-0.17710331082344055,0.9389038681983948,-55.73295974731445,-14.217336654663086,-20.5522518157959,-0.5594720244407654,-0.48147591948509216,-0.3164841830730438,-0.06629983335733414,0.8143064379692078,-1.8162646293640137
221,1426783,1426784,-0.4881218373775482,-0.45163053274154663,0.9339339137077332,-70.58345794677734,-12.577634811401367,-22.110904693603516,-0.5654717087745667,-0.46047696471214294,-0.3224838674068451,0.14859400689601898,0.2204284518957138,-2.0067474842071533
222,1426793,1426794,-0.5071396827697754,-0.10050828754901886,0.9478169083595276,-68.11063385009766,-7.162113666534424,-22.964237213134766,-0.5654717087745667,-0.46947652101516724,-0.31048446893692017,0.16469939053058624,-0.5798779129981995,-2.24196195602417
223,1426803,1426804,-0.3451725244522095,-0.14614132046699524,0.9459000825881958,-52.70515441894531,2.929790496826172,-24.871488571166992,-0.562471866607666,-0.4664766788482666,-0.3164841830730438,0.22719421982765198,-0.9394700527191162,-2.481990098953247
224,1426813,1426814,-0.02396359108388424,-0.5756217837333679,0.9301605224609375,-30.515573501586914,11.3822021484375,-25.39500617980957,-0.5579720735549927,-0.44397780299186707,-0.3239837884902954,0.1991553157567978,-1.4940264225006104,-2.7293601036071777
225,1426823,1426824,0.04021015018224716,-0.2871587574481964,1.0199214220046997,-2.2686142921447754,18.932079315185547,-25.254194259643555,-0.5804709792137146,-0.45147740840911865,-0.3314834237098694,0.1748795062303543,-1.7088563442230225,-2.9814298152923584
226,1426833,1426834,-0.06528344750404358,-0.3665143847465515,1.0431950092315674,18.189722061157227,26.836034774780273,-22.743803024291992,-0.5639718174934387,-0.44997748732566833,-0.32698363065719604,-0.10170059651136398,-1.7509053945541382,-3.2404258251190186
227,1426843,1426844,0.03768108785152435,0.005442956928163767,0.9959957003593445,34.903324127197266,29.171342849731445,-22.137130737304688,-0.5684715509414673,-0.4754762053489685,-0.31948402523994446,-0.3848576247692108,-1.4681121110916138,-3.479733467102051
228,1426853,1426854,-0.022265778854489326,0.0472060851752758,1.061230182647705,44.90930938720703,20.095523834228516,-20.83907127380371,-0.562471866607666,-0.4664766788482666,-0.3404829800128937,-0.7334535717964172,-1.0149292945861816,-3.707301378250122
229,1426863,1426864,-0.2768905758857727,-0.09415005892515182,1.047584891319275,45.89802551269531,6.829402446746826,-20.43138885498047,-0.5669716596603394,-0.47997599840164185,-0.33598318696022034,-0.8483673334121704,-0.5893473625183105,-3.9245290756225586
230,1426873,1426874,-0.21469441056251526,-0.6155574321746826,0.9664296507835388,39.814334869384766,-7.257930755615234,-19.706274032592773,-0.5729713439941406,-0.4919753968715668,-0.33598318696022034,-0.8516366481781006,-0.3784308433532715,-4.139194011688232
231,1426883,1426884,-0.07655669003725052,-0.1774115413427353,0.9695662260055542,17.593326568603516,-22.269290924072266,-18.770465850830078,-0.5594720244407654,-0.46947652101516724,-0.3404829800128937,-0.6816108822822571,0.019614307209849358,-4.34317684173584
232,1426893,1426894,-0.020635275170207024,-0.005963570438325405,0.9932143688201904,-4.818465232849121,-23.170515060424805,-16.4299259185791,-0.5594720244407654,-0.48147591948509216,-0.3224838674068451,-0.6321076154708862,0.1477060467004776,-4.525354385375977
233,1426903,1426904,-0.2419075220823288,-0.08583295345306396,1.0417929887771606,-27.204301834106445,-16.992860794067383,-13.399199485778809,-0.5564721822738647,-0.4754762053489685,-0.3314834237098694,-0.295433908700943,-0.038607120513916016,-4.706953048706055
234,1426913,1426914,-0.04947131499648094,-0.058636877685785294,1.003051519393921,-39.63066101074219,-12.398981094360352,-12.503349304199219,-0.5534723401069641,-0.4634768068790436,-0.31948402523994446,-0.13412722945213318,-0.3780454695224762,-4.846385478973389
235,1426923,1426924,-0.05797530710697174,-0.13382412493228912,0.9232715964317322,-44.20288848876953,1.8077539205551147,-12.226078987121582,-0.5489725470542908,-0.4649767279624939,-0.32698363065719604,-0.03609149530529976,-0.656472384929657,-4.965184211730957
236,1426933,1426934,-0.05824744328856468,-0.06281866133213043,0.9785010814666748,-44.77863311767578,18.364604949951172,-9.802542686462402,-0.5579720735549927,-0.44397780299186707,-0.3239837884902954,-0.2289554327726364,-1.201405644416809,-5.0774359703063965
237,1426943,1426944,-0.0058958218432962894,-0.07932222634553909,0.9621867537498474,-39.326683044433594,24.58989715576172,-8.742862701416016,-0.5579720735549927,-0.4469776451587677,-0.3239837884902954,-0.4683142304420471,-1.4469956159591675,-5.170839786529541
238,1426953,1426954,-0.08374697715044022,-0.17948567867279053,1.0231536626815796,-21.688037872314453,28.36506462097168,-5.780092716217041,-0.5639718174934387,-0.44097793102264404,-0.3239837884902954,-0.7323721647262573,-1.815929651260376,-5.264267921447754
239,1426963,1426964,-0.06380467116832733,-0.09755882620811462,0.9769437909126282,0.1756308525800705,27.046384811401367,-2.542130947113037,-0.5744712948799133,-0.4394780099391937,-0.3224838674068451,-1.028705358505249,-1.9578582048416138,-5.326830863952637
240,1426973,1426974,-0.3863889276981354,0.004499128088355064,0.9507151246070862,19.539777755737305,18.841398239135742,-2.911932945251465,-0.5669716596603394,-0.45297732949256897,-0.3149842321872711,-1.3927838802337646,-1.9385533332824707,-5.344350337982178
241,1426983,1426984,-0.49749886989593506,-0.19266922771930695,1.0128711462020874,39.00908279418945,2.271453380584717,-6.259738445281982,-0.5744712948799133,-0.4544772803783417,-0.32848358154296875,-1.366750717163086,-1.5847175121307373,-5.400038719177246
242,1426993,1426994,-0.16204558312892914,-0.20525877177715302,1.0502158403396606,48.90508270263672,-16.09026336669922,-9.737541198730469,-0.5729713439941406,-0.46197688579559326,-0.32698363065719604,-1.3749712705612183,-1.3276861906051636,-5.48082971572876
243,1427003,1427004,-0.04725144803524017,-0.05247526615858078,1.0317749977111816,42.185447692871094,-39.03894805908203,-13.232415199279785,-0.5714713931083679,-0.48147591948509216,-0.3254837095737457,-1.0378496646881104,-0.7932742238044739,-5.601413726806641
244,1427013,1427014,-0.09944604337215424,-0.1074313074350357,0.9947690367698669,23.490673065185547,-54.78251647949219,-15.217120170593262,-0.5579720735549927,-0.4769761562347412,-0.31798410415649414,-0.7376348376274109,-0.5656295418739319,-5.737074851989746
245,1427023,1427024,-0.19850270450115204,-0.04977677762508392,0.9996762871742249,2.793564558029175,-55.54220962524414,-15.554495811462402,-0.5579720735549927,-0.48897555470466614,-0.32998350262641907,-0.06261797994375229,-0.3431684672832489,-5.914616584777832
246,1427033,1427034,-0.38096126914024353,-0.05126955360174179,1.036238193511963,-16.571897506713867,-50.35496139526367,-12.488523483276367,-0.5504724383354187,-0.4844757616519928,-0.32848358154296875,0.594096302986145,-0.4453163146972656,-6.098315238952637
247,1427043,1427044,-0.8471350073814392,-0.1587759554386139,1.040450096130371,-24.701650619506836,-37.975704193115234,-8.59082317352295,-0.5324733853340149,-0.4754762053489685,-0.3314834237098694,0.8337147235870361,-0.5537195801734924,-6.174906253814697
248,1427053,1427054,-0.45390650629997253,-0.323737770318985,1.009202003479004,-24.89360809326172,-18.233915328979492,-5.398493766784668,-0.5369731187820435,-0.47097644209861755,-0.32698363065719604,1.05657958984375,-0.908953070640564,-6.239721298217773
249,1427063,1427064,0.10213934630155563,-0.4852418601512909,0.9589939713478088,-20.609657287597656,0.591752290725708,-2.8617868423461914,-0.5429728627204895,-0.4739762842655182,-0.33898305892944336,1.204391360282898,-1.031479001045227,-6.278142929077148
250,1427073,1427074,-0.4243718981742859,-0.11746063083410263,1.0488754510879517,-12.408464431762695,17.21030616760254,-0.8090818524360657,-0.5489725470542908,-0.46197688579559326,-0.3239837884902954,1.1341632604599,-1.2827781438827515,-6.288973331451416
251,1427083,1427084,-0.7790695428848267,0.07058462500572205,1.0235055685043335,-2.693408250808716,28.934337615966797,0.2225557416677475,-0.5354732275009155,-0.4544772803783417,-0.32848358154296875,0.8293273448944092,-1.3913849592208862,-6.275805473327637
252,1427093,1427094,-0.43767136335372925,-0.367604523897171,1.0556422472000122,8.447609901428223,33.50718688964844,1.3505842685699463,-0.5489725470542908,-0.4649767279624939,-0.32698363065719604,0.5094946622848511,-1.3932846784591675,-6.275109767913818
253,1427103,1427104,-0.3340354561805725,-0.22939597070217133,1.0566962957382202,10.906797409057617,34.846065521240234,2.6381146907806396,-0.5639718174934387,-0.4649767279624939,-0.32698363065719604,0.14331687986850739,-1.211742639541626,-6.2669358253479
254,1427113,1427114,-0.3829594850540161,0.08507321774959564,1.039574384689331,8.23208999633789,26.20823097229004,4.484238624572754,-0.5519723892211914,-0.4679765999317169,-0.33898305892944336,-0.17789334058761597,-1.1671651601791382,-6.2483649253845215
255,1427123,1427124,-0.2693745493888855,-0.03957593813538551,1.0146095752716064,6.806506633758545,10.364856719970703,6.9510955810546875,-0.5519723892211914,-0.4739762842655182,-0.32698363065719604,-0.40686678886413574,-1.2061951160430908,-6.21586799621582
256,1427133,1427134,-0.2829321324825287,-0.3377501666545868,1.0634417533874512,9.87887954711914,-3.546347141265869,8.46137809753418,-0.5579720735549927,-0.4679765999317169,-0.3239837884902954,-0.47159624099731445,-1.08998441696167,-6.168442726135254
257,1427143,1427144,-0.2108355611562729,-0.15680266916751862,1.0613280534744263,6.143621921539307,-21.578693389892578,10.703350067138672,-0.5639718174934387,-0.4649767279624939,-0.33598318696022034,-0.4441547095775604,-0.9786645770072937,-6.091737747192383
258,1427153,1427154,-0.19234727323055267,-0.014429779723286629,1.0378764867782593,4.332387447357178,-31.07805633544922,10.364109992980957,-0.5534723401069641,-0.4634768068790436,-0.31048446893692017,-0.10037467628717422,-0.9076062440872192,-6.014132976531982
259,1427163,1427164,-0.2417406588792801,-0.01834508590400219,0.9224792122840881,2.0018458366394043,-31.72777557373047,10.33349609375,-0.5534723401069641,-0.4634768068790436,-0.31048446893692017,0.13342872262001038,-0.8657344579696655,-5.89474630355835
260,1427173,1427174,-0.07975679636001587,-0.05879400670528412,1.012617826461792,-0.13622966408729553,-20.761491775512695,10.871747016906738,-0.5534723401069641,-0.4634768068790436,-0.31048446893692017,0.46511462330818176,-0.853351354598999,-5.790380954742432
261,1427183,1427184,-0.23073430359363556,-0.14592912793159485,1.136348009109497,0.6875047087669373,-10.810345649719238,9.671860694885254,-0.5414729118347168,-0.4664766788482666,-0.3224838674068451,0.5026739239692688,-0.8011715412139893,-5.643698692321777
262,1427193,1427194,0.02066420391201973,0.053676459938287735,1.0295946598052979,-2.8882837295532227,-5.181265830993652,8.139615058898926,-0.5654717087745667,-0.46947652101516724,-0.3224838674068451,0.48788294196128845,-0.8432201743125916,-5.508840084075928
263,1427203,1427204,-0.23915746808052063,0.018981652334332466,1.0193084478378296,-9.405858993530273,1.1432867050170898,5.207605838775635,-0.577471137046814,-0.4574771225452423,-0.3254837095737457,0.527251124382019,-0.9419091939926147,-5.415918827056885
264,1427213,1427214,-1.0971006155014038,-0.015052922070026398,0.9986016750335693,-11.434070587158203,7.953083038330078,2.700627326965332,-0.554972231388092,-0.4589770436286926,-0.3209839463233948,0.4344765841960907,-0.967308521270752,-5.353942394256592
265,1427223,1427224,-0.8882694244384766,-0.10075294226408005,0.885097861289978,-12.702567100524902,12.732573509216309,0.4749660789966583,-0.5579720735549927,-0.45297732949256897,-0.3119843900203705,0.19561681151390076,-1.1815129518508911,-5.292236328125
266,1427233,1427234,-0.1697838306427002,0.16847294569015503,0.9744934439659119,-11.138564109802246,10.60568904876709,-0.6722820997238159,-0.5639718174934387,-0.44997748732566833,-0.3239837884902954,0.07398388534784317,-1.173990249633789,-5.291042804718018
267,1427243,1427244,-0.3622860014438629,0.015481132082641125,1.0125298500061035,-2.0153415203094482,1.3615970611572266,-1.0726168155670166,-0.5579720735549927,-0.44097793102264404,-0.3149842321872711,0.021426372230052948,-1.3092446327209473,-5.307397365570068
268,1427253,1427254,-0.5551670789718628,-0.3872043788433075,0.9572985768318176,5.7158284187316895,-11.616138458251953,-0.4054166376590729,-0.5534723401069641,-0.4364781677722931,-0.31048446893692017,0.1205005794763565,-1.2376755475997925,-5.349696159362793
269,1427263,1427264,-0.4527808129787445,-0.12607239186763763,0.9799849390983582,9.941760063171387,-24.610809326171875,0.3861406445503235,-0.5534723401069641,-0.4574771225452423,-0.31948402523994446,0.2885817587375641,-1.1423002481460571,-5.370027542114258
270,1427273,1427274,-0.08579032868146896,0.226261168718338,1.0046019554138184,13.004688262939453,-32.86361312866211,1.6377522945404053,-0.554972231388092,-0.45297732949256897,-0.3209839463233948,0.6433557271957397,-0.9872902631759644,-5.3859405517578125
271,1427283,1427284,-0.2416105419397354,0.01545089390128851,0.9658273458480835,17.664779663085938,-29.801631927490234,0.8418790698051453,-0.5564721822738647,-0.45147740840911865,-0.31948402523994446,0.7054890394210815,-0.8380025029182434,-5.317616939544678
272,1427293,1427294,-0.4823518693447113,-0.27507179975509644,0.8593101501464844,21.591297149658203,-21.815431594848633,-0.38914012908935547,-0.5579720735549927,-0.46197688579559326,-0.3239837884902954,0.9840644598007202,-0.6926788091659546,-5.303001880645752
273,1427303,1427304,-0.15969768166542053,-0.11575967073440552,0.962731659412384,26.863483428955078,-16.485095977783203,0.44628626108169556,-0.554972231388092,-0.46197688579559326,-0.32998350262641907,1.222036361694336,-0.47035840153694153,-5.308588981628418
274,1427313,1427314,-0.8299280405044556,-0.012283829040825367,0.9883491396903992,29.910022735595703,-10.886241912841797,1.5116204023361206,-0.5504724383354187,-0.46047696471214294,-0.3254837095737457,1.4459370374679565,-0.17914076149463654,-5.316588878631592
275,1427323,1427324,-0.7028607726097107,-0.14051413536071777,0.9635868668556213,28.155046463012695,-3.279606580734253,1.8161410093307495,-0.5474725961685181,-0.4664766788482666,-0.32848358154296875,1.4880099296569824,0.1352098137140274,-5.296549320220947
276,1427333,1427334,-0.018981698900461197,-0.22334697842597961,1.0298445224761963,16.74130630493164,3.935502052307129,2.843024253845215,-0.5534723401069641,-0.46947652101516724,-0.3224838674068451,1.4086086750030518,0.35858023166656494,-5.259695053100586
277,1427343,1427344,0.07431550323963165,-0.1648111641407013,0.9438530206680298,-4.185653209686279,2.583136558532715,3.3236188888549805,-0.5519723892211914,-0.4679765999317169,-0.31798410415649414,1.4144725799560547,0.4305686056613922,-5.2139716148376465
278,1427353,1427354,-0.32125285267829895,-0.5127907991409302,0.9702198505401611,-20.790035247802734,-0.42604562640190125,3.0634548664093018,-0.5519723892211914,-0.4739762842655182,-0.3329833447933197,1.3055800199508667,0.2781771719455719,-5.152313709259033
279,1427363,1427364,-0.4106043875217438,-0.46822166442871094,1.0149226188659668,-29.161457061767578,-6.183143615722656,4.012482166290283,-0.554972231388092,-0.47097644209861755,-0.31798410415649414,1.1893622875213623,-0.03127452731132507,-5.094719886779785
280,1427373,1427374,-0.5569401979446411,-0.1431574523448944,1.013168215751648,-28.79275894165039,-10.067131042480469,5.56735897064209,-0.5324733853340149,-0.4754762053489685,-0.3224838674068451,1.2936413288116455,-0.34559598565101624,-5.0529680252075195
281,1427383,1427384,-0.4657202661037445,-0.020893558859825134,1.0405633449554443,-21.06858253479004,-13.727627754211426,9.774075508117676,-0.5354732275009155,-0.4664766788482666,-0.31948402523994446,1.3238348960876465,-0.541673481464386,-5.016271114349365
282,1427393,1427394,-0.6411563754081726,-0.009920558892190456,1.0094935894012451,-12.619894027709961,-15.70392894744873,14.347496032714844,-0.5339732766151428,-0.4589770436286926,-0.32998350262641907,1.5504992008209229,-0.6986991763114929,-4.949199676513672
283,1427403,1427404,-0.598509669303894,-0.4232412278652191,0.9919793009757996,1.850502848625183,-16.231184005737305,19.394044876098633,-0.5399730205535889,-0.48897555470466614,-0.3149842321872711,1.5086170434951782,-0.8314944505691528,-4.80216121673584
284,1427413,1427414,-0.0201534666121006,-0.16735170781612396,0.941588282585144,19.7011775970459,-8.801562309265137,22.215662002563477,-0.5384730696678162,-0.47247636318206787,-0.3314834237098694,1.7143858671188354,-0.7154688835144043,-4.640700817108154
285,1427423,1427424,-0.05383306369185448,-0.005701723508536816,1.0286592245101929,32.87418746948242,-3.0858874320983887,23.48036003112793,-0.5204739570617676,-0.47847607731819153,-0.3434828221797943,1.8213422298431396,-0.417195200920105,-4.450544357299805
286,1427433,1427434,-0.7782776355743408,-0.1806579977273941,1.0747207403182983,29.34428596496582,-0.7744454741477966,24.598243713378906,-0.5324733853340149,-0.48747560381889343,-0.3314834237098694,1.7961292266845703,-0.15937049686908722,-4.200740337371826
287,1427443,1427444,-0.40605607628822327,-0.165414959192276,1.1023839712142944,19.80509376525879,-0.254233181476593,26.030994415283203,-0.5459727048873901,-0.4949752390384674,-0.32998350262641907,1.8022658824920654,0.17244085669517517,-3.967768430709839
288,1427453,1427454,-0.08499510586261749,-0.2503768801689148,1.0839874744415283,10.85412311553955,1.3489538431167603,27.72478675842285,-0.5324733853340149,-0.49047547578811646,-0.34648266434669495,1.7806825637817383,0.211932972073555,-3.6683428287506104
289,1427463,1427464,-0.6333144307136536,-0.6278350949287415,1.095353364944458,2.8602726459503174,3.235100269317627,30.274494171142578,-0.5249737501144409,-0.4859756827354431,-0.32698363065719604,1.7286182641983032,0.395757794380188,-3.4181337356567383
290,1427473,1427474,-0.5071892142295837,-0.5045846104621887,0.9897024035453796,-0.971210777759552,5.93014669418335,32.85076141357422,-0.5444727540016174,-0.4844757616519928,-0.3254837095737457,1.7174351215362549,0.3948889672756195,-3.1128246784210205
291,1427483,1427484,-0.8334634304046631,-0.6663442254066467,1.02230703830719,-4.412413597106934,5.289705753326416,35.99591064453125,-0.5579720735549927,-0.4769761562347412,-0.3239837884902954,1.5338430404663086,0.3403010964393616,-2.779554843902588
292,1427493,1427494,-0.4780476689338684,-0.07603877037763596,1.0848935842514038,-4.862241744995117,4.893382549285889,36.26628112792969,-0.5459727048873901,-0.4829758405685425,-0.31798410415649414,1.5994596481323242,0.31912633776664734,-2.430814027786255
293,1427503,1427504,0.01978209614753723,-0.03312908485531807,1.1530261039733887,-6.391896724700928,0.5435623526573181,35.979766845703125,-0.5564721822738647,-0.47847607731819153,-0.3254837095737457,1.5413113832473755,0.20883958041667938,-2.054048538208008
294,1427513,1427514,-0.30926328897476196,-0.06203468143939972,1.107660174369812,-0.8972596526145935,-6.971031188964844,38.24188995361328,-0.5504724383354187,-0.47847607731819153,-0.3224838674068451,1.6266146898269653,0.25957441329956055,-1.7309967279434204
295,1427523,1427524,-0.3311749994754791,-0.1281793713569641,1.0387588739395142,5.779771327972412,-14.303582191467285,37.89873504638672,-0.5489725470542908,-0.4829758405685425,-0.32698363065719604,1.7728146314620972,0.2527434825897217,-1.352528691291809
296,1427533,1427534,-0.4160299003124237,-0.15625160932540894,1.0216163396835327,14.405484199523926,-23.48670768737793,36.38484191894531,-0.5744712948799133,-0.47247636318206787,-0.3254837095737457,2.014540910720825,0.3661821484565735,-0.9948166608810425
297,1427543,1427544,-0.3521166741847992,-0.060255587100982666,1.0689090490341187,18.122777938842773,-27.1807804107666,34.88850784301758,-0.5564721822738647,-0.47847607731819153,-0.3224838674068451,1.8768502473831177,0.5651564598083496,-0.6756368279457092
298,1427553,1427554,-0.03472767770290375,-0.041574202477931976,1.0549712181091309,17.509191513061523,-22.434967041015625,34.10197448730469,-0.5384730696678162,-0.48747560381889343,-0.33448326587677,2.06339430809021,0.6653463840484619,-0.3142521381378174
299,1427563,1427564,0.08512266725301743,-0.07579974830150604,1.0373914241790771,14.901185035705566,-13.984971046447754,31.271459579467773,-0.5414729118347168,-0.48747560381889343,-0.3254837095737457,2.3812508583068848,0.8928670883178711,0.011648306623101234
300,1427573,1427574,-0.06755074858665466,-0.10479129105806351,1.000778079032898,8.35461139678955,-10.297006607055664,29.190147399902344,-0.5654717087745667,-0.4754762053489685,-0.3224838674068451,2.5681681632995605,0.9717763066291809,0.34228515625
301,1427583,1427584,-0.41010403633117676,-0.13226257264614105,1.0600799322128296,-0.1000077947974205,-10.582769393920898,24.729473114013672,-0.5489725470542908,-0.4739762842655182,-0.3239837884902954,2.784228563308716,1.017369031906128,0.6539860963821411
302,1427593,1427594,-0.3220839202404022,-0.016374237835407257,1.0238399505615234,-6.789041996002197,-6.547488689422607,20.478233337402344,-0.5519723892211914,-0.4739762842655182,-0.32998350262641907,2.904343605041504,0.940483570098877,0.9338155388832092
303,1427603,1427604,-0.1370427906513214,-0.048879850655794144,0.9966011047363281,-11.968329429626465,2.088031768798828,17.707151412963867,-0.5504724383354187,-0.4574771225452423,-0.32848358154296875,2.923919200897217,0.9038453102111816,1.1199045181274414
304,1427613,1427614,-0.016569621860980988,0.0870085209608078,1.061074137687683,-11.122658729553223,11.03600025177002,15.460076332092285,-0.5534723401069641,-0.45147740840911865,-0.3224838674068451,2.8226609230041504,0.7451304197311401,1.3025318384170532
305,1427623,1427624,-0.2481572926044464,-0.29704180359840393,1.0495070219039917,-11.217266082763672,19.245132446289062,14.062150955200195,-0.56997150182724,-0.4589770436286926,-0.30898454785346985,2.716856002807617,0.804023802280426,1.3887557983398438
306,1427633,1427634,-0.12630032002925873,-0.6487906575202942,1.0270766019821167,-15.300932884216309,19.69742202758789,13.39072322845459,-0.5579720735549927,-0.44997748732566833,-0.3149842321872711,2.5160980224609375,0.5448198914527893,1.5907261371612549
307,1427643,1427644,-0.35253214836120605,-0.5000354647636414,1.0465686321258545,-20.192676544189453,14.068419456481934,11.557982444763184,-0.5639718174934387,-0.4679765999317169,-0.3149842321872711,2.335442304611206,0.30240097641944885,1.7658430337905884
308,1427653,1427654,-0.35967400670051575,-0.7096794843673706,1.0625214576721191,-18.26031494140625,8.08024787902832,9.020893096923828,-0.5564721822738647,-0.45147740840911865,-0.3164841830730438,2.1670429706573486,0.16709452867507935,1.8522069454193115
309,1427663,1427664,-0.3747893273830414,-0.12980660796165466,0.990595817565918,-15.091954231262207,5.237194061279297,7.01071834564209,-0.5714713931083679,-0.46047696471214294,-0.3044847846031189,2.0752060413360596,0.13038524985313416,1.8813456296920776
310,1427673,1427674,-0.271637499332428,-0.04903072863817215,1.0346685647964478,-11.205572128295898,8.200406074523926,6.538382530212402,-0.5714713931083679,-0.44247788190841675,-0.3224838674068451,1.9921479225158691,-0.002444856334477663,1.9399889707565308
311,1427683,1427684,-0.5062276721000671,-0.5115245580673218,1.0082664489746094,-10.452924728393555,8.852288246154785,5.822211265563965,-0.5669716596603394,-0.4469776451587677,-0.3149842321872711,1.9509303569793701,0.04463875666260719,1.9445507526397705
312,1427693,1427694,-0.532078206539154,-0.26439082622528076,1.0036826133728027,-4.96482515335083,6.164125919342041,5.227018356323242,-0.56997150182724,-0.44397780299186707,-0.3119843900203705,1.9057726860046387,-0.15751026570796967,2.045315980911255
313,1427703,1427704,-0.6160852909088135,-0.06617306917905807,1.0659277439117432,-0.2603916823863983,8.246734619140625,4.0399885177612305,-0.5684715509414673,-0.43347832560539246,-0.31048446893692017,1.805670976638794,-0.2728302776813507,2.11653208732605
314,1427713,1427714,-0.2519005239009857,-0.07078543305397034,1.018345594406128,3.2255332469940186,10.039163589477539,3.969081163406372,-0.577471137046814,-0.4364781677722931,-0.3254837095737457,1.6794695854187012,-0.24538378417491913,2.1409342288970947
315,1427723,1427724,0.03861989825963974,-0.4365296959877014,0.9928073287010193,4.917769432067871,10.446305274963379,3.652017116546631,-0.5759711861610413,-0.4379780888557434,-0.3239837884902954,1.5323344469070435,-0.24072237312793732,2.1837098598480225
316,1427733,1427734,-0.4832601845264435,-0.4952043890953064,1.0721027851104736,4.685446739196777,12.771744728088379,4.151464939117432,-0.5759711861610413,-0.4349782466888428,-0.31798410415649414,1.4373143911361694,-0.14029528200626373,2.203883409500122
317,1427743,1427744,-0.8526269197463989,-0.10358817875385284,1.1476718187332153,7.51524019241333,11.628604888916016,2.804990768432617,-0.5834708213806152,-0.448477566242218,-0.32848358154296875,1.4701626300811768,0.03534746542572975,2.213557004928589
318,1427753,1427754,-1.389184832572937,0.03552042692899704,1.0362414121627808,6.801466941833496,2.0560965538024902,1.0021111965179443,-0.5684715509414673,-0.44247788190841675,-0.31948402523994446,1.347489833831787,0.08926443755626678,2.2477591037750244
319,1427763,1427764,-1.1160870790481567,-0.47608765959739685,1.0265837907791138,2.6799657344818115,-8.505010604858398,-0.613987386226654,-0.5819708704948425,-0.45297732949256897,-0.30898454785346985,1.388576865196228,0.19060541689395905,2.2630677223205566
320,1427773,1427774,-0.9447591304779053,-0.8752816319465637,0.9420352578163147,-7.912550926208496,-12.142308235168457,-1.7520586252212524,-0.5744712948799133,-0.44247788190841675,-0.3164841830730438,1.517287254333496,0.19915729761123657,2.2696070671081543
321,1427783,1427784,-0.8790866732597351,-0.6935029029846191,0.8671526908874512,-17.107723236083984,-11.322647094726562,-3.416923999786377,-0.5759711861610413,-0.44397780299186707,-0.3149842321872711,1.672640085220337,0.06537076830863953,2.280641794204712
322,1427793,1427794,-0.37759312987327576,-0.36439603567123413,0.9692442417144775,-27.51772117614746,-3.0184547901153564,-3.7207531929016113,-0.5639718174934387,-0.4469776451587677,-0.3149842321872711,1.705296516418457,0.032930754125118256,2.2138168811798096
323,1427803,1427804,-0.8028551936149597,-0.203924760222435,0.9116851687431335,-33.990299224853516,8.153997421264648,-4.918972015380859,-0.5669716596603394,-0.44097793102264404,-0.30898454785346985,1.6650079488754272,-0.30292654037475586,2.192411184310913
324,1427813,1427814,-1.1548333168029785,-0.050834763795137405,1.0371543169021606,-37.330753326416016,20.743024826049805,-4.330243110656738,-0.5729713439941406,-0.44997748732566833,-0.32698363065719604,1.4677965641021729,-0.7174925208091736,2.1574995517730713
325,1427823,1427824,-0.8321495652198792,0.04362132027745247,0.9936755895614624,-30.077396392822266,34.4312858581543,-5.95113468170166,-0.562471866607666,-0.4364781677722931,-0.31948402523994446,1.2790005207061768,-0.9067058563232422,2.0688209533691406
326,1427833,1427834,-0.8526858687400818,-0.2700951397418976,0.971272349357605,-16.58929443359375,42.075687408447266,-8.433537483215332,-0.5639718174934387,-0.4469776451587677,-0.31798410415649414,0.8974730372428894,-1.2505658864974976,2.011624574661255
327,1427843,1427844,-0.5418044924736023,-0.7424898743629456,1.128431797027588,-4.1205854415893555,41.925498962402344,-10.471220970153809,-0.5789710283279419,-0.44997748732566833,-0.31798410415649414,0.48707282543182373,-1.2318860292434692,1.8775511980056763
328,1427853,1427854,-0.3477129638195038,-0.6068698763847351,1.0321111679077148,1.6057060956954956,25.569522857666016,-11.840251922607422,-0.5804709792137146,-0.44247788190841675,-0.3254837095737457,0.11334463208913803,-1.3460994958877563,1.7811546325683594
329,1427863,1427864,-0.27787521481513977,-0.4217586815357208,0.9707859754562378,1.3630366325378418,5.2227935791015625,-12.081823348999023,-0.56997150182724,-0.455977201461792,-0.3209839463233948,-0.053885575383901596,-1.3226484060287476,1.6528040170669556
330,1427873,1427874,-0.08704842627048492,-0.19036144018173218,0.9888908863067627,-6.575237274169922,-12.017447471618652,-14.0286226272583,-0.5729713439941406,-0.44997748732566833,-0.33598318696022034,-0.11907928436994553,-1.2795236110687256,1.5255825519561768
331,1427883,1427884,-0.5463617444038391,-0.26944753527641296,1.060152292251587,-14.565306663513184,-25.45338249206543,-15.606093406677246,-0.5684715509414673,-0.4634768068790436,-0.33448326587677,0.12321379035711288,-1.4920523166656494,1.3978931903839111
332,1427893,1427894,-0.4575808346271515,-0.41294580698013306,0.8974476456642151,-20.28519058227539,-31.814558029174805,-17.844785690307617,-0.5594720244407654,-0.46047696471214294,-0.3224838674068451,0.39541923999786377,-1.6031670570373535,1.2483859062194824
333,1427903,1427904,-0.5432824492454529,-0.6357702612876892,0.8699378967285156,-27.637880325317383,-27.639623641967773,-18.162391662597656,-0.5519723892211914,-0.4649767279624939,-0.341982901096344,0.7674139738082886,-1.813065528869629,1.0741641521453857
334,1427913,1427914,-0.27060359716415405,-0.2504287660121918,0.9849632978439331,-34.42145919799805,-17.43364906311035,-17.854990005493164,-0.5519723892211914,-0.45297732949256897,-0.3329833447933197,1.0461008548736572,-2.0028269290924072,0.8984238505363464
335,1427923,1427924,-0.04821314662694931,-0.12228965759277344,1.0972042083740234,-35.868778228759766,0.7335038185119629,-17.043611526489258,-0.554972231388092,-0.4649767279624939,-0.33598318696022034,1.049246072769165,-2.4732155799865723,0.760658860206604
336,1427933,1427934,-0.25477883219718933,0.13139304518699646,0.9171315431594849,-29.552412033081055,20.9156436920166,-16.40869140625,-0.5519723892211914,-0.4349782466888428,-0.341982901096344,0.991104781627655,-2.786937713623047,0.6075817942619324
337,1427943,1427944,-0.10166461765766144,-0.3986246585845947,1.0230205059051514,-12.629194259643555,36.17177200317383,-15.331698417663574,-0.5504724383354187,-0.4544772803783417,-0.33448326587677,0.8498914837837219,-3.061349391937256,0.43037497997283936
338,1427953,1427954,-0.3454076051712036,-0.2848101854324341,1.0853807926177979,7.432672023773193,43.563106536865234,-14.913756370544434,-0.5504724383354187,-0.4544772803783417,-0.33448326587677,0.29530322551727295,-3.060910224914551,0.30191606283187866
339,1427963,1427964,-0.5843429565429688,0.10504871606826782,0.919299840927124,23.406566619873047,39.244049072265625,-15.052580833435059,-0.5504724383354187,-0.4544772803783417,-0.33448326587677,0.07339886575937271,-3.063566207885742,0.09616994857788086
340,1427973,1427974,-0.8595179915428162,-0.1179695799946785,1.1307967901229858,35.42096710205078,25.60477066040039,-15.836771011352539,-0.5789710283279419,-0.46197688579559326,-0.31798410415649414,-0.2813316881656647,-2.7326080799102783,-0.0832483246922493
341,1427983,1427984,-0.2840302288532257,-0.31195127964019775,1.0265880823135376,43.1782341003418,14.39848518371582,-14.380346298217773,-0.5639718174934387,-0.47097644209861755,-0.33898305892944336,-0.5926560759544373,-2.3130149841308594,-0.23718887567520142
342,1427993,1427994,-0.2621431350708008,-0.02843427285552025,0.9886590838432312,38.703758239746094,7.212991237640381,-12.862719535827637,-0.5594720244407654,-0.45147740840911865,-0.33748310804367065,-0.6685603260993958,-1.977567434310913,-0.4144580364227295
343,1428003,1428004,0.029608050361275673,0.1173899695277214,1.1184871196746826,25.28631591796875,-1.314756155014038,-12.646129608154297,-0.5744712948799133,-0.47247636318206787,-0.3404829800128937,-0.7667995095252991,-1.4666625261306763,-0.5353913307189941
344,1428013,1428014,0.052510250359773636,0.09067974984645844,0.9626789093017578,15.345829963684082,-5.074746131896973,-15.75890064239502,-0.5729713439941406,-0.4679765999317169,-0.33898305892944336,-0.6832603216171265,-1.3760806322097778,-0.7032859921455383
345,1428023,1428024,-0.4935470521450043,-0.11551269143819809,0.9455155730247498,3.278993606567383,-2.73671293258667,-18.35964584350586,-0.5744712948799133,-0.4574771225452423,-0.32848358154296875,-0.5681791305541992,-1.2901862859725952,-0.8793658018112183
346,1428033,1428034,-0.5845192074775696,-0.26927798986434937,0.9940378069877625,-12.133726119995117,-5.146435260772705,-18.4542293548584,-0.5744712948799133,-0.4544772803783417,-0.3314834237098694,-0.5454028248786926,-1.3473671674728394,-1.0775537490844727
347,1428043,1428044,-0.17222870886325836,-0.24173563718795776,1.0145858526229858,-18.81414222717285,-5.125965595245361,-18.818458557128906,-0.5504724383354187,-0.46947652101516724,-0.3254837095737457,-0.4845176339149475,-1.5168527364730835,-1.2724558115005493
348,1428053,1428054,-0.49365049600601196,-0.42320501804351807,0.946239709854126,-18.059951782226562,2.0967042446136475,-20.23576545715332,-0.5609719157218933,-0.4679765999317169,-0.33598318696022034,-0.5518681406974792,-1.6769355535507202,-1.42510187625885
349,1428063,1428064,-0.1454273760318756,-0.670289933681488,1.0257935523986816,-15.954133987426758,9.634496688842773,-21.819128036499023,-0.5564721822738647,-0.46947652101516724,-0.3314834237098694,-0.6520221829414368,-1.9102734327316284,-1.609188437461853
350,1428073,1428074,-0.06106305122375488,-0.22708837687969208,1.0813325643539429,-11.684731483459473,13.494529724121094,-24.820354461669922,-0.562471866607666,-0.4634768068790436,-0.3404829800128937,-0.7564041018486023,-2.089503288269043,-1.8169642686843872
351,1428083,1428084,-0.30692800879478455,-0.591142475605011,1.0989958047866821,-3.7801692485809326,14.073744773864746,-26.399755477905273,-0.562471866607666,-0.4634768068790436,-0.32848358154296875,-0.9051040410995483,-2.2358992099761963,-2.0590415000915527
352,1428093,1428094,-0.0038037465419620275,-0.43088093400001526,1.0079727172851562,8.242740631103516,15.257376670837402,-27.12417984008789,-0.5564721822738647,-0.47247636318206787,-0.32848358154296875,-1.1306025981903076,-2.091050624847412,-2.251831531524658
353,1428103,1428104,0.03291639685630798,-0.29494503140449524,0.935983419418335,15.186776161193848,9.75112533569336,-27.409040451049805,-0.5489725470542908,-0.46197688579559326,-0.3239837884902954,-1.262523889541626,-2.080811023712158,-2.5435750484466553
354,1428113,1428114,-0.2134590744972229,-0.6121037602424622,1.0113250017166138,16.85531997680664,0.2909444272518158,-24.362592697143555,-0.5639718174934387,-0.4769761562347412,-0.33598318696022034,-1.2815873622894287,-1.9145580530166626,-2.835500955581665
355,1428123,1428124,-0.1355225294828415,-0.44143715500831604,1.0226051807403564,14.5054292678833,-4.222403049468994,-19.937576293945312,-0.5714713931083679,-0.46947652101516724,-0.33448326587677,-1.321141242980957,-1.8010715246200562,-3.0824642181396484
356,1428133,1428134,-0.050539299845695496,-0.4466991126537323,1.041501760482788,11.744318008422852,-7.623608112335205,-15.176530838012695,-0.5579720735549927,-0.48897555470466614,-0.33598318696022034,-1.2440069913864136,-1.6364717483520508,-3.298560857772827
357,1428143,1428144,-0.04979240149259567,0.06097622215747833,1.1544809341430664,2.3691141605377197,-4.963224411010742,-9.574264526367188,-0.5579720735549927,-0.4739762842655182,-0.3329833447933197,-1.2075024843215942,-1.4970066547393799,-3.4429376125335693
358,1428153,1428154,-0.1818639487028122,-0.011773490346968174,1.1335313320159912,-5.564385414123535,-4.620414733886719,-4.574190139770508,-0.554972231388092,-0.4859756827354431,-0.33898305892944336,-1.0981130599975586,-1.635607361793518,-3.6112873554229736
359,1428163,1428164,-0.18705974519252777,-0.04906034097075462,1.0876888036727905,-4.527149677276611,0.004718519281595945,-0.18460224568843842,-0.5579720735549927,-0.4739762842655182,-0.3329833447933197,-1.0191513299942017,-1.5483862161636353,-3.6222195625305176
360,1428173,1428174,-0.5287747383117676,-0.012925517745316029,1.0255870819091797,2.2241859436035156,-4.689915657043457,2.3000457286834717,-0.554972231388092,-0.4739762842655182,-0.33898305892944336,-0.9674935936927795,-1.5748852491378784,-3.628641128540039
361,1428183,1428184,-0.34447181224823,-0.06623031944036484,1.0792208909988403,14.374527931213379,-13.698278427124023,5.093514442443848,-0.5459727048873901,-0.4679765999317169,-0.33598318696022034,-0.8310991525650024,-1.6122548580169678,-3.6499061584472656
362,1428193,1428194,-0.6527070999145508,-0.33307206630706787,1.1431306600570679,20.004316329956055,-19.17960548400879,9.272364616394043,-0.5564721822738647,-0.4754762053489685,-0.3434828221797943,-0.7155028581619263,-1.5465818643569946,-3.6155362129211426
363,1428203,1428204,-0.4652811288833618,-0.3479122519493103,0.9962769150733948,21.442880630493164,-16.655704498291016,12.866546630859375,-0.5564721822738647,-0.46947652101516724,-0.33448326587677,-0.5770436525344849,-1.3881696462631226,-3.5309619903564453
364,1428213,1428214,-0.6035367846488953,-0.01493042428046465,0.935477614402771,20.644359588623047,-7.685136795043945,16.022085189819336,-0.562471866607666,-0.4844757616519928,-0.3314834237098694,-0.5217280983924866,-1.210795283317566,-3.4025657176971436
365,1428223,1428224,-0.4166828393936157,-0.14672334492206573,1.074465036392212,19.38646125793457,-7.368325710296631,17.609094619750977,-0.5384730696678162,-0.49047547578811646,-0.32848358154296875,-0.38147035241127014,-0.8479099273681641,-3.205242872238159
366,1428233,1428234,-0.2470887154340744,-0.10911423712968826,1.2465853691101074,24.060232162475586,-14.048652648925781,16.893362045288086,-0.5504724383354187,-0.47247636318206787,-0.32848358154296875,-0.35437947511672974,-0.8888200521469116,-3.093214273452759
367,1428243,1428244,-0.20315469801425934,-0.5922136306762695,1.1006134748458862,29.822067260742188,-16.824726104736328,17.958412170410156,-0.5564721822738647,-0.4754762053489685,-0.3404829800128937,-0.1731235682964325,-0.5592175126075745,-2.903201103210449
368,1428253,1428254,-0.4651956260204315,-0.4276960790157318,1.1836376190185547,26.993885040283203,-15.798117637634277,17.333040237426758,-0.5564721822738647,-0.4844757616519928,-0.33748310804367065,0.018039170652627945,-0.18675312399864197,-2.7084603309631348
369,1428263,1428264,-0.6622382402420044,-0.7709895968437195,1.235254168510437,21.168272018432617,-14.194231986999512,17.727970123291016,-0.5609719157218933,-0.4859756827354431,-0.3209839463233948,0.034230880439281464,-0.03172379359602928,-2.5398175716400146
370,1428273,1428274,-0.17768341302871704,-0.5209379196166992,1.1507055759429932,15.784053802490234,-17.207820892333984,17.695411682128906,-0.5669716596603394,-0.4739762842655182,-0.31798410415649414,0.18991108238697052,0.10733209550380707,-2.3905763626098633
371,1428283,1428284,-0.23371584713459015,-0.6798222064971924,1.0957413911819458,9.049506187438965,-18.73897361755371,16.06888771057129,-0.5474725961685181,-0.47847607731819153,-0.33748310804367065,0.42547720670700073,0.15818843245506287,-2.2419273853302
372,1428293,1428294,-0.30594441294670105,-0.5282942056655884,1.0197322368621826,4.656408786773682,-19.17607879638672,13.483920097351074,-0.5414729118347168,-0.47247636318206787,-0.31948402523994446,0.6399949193000793,0.35537150502204895,-2.0621187686920166
373,1428303,1428304,-0.8024448752403259,-0.17254893481731415,1.0323454141616821,0.6012257933616638,-17.783021926879883,10.919750213623047,-0.5474725961685181,-0.46947652101516724,-0.3134843111038208,0.7378632426261902,0.4044393301010132,-1.91383957862854
374,1428313,1428314,-0.39611226320266724,-0.4586699903011322,0.9969639778137207,-2.944898843765259,-14.178325653076172,8.874818801879883,-0.5534723401069641,-0.4574771225452423,-0.3044847846031189,0.9683380722999573,0.3253419101238251,-1.8219863176345825
375,1428323,1428324,-0.2106930911540985,-0.5031452775001526,0.8984327912330627,-3.5060763359069824,-6.22358512878418,6.426339626312256,-0.5594720244407654,-0.4544772803783417,-0.31048446893692017,1.105878233909607,0.35957008600234985,-1.7253501415252686
376,1428333,1428334,-1.1577092409133911,-0.43056342005729675,1.0040115118026733,-4.504616737365723,3.87093186378479,5.795523643493652,-0.5714713931083679,-0.4574771225452423,-0.3014849126338959,1.124874472618103,0.3651682734489441,-1.659115195274353
377,1428343,1428344,-1.1019583940505981,-0.1039806455373764,1.0696167945861816,-7.188460826873779,13.868881225585938,5.678155422210693,-0.5609719157218933,-0.4469776451587677,-0.30898454785346985,1.0249671936035156,0.2517823576927185,-1.6083967685699463
378,1428353,1428354,-0.20556895434856415,-0.11234955489635468,1.1183687448501587,-6.002496719360352,21.916223526000977,6.082330703735352,-0.5579720735549927,-0.45297732949256897,-0.3059847056865692,0.788834810256958,0.19224268198013306,-1.556769609451294
379,1428363,1428364,-0.4272756576538086,0.22194747626781464,1.1231993436813354,2.196671962738037,27.409509658813477,6.391536235809326,-0.5609719157218933,-0.455977201461792,-0.30898454785346985,0.5157151222229004,0.16654548048973083,-1.4964666366577148
380,1428373,1428374,-0.3239232003688812,-0.09435606002807617,1.1648151874542236,7.504153728485107,24.001298904418945,6.597876071929932,-0.5594720244407654,-0.4664766788482666,-0.31048446893692017,0.28649571537971497,0.24914900958538055,-1.4271109104156494
381,1428383,1428384,-0.0349455326795578,-0.1707155406475067,1.1886649131774902,10.24789810180664,20.414186477661133,7.5441179275512695,-0.5639718174934387,-0.44997748732566833,-0.3119843900203705,0.11415159702301025,0.3375695049762726,-1.3480924367904663
382,1428393,1428394,-0.427591472864151,-0.7490173578262329,1.00697660446167,12.517539978027344,16.193416595458984,8.286402702331543,-0.5639718174934387,-0.4649767279624939,-0.3209839463233948,-0.16845974326133728,0.5472361445426941,-1.272072434425354
383,1428403,1428404,-0.39219847321510315,-0.7961132526397705,0.9134693145751953,12.778556823730469,11.086617469787598,9.954789161682129,-0.577471137046814,-0.44247788190841675,-0.31048446893692017,-0.3328711986541748,0.5833664536476135,-1.1980115175247192
384,1428413,1428414,-0.25617820024490356,-0.4888017773628235,1.0205070972442627,14.152241706848145,2.8956711292266846,8.487112045288086,-0.5804709792137146,-0.45147740840911865,-0.3044847846031189,-0.461822509765625,0.700768232345581,-1.1023530960083008
385,1428423,1428424,-0.42426764965057373,0.036712273955345154,1.1202058792114258,10.01516056060791,-9.075084686279297,6.382619857788086,-0.5759711861610413,-0.4379780888557434,-0.29998499155044556,-0.40214625000953674,0.9188846945762634,-0.9902834892272949
386,1428433,1428434,-0.6188666820526123,-0.1765025556087494,1.0104827880859375,3.190122604370117,-20.835405349731445,3.468244791030884,-0.5759711861610413,-0.45297732949256897,-0.3149842321872711,-0.13874362409114838,0.9283059239387512,-0.9006957411766052
387,1428443,1428444,-0.5861982703208923,-0.47647902369499207,1.0180344581604004,-6.888542652130127,-24.79381561279297,3.474820852279663,-0.5684715509414673,-0.45147740840911865,-0.3164841830730438,0.22506459057331085,0.9233213663101196,-0.845970630645752
388,1428453,1428454,-0.7318488359451294,-0.26772770285606384,0.9944972395896912,-12.614474296569824,-20.28086280822754,4.923900127410889,-0.562471866607666,-0.4454777240753174,-0.3044847846031189,0.2934345006942749,0.8948523998260498,-0.8464846014976501
389,1428463,1428464,-0.24096360802650452,-0.20607221126556396,0.9800488352775574,-18.239343643188477,-14.647371292114258,5.918540954589844,-0.56997150182724,-0.455977201461792,-0.2969851493835449,0.477981299161911,0.822436511516571,-0.8039597272872925
390,1428473,1428474,-0.09512689709663391,-0.15052920579910278,0.9407227635383606,-23.508054733276367,-3.1815922260284424,5.151544570922852,-0.562471866607666,-0.4664766788482666,-0.3164841830730438,0.5710958242416382,0.5938884615898132,-0.7706208825111389
391,1428483,1428484,-0.26412445306777954,-0.36710676550865173,1.0926694869995117,-18.1528377532959,9.36276626586914,2.7869374752044678,-0.5594720244407654,-0.4454777240753174,-0.3044847846031189,0.5445389747619629,0.43102261424064636,-0.739936351776123
392,1428493,1428494,-0.3921535611152649,-0.3782224953174591,0.8604063987731934,1.5409060716629028,19.574159622192383,-0.9261170029640198,-0.5564721822738647,-0.4364781677722931,-0.29848507046699524,0.5172294974327087,0.2701817750930786,-0.7025326490402222
393,1428503,1428504,-0.7177445292472839,-0.545592725276947,0.9704968333244324,20.365541458129883,27.56428337097168,-5.295045375823975,-0.5744712948799133,-0.448477566242218,-0.3044847846031189,0.22142313420772552,0.3287312090396881,-0.7220735549926758
394,1428513,1428514,-0.9275137782096863,0.09004369378089905,1.0669139623641968,29.440038681030273,29.48434066772461,-7.7314372062683105,-0.577471137046814,-0.4664766788482666,-0.3254837095737457,-0.15489263832569122,0.6634682416915894,-0.7785226106643677
395,1428523,1428524,-0.8564291596412659,0.17597897350788116,1.1065949201583862,35.31515121459961,26.989065170288086,-10.194841384887695,-0.577471137046814,-0.48747560381889343,-0.3224838674068451,-0.3468232750892639,0.8634257316589355,-0.8282736539840698
396,1428533,1428534,-0.4584506154060364,-0.30114617943763733,0.9279704689979553,38.431495666503906,14.400390625,-12.088455200195312,-0.5639718174934387,-0.49797508120536804,-0.3209839463233948,-0.6191918253898621,1.2468382120132446,-0.9205816984176636
397,1428543,1428544,-0.742799699306488,-0.512391984462738,0.9170656204223633,29.985795974731445,1.644215703010559,-12.567065238952637,-0.5744712948799133,-0.49047547578811646,-0.3164841830730438,-0.7919313907623291,1.6286464929580688,-1.0278284549713135
398,1428553,1428554,-0.4395691156387329,-0.18319684267044067,0.9320334792137146,9.279051780700684,-16.633485794067383,-11.122130393981934,-0.56997150182724,-0.5009749531745911,-0.3239837884902954,-0.7289604544639587,1.8138313293457031,-1.1310386657714844
399,1428563,1428564,-0.062258947640657425,-0.0715293362736702,0.8646456599235535,-15.238632202148438,-24.858535766601562,-8.873381614685059,-0.5714713931083679,-0.48147591948509216,-0.3314834237098694,-0.4435413181781769,1.8182635307312012,-1.213235855102539
400,1428573,1428574,-0.03826901316642761,-0.2799474000930786,1.007869005203247,-39.539093017578125,-23.666614532470703,-8.860748291015625,-0.5519723892211914,-0.4919753968715668,-0.3149842321872711,-0.3368346691131592,1.727023959159851,-1.3475087881088257
401,1428583,1428584,-0.11201624572277069,-0.2195107340812683,0.9946421980857849,-54.51011657714844,-18.080907821655273,-9.70680046081543,-0.5459727048873901,-0.47997599840164185,-0.32998350262641907,-0.0410568043589592,1.1932252645492554,-1.4355897903442383
402,1428593,1428594,-0.170023113489151,-0.06460963189601898,0.9733757972717285,-57.77181625366211,-4.645254135131836,-11.109593391418457,-0.5339732766151428,-0.4829758405685425,-0.32698363065719604,0.11796209961175919,0.633518636226654,-1.5472662448883057
403,1428603,1428604,0.04529397562146187,-0.10191725194454193,1.13746178150177,-50.014739990234375,0.03236334025859833,-13.050209045410156,-0.5489725470542908,-0.4739762842655182,-0.32698363065719604,0.09517472237348557,0.19036565721035004,-1.6679879426956177
404,1428613,1428614,-0.14453184604644775,0.0608404204249382,1.2244830131530762,-34.492427825927734,-1.9197736978530884,-13.634230613708496,-0.5504724383354187,-0.46047696471214294,-0.33448326587677,0.14701272547245026,-0.3509516417980194,-1.7748949527740479
405,1428623,1428624,-0.8732255697250366,-0.04126196727156639,1.0543204545974731,-16.919429779052734,-4.062502861022949,-11.836091041564941,-0.5414729118347168,-0.47247636318206787,-0.33748310804367065,0.2507424056529999,-0.47998619079589844,-1.8718887567520142
406,1428633,1428634,-0.8517077565193176,-0.0980239063501358,1.0608081817626953,0.8985522985458374,3.195457935333252,-7.874951362609863,-0.5264736413955688,-0.4664766788482666,-0.33748310804367065,0.3107966184616089,-0.6771256923675537,-1.994406819343567
407,1428643,1428644,-0.2614494860172272,-0.28191861510276794,1.0165842771530151,12.763238906860352,7.332828998565674,-3.7875006198883057,-0.5489725470542908,-0.4679765999317169,-0.3239837884902954,0.2562927305698395,-0.6837103962898254,-2.0909955501556396
408,1428653,1428654,0.051427993923425674,-0.19956074655056,0.8861117362976074,24.445127487182617,7.562338352203369,0.0482821986079216,-0.5564721822738647,-0.47847607731819153,-0.3254837095737457,0.12514767050743103,-0.42461827397346497,-2.1403346061706543
409,1428663,1428664,-0.027879778295755386,0.13103574514389038,0.9540823698043823,35.28060531616211,8.231561660766602,2.367800235748291,-0.5564721822738647,-0.4664766788482666,-0.3314834237098694,-0.01596299558877945,-0.1446414291858673,-2.1529486179351807
410,1428673,1428674,-0.2620626389980316,-0.0006222203955985606,1.0335183143615723,38.95295715332031,3.0235226154327393,5.18562126159668,-0.5474725961685181,-0.4934753179550171,-0.33448326587677,-0.09715267270803452,0.04726891219615936,-2.1404130458831787
411,1428683,1428684,-0.18606407940387726,-0.3439064919948578,1.0306726694107056,37.05233383178711,-6.559823513031006,8.044929504394531,-0.5564721822738647,-0.4964751601219177,-0.3224838674068451,-0.13385817408561707,0.6098544597625732,-2.0844619274139404
412,1428693,1428694,0.04038389027118683,-0.27343371510505676,0.9927797913551331,29.981477737426758,-10.844898223876953,10.334015846252441,-0.5534723401069641,-0.49047547578811646,-0.3404829800128937,-0.06402933597564697,0.8321159482002258,-2.0181734561920166
413,1428703,1428704,-0.08033211529254913,-0.0017175168031826615,1.1446170806884766,10.600085258483887,-17.230222702026367,11.312084197998047,-0.554972231388092,-0.49797508120536804,-0.33598318696022034,0.1528949737548828,1.024050235748291,-1.9068435430526733
414,1428713,1428714,0.020872360095381737,-0.2587518095970154,1.0578097105026245,-12.906281471252441,-26.965421676635742,11.286198616027832,-0.5444727540016174,-0.508474588394165,-0.33448326587677,0.28180885314941406,1.0838409662246704,-1.8085163831710815
415,1428723,1428724,-0.2875230610370636,-0.19276681542396545,0.9454229474067688,-26.66534996032715,-31.742088317871094,13.526927947998047,-0.5429728627204895,-0.5009749531745911,-0.33598318696022034,0.5129261612892151,0.9973176717758179,-1.705583095550537
416,1428733,1428734,-0.6587662696838379,-0.038935501128435135,1.108407974243164,-30.895954132080078,-30.992595672607422,15.506548881530762,-0.5594720244407654,-0.4934753179550171,-0.3404829800128937,0.695328950881958,0.6496875882148743,-1.6061865091323853
417,1428743,1428744,-0.2775624394416809,-0.26194724440574646,0.9166786670684814,-29.904544830322266,-22.179248809814453,16.536325454711914,-0.5594720244407654,-0.4934753179550171,-0.3404829800128937,1.006904125213623,0.43782132863998413,-1.4475959539413452
418,1428753,1428754,-0.577583372592926,-0.16393700242042542,1.2290652990341187,-24.323205947875977,-11.20571231842041,17.084508895874023,-0.5594720244407654,-0.4934753179550171,-0.3404829800128937,1.215017557144165,0.11382320523262024,-1.291987657546997
419,1428763,1428764,-0.28046199679374695,-0.19443796575069427,1.0935912132263184,-9.598435401916504,3.9243526458740234,18.118640899658203,-0.5459727048873901,-0.4829758405685425,-0.33898305892944336,1.3216328620910645,-0.08460026234388351,-1.1300305128097534
420,1428773,1428774,-0.3889700472354889,-0.1445464938879013,1.1558034420013428,0.31850504875183105,14.761262893676758,17.34479331970215,-0.5219739079475403,-0.4919753968715668,-0.32998350262641907,1.2676990032196045,-0.1363019049167633,-0.9647446274757385
421,1428783,1428784,-0.02991042099893093,0.061356060206890106,1.0492465496063232,11.314260482788086,16.74622344970703,16.357025146484375,-0.5459727048873901,-0.47997599840164185,-0.341982901096344,1.0578304529190063,-0.1041087955236435,-0.8029254078865051
422,1428793,1428794,-0.06636571139097214,0.1657934933900833,1.058689832687378,16.567838668823242,14.416449546813965,15.522603034973145,-0.5429728627204895,-0.4829758405685425,-0.32998350262641907,0.8296698331832886,0.07504521310329437,-0.6475278735160828
423,1428803,1428804,-0.09485197812318802,0.06531071662902832,1.0740010738372803,17.03191375732422,3.855957269668579,15.804516792297363,-0.5519723892211914,-0.4949752390384674,-0.3329833447933197,0.7520580291748047,0.24512037634849548,-0.48076459765434265
424,1428813,1428814,-0.5359790325164795,0.09960617125034332,1.0105087757110596,12.8993501663208,-2.955658197402954,16.13933753967285,-0.5594720244407654,-0.48147591948509216,-0.32848358154296875,0.8327716588973999,0.33387887477874756,-0.29472678899765015
425,1428823,1428824,-0.2860250473022461,-0.06769319623708725,1.0256284475326538,7.813145637512207,-7.034627437591553,14.805183410644531,-0.5474725961685181,-0.47847607731819153,-0.33448326587677,0.8581559658050537,0.44736766815185547,-0.1311631053686142
426,1428833,1428834,-0.015558833256363869,-0.1299828141927719,0.9632228016853333,3.291165828704834,-8.276137351989746,11.819162368774414,-0.5684715509414673,-0.4844757616519928,-0.3224838674068451,0.9493191838264465,0.55154949426651,0.024396419525146484
427,1428843,1428844,-0.11618991941213608,-0.2469237744808197,1.0610454082489014,-0.443086713552475,-9.094995498657227,10.183550834655762,-0.554972231388092,-0.4769761562347412,-0.33598318696022034,1.050418734550476,0.5872097611427307,0.15243051946163177
428,1428853,1428854,-0.09388253837823868,-0.09837815910577774,0.9955436587333679,-5.287326335906982,-10.062864303588867,7.831251621246338,-0.5594720244407654,-0.46947652101516724,-0.32848358154296875,1.2324801683425903,0.5486288070678711,0.27541235089302063
429,1428863,1428864,-0.23400624096393585,-0.4669138193130493,1.0456063747406006,-9.18420696258545,-4.937774181365967,5.189173221588135,-0.5594720244407654,-0.4754762053489685,-0.33748310804367065,1.3134740591049194,0.5150980949401855,0.3548109233379364
430,1428873,1428874,-0.21351085603237152,-0.23317734897136688,0.9789984822273254,-6.967382907867432,1.7164820432662964,4.47114896774292,-0.5429728627204895,-0.4859756827354431,-0.32998350262641907,1.3852859735488892,0.5117919445037842,0.4007962644100189
431,1428883,1428884,-0.6475015878677368,-0.402631551027298,0.9705280065536499,-2.88323712348938,8.068355560302734,4.638882637023926,-0.5519723892211914,-0.47997599840164185,-0.3329833447933197,1.3460434675216675,0.4034547209739685,0.4455651044845581
432,1428893,1428894,-0.306657075881958,-0.2876943349838257,0.9692742228507996,2.5245201587677,12.02293872833252,3.977409839630127,-0.5444727540016174,-0.47847607731819153,-0.3224838674068451,1.223406434059143,0.36183327436447144,0.4850378632545471
433,1428903,1428904,-0.0310694370418787,-0.2596887946128845,0.962476372718811,1.4933580160140991,17.620328903198242,4.164456844329834,-0.554972231388092,-0.4679765999317169,-0.33598318696022034,1.0182207822799683,0.3777836859226227,0.5154926776885986
434,1428913,1428914,-0.08566582202911377,-0.4553509056568146,0.9408817291259766,-0.5538464784622192,23.039506912231445,2.8250906467437744,-0.5504724383354187,-0.48147591948509216,-0.3254837095737457,0.9422175884246826,0.45156586170196533,0.5587130188941956
435,1428923,1428924,-0.5044022798538208,-0.5742272138595581,0.9717270135879517,-5.772663116455078,20.095102310180664,1.0305896997451782,-0.5579720735549927,-0.4919753968715668,-0.32998350262641907,0.5992209911346436,0.4083992540836334,0.5832490921020508
436,1428933,1428934,-1.2215138673782349,-0.18019065260887146,1.0435117483139038,-9.453713417053223,11.420124053955078,-0.9613111615180969,-0.5609719157218933,-0.4829758405685425,-0.3209839463233948,0.3773121237754822,0.283670574426651,0.6076287031173706
437,1428943,1428944,-0.7152257561683655,-0.08700224757194519,1.0880359411239624,-12.8370943069458,-1.9609593152999878,-5.007095813751221,-0.5459727048873901,-0.48897555470466614,-0.33898305892944336,0.3854966461658478,0.10497831553220749,0.6339356303215027
438,1428953,1428954,-0.3181303143501282,-0.4485974609851837,1.0868319272994995,-15.209174156188965,-10.244885444641113,-9.097188949584961,-0.554972231388092,-0.48897555470466614,-0.33598318696022034,0.47668352723121643,0.021174684166908264,0.5991145372390747
439,1428963,1428964,-0.7326071262359619,-0.5280517339706421,0.9975072145462036,-27.979501724243164,-18.497661590576172,-11.191454887390137,-0.5564721822738647,-0.48747560381889343,-0.33448326587677,0.4732073247432709,-0.033815253525972366,0.5027064085006714
440,1428973,1428974,-0.11835119128227234,-0.748258113861084,1.1102313995361328,-38.51913070678711,-20.893064498901367,-9.850387573242188,-0.5414729118347168,-0.48747560381889343,-0.3404829800128937,0.6441047787666321,-0.40723681449890137,0.4098477363586426
441,1428983,1428984,-0.18442893028259277,-0.3797585368156433,0.9690952897071838,-37.41206741333008,-16.083179473876953,-10.576119422912598,-0.5459727048873901,-0.4859756827354431,-0.3329833447933197,0.9187249541282654,-0.8155695199966431,0.3258053958415985
442,1428993,1428994,-0.3774588704109192,-0.02539144828915596,1.05657958984375,-36.73966598510742,-3.4344189167022705,-9.680290222167969,-0.5369731187820435,-0.4829758405685425,-0.33898305892944336,1.0116804838180542,-1.0868862867355347,0.20936231315135956
443,1429003,1429004,-0.3533855974674225,-0.3252042829990387,1.0346306562423706,-28.688720703125,8.79354190826416,-7.592536926269531,-0.5384730696678162,-0.47847607731819153,-0.3404829800128937,0.9281651377677917,-1.5901764631271362,0.12106800824403763
444,1429013,1429014,0.01943150721490383,-0.09412230551242828,0.9576772451400757,-19.84720802307129,23.46373748779297,-5.338061809539795,-0.5414729118347168,-0.4574771225452423,-0.33448326587677,0.8689197897911072,-1.8132388591766357,0.02709549106657505
445,1429023,1429024,-0.051389310508966446,0.009922988712787628,0.964157223701477,-9.8519868850708,37.46630096435547,-4.655263900756836,-0.5489725470542908,-0.4589770436286926,-0.34498274326324463,0.5608624219894409,-1.962188959121704,-0.0435161367058754
446,1429033,1429034,-0.0554901659488678,-0.2040666788816452,1.05258047580719,1.7193632125854492,43.54060745239258,-3.1986587047576904,-0.5669716596603394,-0.455977201461792,-0.33898305892944336,0.26058441400527954,-2.022054433822632,-0.12181425839662552
447,1429043,1429044,-0.06897341459989548,-0.1729404777288437,1.0378777980804443,15.931302070617676,37.8984489440918,-3.314786911010742,-0.5504724383354187,-0.4634768068790436,-0.3404829800128937,-0.3789633810520172,-1.9626144170761108,-0.1672782003879547
448,1429053,1429054,0.022711973637342453,-0.15248353779315948,0.987316906452179,28.67727279663086,26.18250846862793,-1.1923657655715942,-0.5669716596603394,-0.455977201461792,-0.341982901096344,-0.7518455982208252,-1.8236243724822998,-0.2231168895959854
449,1429063,1429064,-0.15121452510356903,-0.054942842572927475,1.0142567157745361,39.7479248046875,9.767641067504883,-0.39179667830467224,-0.562471866607666,-0.47247636318206787,-0.33448326587677,-0.8511643409729004,-1.752780556678772,-0.2787545621395111
450,1429073,1429074,0.031000465154647827,0.08473276346921921,1.021724820137024,45.976905822753906,-6.165651321411133,1.8354624509811401,-0.5654717087745667,-0.4664766788482666,-0.3314834237098694,-0.8497472405433655,-1.159669280052185,-0.3232233226299286
451,1429083,1429084,0.00011024210834875703,-0.5037395358085632,1.1267095804214478,44.56893539428711,-19.560909271240234,5.694745063781738,-0.562471866607666,-0.48747560381889343,-0.32848358154296875,-0.798423171043396,-0.9356738328933716,-0.32159894704818726
452,1429093,1429094,-0.31076863408088684,-0.3473471999168396,1.2125858068466187,34.12916564941406,-29.005146026611328,10.1174898147583,-0.5639718174934387,-0.47997599840164185,-0.32698363065719604,-0.4393266439437866,-0.47083061933517456,-0.30396541953086853
453,1429103,1429104,-0.22554577887058258,-0.05695274844765663,1.1278977394104004,21.844995498657227,-31.64544677734375,13.657468795776367,-0.5564721822738647,-0.48747560381889343,-0.3254837095737457,-0.1609060913324356,-0.028178617358207703,-0.1941002607345581
454,1429113,1429114,-0.16643387079238892,-0.17986039817333221,0.9851971864700317,3.4354679584503174,-24.698747634887695,16.877155303955078,-0.5474725961685181,-0.4844757616519928,-0.3254837095737457,0.15148164331912994,0.055987559258937836,-0.07446009665727615
455,1429123,1429124,-0.36941471695899963,-0.4289530813694,0.9180634617805481,-13.510885238647461,-10.26676082611084,19.891481399536133,-0.5594720244407654,-0.4664766788482666,-0.3164841830730438,0.3127942383289337,0.017023500055074692,0.08976644277572632
456,1429133,1429134,-0.644660472869873,-0.10344516485929489,1.0640376806259155,-23.404216766357422,7.160329341888428,23.384960174560547,-0.5639718174934387,-0.46197688579559326,-0.3239837884902954,0.37427714467048645,-0.1247544139623642,0.2883005738258362
457,1429143,1429144,-0.15144844353199005,-0.32055899500846863,1.131992220878601,-24.11612892150879,20.62692642211914,26.643259048461914,-0.5489725470542908,-0.4649767279624939,-0.32698363065719604,0.2564287781715393,-0.47331035137176514,0.5188278555870056
458,1429153,1429154,0.00261472980491817,-0.10794734209775925,1.1012595891952515,-13.048385620117188,27.155466079711914,29.093263626098633,-0.5609719157218933,-0.4649767279624939,-0.33598318696022034,-0.052378565073013306,-0.7766099572181702,0.7848721146583557
459,1429163,1429164,-0.26587313413619995,-0.049987245351076126,1.1734178066253662,3.781154155731201,27.750123977661133,31.55426788330078,-0.5654717087745667,-0.4664766788482666,-0.3224838674068451,-0.2232062816619873,-0.8704917430877686,1.0572484731674194
460,1429173,1429174,-0.2437768131494522,-0.09063449501991272,1.0693349838256836,21.05184555053711,19.984460830688477,31.867883682250977,-0.56997150182724,-0.4679765999317169,-0.33598318696022034,-0.5937929153442383,-0.6473653316497803,1.3817158937454224
461,1429183,1429184,-0.2025119811296463,-0.1395639181137085,1.065764307975769,34.27635955810547,10.616455078125,32.17469787597656,-0.56997150182724,-0.4589770436286926,-0.3149842321872711,-0.6963819265365601,-0.38085323572158813,1.6855063438415527
462,1429193,1429194,0.026022210717201233,-0.03152826055884361,1.0671542882919312,44.94013977050781,0.3595803678035736,33.49363327026367,-0.5729713439941406,-0.4679765999317169,-0.32998350262641907,-0.8047817945480347,0.08339189738035202,2.0078272819519043
463,1429203,1429204,0.014020022004842758,-0.0807521864771843,1.04817533493042,48.499176025390625,-7.319530010223389,33.52777862548828,-0.5849707126617432,-0.4679765999317169,-0.30898454785346985,-0.8084274530410767,0.3354674279689789,2.3154141902923584
464,1429213,1429214,-0.7448623776435852,-0.44821882247924805,1.0105229616165161,43.8199462890625,-13.297103881835938,34.69449234008789,-0.5864706635475159,-0.47847607731819153,-0.3404829800128937,-0.6987681984901428,0.9756845831871033,2.663832902908325
465,1429223,1429224,-0.4558291435241699,-0.33382248878479004,1.0378514528274536,30.31020164489746,-13.718168258666992,35.034366607666016,-0.5924703478813171,-0.4634768068790436,-0.31048446893692017,-0.5173389911651611,1.35113525390625,2.9907805919647217
466,1429233,1429234,-0.3124336302280426,-0.21099746227264404,1.0941495895385742,17.263973236083984,-11.758249282836914,35.57083511352539,-0.5864706635475159,-0.4754762053489685,-0.3254837095737457,-0.4076297879219055,1.4630476236343384,3.3094091415405273
467,1429243,1429244,-0.9588318467140198,-0.763760507106781,1.0067634582519531,6.4407057762146,-8.976297378540039,35.91939926147461,-0.5819708704948425,-0.45297732949256897,-0.29998499155044556,-0.2313382774591446,1.7401466369628906,3.6714134216308594
468,1429253,1429254,-0.653165876865387,-0.2922227680683136,0.9747267961502075,-1.0250756740570068,-12.08022403717041,36.21519088745117,-0.5849707126617432,-0.45297732949256897,-0.2939853072166443,-0.1555093377828598,1.5666451454162598,3.9868929386138916
