,timestamp_start,timestamp_end,acc.x,acc.y,acc.z,gyro.x,gyro.y,gyro.z,mag.x,mag.y,mag.z,stabilizer.pitch,stabilizer.roll,stabilizer.yaw
0,21951,21952,-0.10003815591335297,-0.1427890509366989,0.9246160984039307,7.9112043380737305,19.192955017089844,-1.7508741617202759,-0.5939702987670898,-0.8309584259986877,-0.29998499155044556,3.061494827270508,-1.2476317882537842,-2.0597116947174072
1,21961,21962,-0.19792436063289642,-0.06580396741628647,0.9305854439735413,-0.03136496990919113,14.911723136901855,-1.0917562246322632,-0.56997150182724,-0.8459576964378357,-0.28798559308052063,2.8848214149475098,-1.1531095504760742,-2.094730854034424
2,21971,21972,-0.4745526611804962,-0.24360452592372894,1.037907600402832,-8.439271926879883,15.350954055786133,-3.389188051223755,-0.577471137046814,-0.8384580612182617,-0.3014849126338959,2.6759963035583496,-1.3122520446777344,-2.078874111175537
3,21981,21982,-0.5163931250572205,-0.1718449890613556,0.9931885004043579,-7.5781755447387695,5.301924228668213,-4.138583660125732,-0.5789710283279419,-0.8399580121040344,-0.3029848337173462,2.52449369430542,-0.7543679475784302,-2.2297840118408203
4,21991,21992,-0.25136011838912964,-0.3151920735836029,1.0358412265777588,-8.415399551391602,4.27838134765625,-5.000932216644287,-0.5819708704948425,-0.8489575386047363,-0.3119843900203705,2.4813079833984375,-0.8473412394523621,-2.2791757583618164
5,22001,22002,-0.21386727690696716,0.02557760663330555,0.9816980361938477,-6.203502655029297,2.866182327270508,-5.498866558074951,-0.5909704566001892,-0.851957380771637,-0.3029848337173462,2.395909309387207,-0.9285555481910706,-2.3234822750091553
6,22011,22012,-0.3922240436077118,-0.491773396730423,1.0600298643112183,-10.172063827514648,4.3568267822265625,-7.131656169891357,-0.5804709792137146,-0.844457745552063,-0.29848507046699524,2.2420594692230225,-1.0857136249542236,-2.35491681098938
7,22021,22022,-0.42120325565338135,-0.9388251304626465,1.0157133340835571,-10.049765586853027,5.1322503089904785,-8.471386909484863,-0.5834708213806152,-0.850457489490509,-0.3044847846031189,2.239366292953491,-1.2583173513412476,-2.423537015914917
8,22031,22032,-0.11179118603467941,-0.37981554865837097,1.0352108478546143,-9.76224422454834,2.809501886367798,-7.752110481262207,-0.577471137046814,-0.8384580612182617,-0.3014849126338959,2.1031250953674316,-1.4285093545913696,-2.488333225250244
9,22041,22042,-0.08277573436498642,0.04433969035744667,1.0796509981155396,-5.1080169677734375,8.70138168334961,-10.608349800109863,-0.5864706635475159,-0.8384580612182617,-0.2924853563308716,2.084169626235962,-1.470277190208435,-2.572608470916748
10,22051,22052,-0.012281985953450203,-0.14243918657302856,0.9735659956932068,0.6563185453414917,1.9782425165176392,-7.433532238006592,-0.5804709792137146,-0.844457745552063,-0.29848507046699524,2.031627893447876,-1.6939911842346191,-2.6720693111419678
11,22061,22062,-0.15784190595149994,-0.49597644805908203,1.008423924446106,4.90561580657959,8.393362998962402,-9.006733894348145,-0.5924703478813171,-0.8384580612182617,-0.28948551416397095,1.9904171228408813,-1.7521849870681763,-2.7488677501678467
12,22071,22072,-0.3192780315876007,-0.5105894207954407,0.955357551574707,7.225859642028809,1.6185472011566162,-6.602789402008057,-0.5804709792137146,-0.8294585347175598,-0.3014849126338959,2.0055501461029053,-1.6760634183883667,-2.8469157218933105
13,22081,22082,-0.639743983745575,-0.2551175057888031,0.9252968430519104,6.901635646820068,10.024497985839844,-8.605790138244629,-0.5864706635475159,-0.8264586329460144,-0.28048595786094666,1.9594107866287231,-1.7712194919586182,-2.9247782230377197
14,22091,22092,-0.1990693360567093,-0.22040757536888123,0.9388183951377869,8.169659614562988,8.696605682373047,-7.670267581939697,-0.5969701409339905,-0.8309584259986877,-0.28498575091362,1.8238731622695923,-1.5225565433502197,-2.9985148906707764
15,22101,22102,-0.21197214722633362,-0.12796209752559662,0.9702297449111938,7.882287502288818,19.56512451171875,-10.269725799560547,-0.5969701409339905,-0.8249587416648865,-0.27898603677749634,1.6271177530288696,-1.4153435230255127,-3.070359945297241
16,22111,22112,-0.21263545751571655,-0.1937042623758316,0.9551406502723694,13.533195495605469,13.814396858215332,-8.345454216003418,-0.5999699831008911,-0.836958110332489,-0.2939853072166443,1.3480284214019775,-1.3268979787826538,-3.1622092723846436
17,22121,22122,-0.41018399596214294,-0.2272503525018692,1.0128360986709595,17.046173095703125,20.005569458007812,-9.498817443847656,-0.6134693026542664,-0.8294585347175598,-0.28948551416397095,1.007907748222351,-1.1516104936599731,-3.220419406890869
18,22131,22132,-0.511654794216156,-0.5710718631744385,1.039691686630249,17.501506805419922,12.382019996643066,-7.965334415435791,-0.6029698252677917,-0.8339582681655884,-0.29098543524742126,0.13708698749542236,-1.3316693305969238,-3.257925033569336
19,22141,22142,-0.3543483018875122,-0.7848988771438599,0.9329729080200195,6.291632652282715,12.673334121704102,-12.605798721313477,-0.5999699831008911,-0.8309584259986877,-0.28798559308052063,-0.003678529057651758,-1.2295312881469727,-3.3640143871307373
20,22151,22152,-0.47096699476242065,-1.0636460781097412,0.8654484748840332,1.077111005783081,-6.364535331726074,-14.15501880645752,-0.6014699339866638,-0.8414579033851624,-0.2924853563308716,-0.06805567443370819,-1.0579010248184204,-3.4724459648132324
21,22161,22162,-0.6599113941192627,-1.1688792705535889,0.9280368685722351,-2.873314142227173,-16.711027145385742,-17.59059715270996,-0.6119694113731384,-0.8309584259986877,-0.28798559308052063,0.2000361680984497,-1.063560962677002,-3.645189046859741
22,22171,22172,-0.683559775352478,-0.9597146511077881,0.927238404750824,-6.815786361694336,-35.23966598510742,-18.788719177246094,-0.5879706144332886,-0.836958110332489,-0.28198590874671936,0.44248467683792114,-1.1790844202041626,-3.8386404514312744
23,22181,22182,-0.5507701635360718,-0.3367706835269928,0.9929278492927551,-0.6388574242591858,-40.230438232421875,-22.42424964904785,-0.5909704566001892,-0.8279585838317871,-0.28798559308052063,1.087441325187683,-1.216032862663269,-4.052196502685547
24,22191,22192,-0.3033871054649353,-0.185418039560318,1.050822138786316,4.297565460205078,-41.447509765625,-24.825763702392578,-0.5984700918197632,-0.8264586329460144,-0.2834858298301697,1.8406434059143066,-0.8214234709739685,-4.205175399780273
25,22201,22202,-0.2645410895347595,-0.3122524917125702,1.0266542434692383,18.25102424621582,-33.4586296081543,-26.747940063476562,-0.5909704566001892,-0.8279585838317871,-0.28798559308052063,1.7666146755218506,-1.1798627376556396,-4.506412506103516
26,22211,22212,-0.18637202680110931,-0.29920437932014465,1.0329633951187134,24.79332160949707,-16.826868057250977,-26.73172950744629,-0.5879706144332886,-0.8309584259986877,-0.2969851493835449,2.1150777339935303,-0.8040753602981567,-4.724422931671143
27,22221,22222,0.021250871941447258,-0.3940582275390625,0.957793653011322,37.33059310913086,2.3805313110351562,-25.739547729492188,-0.5984700918197632,-0.8264586329460144,-0.2924853563308716,2.1086795330047607,-0.5401791930198669,-4.97502326965332
28,22231,22232,-0.01285142544656992,-0.2870272696018219,0.9877371191978455,42.00578689575195,23.410877227783203,-20.545642852783203,-0.6089695692062378,-0.8309584259986877,-0.27898603677749634,2.041372776031494,0.006749686319380999,-5.188177585601807
29,22241,22242,-0.39995241165161133,0.13869795203208923,1.037887454032898,43.96342468261719,36.26046371459961,-17.02802848815918,-0.6194689869880676,-0.8264586329460144,-0.2864856719970703,1.6899164915084839,0.467337965965271,-5.3722147941589355
30,22251,22252,-0.46947383880615234,-0.41726499795913696,0.9513152241706848,37.25925064086914,27.79774284362793,-10.534653663635254,-0.616469144821167,-0.8384580612182617,-0.2864856719970703,1.2908767461776733,0.926464319229126,-5.520630359649658
31,22261,22262,-0.539222002029419,-0.7893090844154358,0.8225906491279602,33.93568420410156,35.725948333740234,-10.184348106384277,-0.6119694113731384,-0.8309584259986877,-0.29098543524742126,0.8748453855514526,1.297770619392395,-5.622851371765137
32,22271,22272,-0.5439304113388062,-0.6359626054763794,0.8708903193473816,14.6516695022583,21.720703125,-6.8636064529418945,-0.6209689378738403,-0.8159592151641846,-0.27898603677749634,0.6109418272972107,1.6043670177459717,-5.7026567459106445
33,22281,22282,-0.3812769651412964,-0.0851803719997406,0.9286512732505798,-6.175278186798096,4.447660446166992,-5.551590919494629,-0.6179690957069397,-0.8249587416648865,-0.2759861946105957,0.5285629034042358,1.719249963760376,-5.7536468505859375
34,22291,22292,-0.2540532350540161,0.04320598021149635,0.9405355453491211,-24.36996841430664,-4.180398464202881,-3.82043194770813,-0.6179690957069397,-0.8309584259986877,-0.27898603677749634,0.5106171369552612,1.5100637674331665,-5.829904079437256
35,22301,22302,-0.10769953578710556,-0.040135812014341354,1.0386086702346802,-38.692447662353516,-8.483242988586426,-1.1977171897888184,-0.6119694113731384,-0.8309584259986877,-0.2759861946105957,0.6162880659103394,1.0501468181610107,-5.902477741241455
36,22311,22312,-0.04976921156048775,-0.020035699009895325,0.9563208222389221,-40.194393157958984,-32.296470642089844,1.5288360118865967,-0.6029698252677917,-0.8489575386047363,-0.2969851493835449,0.6157503724098206,0.6648779511451721,-5.932173728942871
37,22321,22322,-0.35154759883880615,-0.2649545669555664,0.8681837916374207,-30.472322463989258,-23.331754684448242,-0.2659771740436554,-0.5969701409339905,-0.8189590573310852,-0.28498575091362,1.105728268623352,0.3680330514907837,-5.866677761077881
38,22331,22332,-0.22218938171863556,-0.36349400877952576,0.8702927231788635,-13.750543594360352,-24.087697982788086,0.654557466506958,-0.6029698252677917,-0.8339582681655884,-0.26998651027679443,1.497015357017517,0.04333148151636124,-5.848747253417969
39,22341,22342,-0.2690720558166504,-0.11307604610919952,1.0127618312835693,-6.420730113983154,-13.14942455291748,-0.8031487464904785,-0.5984700918197632,-0.8384580612182617,-0.28048595786094666,1.8348469734191895,-0.047767337411642075,-5.8179450035095215
40,22351,22352,-0.034168392419815063,0.21868258714675903,0.9927447438240051,14.841581344604492,-2.9755735397338867,2.285120725631714,-0.6029698252677917,-0.8189590573310852,-0.2759861946105957,1.8941537141799927,0.07982054352760315,-5.798106670379639
41,22361,22362,-0.074999138712883,0.00900229811668396,1.0654323101043701,29.67686653137207,9.817424774169922,2.0655407905578613,-0.6149692535400391,-0.8279585838317871,-0.27298635244369507,2.040083408355713,0.43219953775405884,-5.726892948150635
42,22371,22372,-0.12447936087846756,-0.1839929074048996,0.9372310042381287,48.83146286010742,11.286890029907227,5.971996307373047,-0.6059696674346924,-0.8249587416648865,-0.28498575091362,1.9114993810653687,0.7835738658905029,-5.699925899505615
43,22381,22382,-0.09227023273706436,-0.15381823480129242,0.9552016258239746,50.75724411010742,22.967124938964844,9.696521759033203,-0.616469144821167,-0.8324583768844604,-0.2834858298301697,1.691545844078064,1.3130851984024048,-5.630835056304932
44,22391,22392,-0.19885706901550293,-0.35298213362693787,0.9706229567527771,39.25185775756836,25.123109817504883,13.411120414733887,-0.6179690957069397,-0.8429578542709351,-0.28198590874671936,1.315335988998413,1.9184238910675049,-5.519869804382324
45,22401,22402,-0.2868398427963257,-0.32644352316856384,0.9276666045188904,15.884278297424316,23.59380531311035,16.408737182617188,-0.622468888759613,-0.8384580612182617,-0.2954852283000946,1.2098551988601685,2.3794517517089844,-5.324862480163574
46,22411,22412,-0.40234169363975525,-0.28958454728126526,1.0531080961227417,-10.77547550201416,7.655517578125,18.457040786743164,-0.6134693026542664,-0.844457745552063,-0.29848507046699524,0.982677161693573,2.458779811859131,-5.1593403816223145
47,22421,22422,-0.3379342257976532,-0.36654940247535706,0.9673064947128296,-36.1416015625,7.7526021003723145,18.26142692565918,-0.6089695692062378,-0.8399580121040344,-0.28798559308052063,0.9043285250663757,2.088837146759033,-5.005702972412109
48,22431,22432,-0.07005426287651062,-0.09772852063179016,0.9957879781723022,-56.47673034667969,5.941895484924316,18.737850189208984,-0.5924703478813171,-0.8294585347175598,-0.2864856719970703,0.6675094962120056,1.3401587009429932,-4.925844669342041
49,22441,22442,-0.16547000408172607,-0.0073495106771588326,0.9706501364707947,-64.51717376708984,-1.3210415840148926,18.648616790771484,-0.5879706144332886,-0.8489575386047363,-0.2939853072166443,0.3752688467502594,0.6967082023620605,-4.8230671882629395
50,22451,22452,-0.09727516770362854,-0.15714144706726074,0.8877689838409424,-58.56306457519531,-7.281954288482666,19.645183563232422,-0.5939702987670898,-0.836958110332489,-0.29098543524742126,0.4716714322566986,-0.035346269607543945,-4.636564254760742
51,22461,22462,-0.17315581440925598,-0.12505869567394257,0.9367554187774658,-39.26218795776367,-13.934822082519531,21.59650993347168,-0.5909704566001892,-0.8219588994979858,-0.28198590874671936,0.6594313383102417,-0.7725825309753418,-4.447990894317627
52,22471,22472,-0.218443363904953,-0.2549270987510681,0.9353156089782715,-19.176616668701172,-21.87138557434082,23.9841251373291,-0.6029698252677917,-0.8279585838317871,-0.2759861946105957,0.9269315600395203,-1.1134824752807617,-4.192934513092041
53,22481,22482,-0.7513407468795776,-0.48575523495674133,0.8769130706787109,0.38138020038604736,-17.069469451904297,23.882640838623047,-0.5969701409339905,-0.8159592151641846,-0.2939853072166443,1.4366486072540283,-1.416180968284607,-3.912666082382202
54,22491,22492,-0.5449820160865784,-0.08825651556253433,0.8710007071495056,19.232391357421875,-17.567399978637695,24.06281852722168,-0.5954701900482178,-0.8234587907791138,-0.28048595786094666,3.104966640472412,-1.121518611907959,-3.3543620109558105
55,22501,22502,-0.17946600914001465,-0.3462279438972473,0.9952402114868164,37.64192581176758,-1.800640344619751,21.07016944885254,-0.5954701900482178,-0.8234587907791138,-0.28048595786094666,3.1172611713409424,-0.8107896447181702,-3.124450922012329
56,22511,22512,-0.04725906252861023,-0.5785146355628967,0.956328809261322,47.281837463378906,18.12891387939453,18.163326263427734,-0.5954701900482178,-0.8234587907791138,-0.28048595786094666,2.8744709491729736,-0.2659996747970581,-2.9277589321136475
57,22521,22522,-0.08769872039556503,-0.15237140655517578,0.9837392568588257,50.25465393066406,43.76340103149414,13.166736602783203,-0.6059696674346924,-0.8459576964378357,-0.3029848337173462,2.241128921508789,0.5142247676849365,-2.7694406509399414
58,22531,22532,0.01718858629465103,0.2746826708316803,1.0661596059799194,46.08388137817383,57.226139068603516,7.930780410766602,-0.6044697761535645,-0.8534573316574097,-0.2834858298301697,1.5071983337402344,0.9514755010604858,-2.67267107963562
59,22541,22542,-0.03197357803583145,0.08090907335281372,1.0761537551879883,35.07582092285156,65.88462829589844,1.4730849266052246,-0.6059696674346924,-0.8549572229385376,-0.3029848337173462,0.8028035163879395,1.3479253053665161,-2.612147569656372
60,22551,22552,-0.1077108085155487,-0.6695926189422607,1.045498013496399,19.275409698486328,67.15369415283203,-2.3246312141418457,-0.6104694604873657,-0.8534573316574097,-0.2924853563308716,-0.19734393060207367,1.7460278272628784,-2.6210243701934814
61,22561,22562,-0.4757246673107147,-0.3477443754673004,1.0827865600585938,1.0082837343215942,61.94614028930664,-7.073983669281006,-0.6299684643745422,-0.8399580121040344,-0.2969851493835449,-0.8712623715400696,1.732988715171814,-2.6605403423309326
62,22571,22572,-0.2410929799079895,-0.2690821886062622,0.9764344096183777,-16.550939559936523,42.66770553588867,-9.195344924926758,-0.6299684643745422,-0.8549572229385376,-0.29098543524742126,-1.6813867092132568,1.6415479183197021,-2.766354560852051
63,22581,22582,-0.12636439502239227,-0.16602979600429535,0.8732904195785522,-26.019580841064453,22.617847442626953,-9.845714569091797,-0.6404679417610168,-0.8294585347175598,-0.2864856719970703,-1.8599097728729248,1.5967484712600708,-2.7759642601013184
64,22591,22592,-0.455298513174057,-0.17023396492004395,0.9259955883026123,-36.34912109375,10.751779556274414,-10.439079284667969,-0.6329683661460876,-0.8279585838317871,-0.27898603677749634,-2.1331889629364014,1.140668272972107,-2.9275007247924805
65,22601,22602,-0.49373599886894226,-0.45006680488586426,0.9594478011131287,-45.42833709716797,-13.124259948730469,-9.928447723388672,-0.6194689869880676,-0.8294585347175598,-0.2954852283000946,-2.1468427181243896,0.6026078462600708,-3.065653085708618
66,22611,22612,-0.432982474565506,-0.6712632179260254,0.9832408428192139,-42.98128128051758,-27.88310432434082,-10.828146934509277,-0.6104694604873657,-0.8234587907791138,-0.2864856719970703,-2.069321632385254,0.5080879926681519,-3.059302568435669
67,22621,22622,-0.8025593757629395,-0.931987464427948,1.005711317062378,-37.131229400634766,-40.46217346191406,-12.892961502075195,-0.6194689869880676,-0.8354582190513611,-0.2744862735271454,-1.5837830305099487,0.09444794803857803,-3.1351263523101807
68,22631,22632,-0.6505284905433655,-0.6782436370849609,0.9365674257278442,-25.381866455078125,-40.934837341308594,-12.563250541687012,-0.6044697761535645,-0.8264586329460144,-0.2924853563308716,-1.4127163887023926,-0.13223378360271454,-3.251217842102051
69,22641,22642,-0.5106402039527893,-0.5150693655014038,0.7996581792831421,-16.5640869140625,-25.86992835998535,-13.69991683959961,-0.6014699339866638,-0.8384580612182617,-0.28048595786094666,-1.0052108764648438,-0.4160723388195038,-3.3902714252471924
70,22651,22652,-0.2486957460641861,-0.2998120188713074,0.8647975921630859,-2.078944444656372,-18.47466468811035,-12.491060256958008,-0.623968780040741,-0.8309584259986877,-0.2939853072166443,-0.9043806195259094,-0.3716030716896057,-3.462238073348999
71,22661,22662,-0.22210124135017395,-0.34257981181144714,1.0117942094802856,8.92052936553955,-4.875992298126221,-9.7385835647583,-0.6209689378738403,-0.8279585838317871,-0.28498575091362,-0.9572163820266724,-0.3293127119541168,-3.586055278778076
72,22671,22672,-0.16201630234718323,-0.2561078667640686,0.9996211528778076,17.369470596313477,5.027045249938965,-6.672452926635742,-0.6194689869880676,-0.8474575877189636,-0.2924853563308716,-0.9148374199867249,-0.17918868362903595,-3.6542458534240723
73,22681,22682,-0.5030092597007751,0.05719507113099098,1.0095371007919312,16.682519912719727,12.122855186462402,-2.8916115760803223,-0.616469144821167,-0.8324583768844604,-0.2954852283000946,-1.0033832788467407,0.10776737332344055,-3.665184736251831
74,22691,22692,-0.40242472290992737,-0.18286392092704773,1.0594208240509033,11.224665641784668,10.037473678588867,-0.7600617408752441,-0.6119694113731384,-0.851957380771637,-0.28798559308052063,-1.29841148853302,0.28313136100769043,-3.699450969696045
75,22701,22702,-1.0136305093765259,-0.24488747119903564,1.0365715026855469,-1.5685707330703735,3.445958137512207,1.5794168710708618,-0.6359682083129883,-0.8399580121040344,-0.28798559308052063,-1.3840783834457397,0.3159300684928894,-3.726435661315918
76,22711,22712,-1.2123407125473022,-0.5793919563293457,0.8562058210372925,-13.019301414489746,2.721632242202759,5.260228157043457,-0.616469144821167,-0.8354582190513611,-0.2924853563308716,-1.5414191484451294,0.2999128997325897,-3.704275131225586
77,22721,22722,-0.882034957408905,-0.1756916046142578,0.8194368481636047,-27.38448143005371,2.3443691730499268,8.279446601867676,-0.6209689378738403,-0.8399580121040344,-0.28798559308052063,-1.5489040613174438,0.03419266268610954,-3.6869137287139893
78,22731,22732,-0.07960601896047592,-0.3125694990158081,1.006422519683838,-35.8211784362793,-16.488916397094727,13.015730857849121,-0.6014699339866638,-0.8324583768844604,-0.28948551416397095,-1.7851619720458984,-0.10362003743648529,-3.5437724590301514
79,22741,22742,-0.048490867018699646,-0.4796893000602722,0.9371605515480042,-34.20561218261719,-22.714553833007812,13.866232872009277,-0.5954701900482178,-0.8234587907791138,-0.2924853563308716,-1.480080246925354,-0.5182532072067261,-3.4406344890594482
80,22751,22752,-0.8355025053024292,-0.641690194606781,0.9084881544113159,-25.591243743896484,-31.038618087768555,16.0655574798584,-0.6119694113731384,-0.8279585838317871,-0.29098543524742126,-1.2964351177215576,-0.7393940687179565,-3.2465436458587646
81,22761,22762,-0.5144731402397156,-0.41271060705184937,0.8469588756561279,-24.209318161010742,-33.068912506103516,17.73737144470215,-0.6044697761535645,-0.8234587907791138,-0.2954852283000946,-0.9287328720092773,-0.9587626457214355,-3.053524971008301
82,22771,22772,-0.2804624140262604,-0.14538708329200745,0.9372490644454956,-17.748971939086914,-36.28339385986328,18.300601959228516,-0.6014699339866638,-0.8264586329460144,-0.2924853563308716,-0.4513363242149353,-1.1866847276687622,-2.858596086502075
83,22781,22782,-1.0271871089935303,-0.46782150864601135,0.8817325234413147,-11.429530143737793,-34.14451217651367,21.67641830444336,-0.5909704566001892,-0.836958110332489,-0.28498575091362,-0.15535594522953033,-1.3182001113891602,-2.6398611068725586
84,22791,22792,-1.0131592750549316,-0.45046910643577576,0.9985309839248657,-8.892120361328125,-30.023283004760742,23.946060180664062,-0.5984700918197632,-0.850457489490509,-0.29848507046699524,0.23784886300563812,-1.4982999563217163,-2.4421422481536865
85,22801,22802,-0.534762978553772,-0.11790627986192703,0.9460557103157043,-8.207552909851074,-27.30845832824707,24.465435028076172,-0.5819708704948425,-0.8459576964378357,-0.2939853072166443,0.26533928513526917,-1.5813308954238892,-2.1799402236938477
86,22811,22812,-0.1308315098285675,0.06973224878311157,0.9731741547584534,-6.688827991485596,-24.850141525268555,23.930328369140625,-0.5789710283279419,-0.851957380771637,-0.29098543524742126,0.6336866617202759,-1.6336842775344849,-1.9218580722808838
87,22821,22822,-0.060638897120952606,-0.04393962770700455,0.9896171689033508,-7.73639440536499,-22.036970138549805,21.628055572509766,-0.5819708704948425,-0.8489575386047363,-0.2939853072166443,0.8166202902793884,-1.7536604404449463,-1.6955809593200684
88,22831,22832,-0.22043107450008392,-0.04180889204144478,1.0135968923568726,-6.75908088684082,-13.35741138458252,19.12428855895996,-0.5849707126617432,-0.8489575386047363,-0.2939853072166443,0.9668067097663879,-1.8707900047302246,-1.4890224933624268
89,22841,22842,-0.23875097930431366,0.07584132254123688,1.0925318002700806,-3.5249598026275635,-10.81456184387207,18.001991271972656,-0.5804709792137146,-0.844457745552063,-0.2924853563308716,1.1087805032730103,-1.9548323154449463,-1.303938388824463
90,22851,22852,-0.3190055191516876,-0.18961216509342194,1.0531342029571533,-0.9733631610870361,-2.514974594116211,16.256101608276367,-0.5819708704948425,-0.8429578542709351,-0.2939853072166443,1.0938085317611694,-1.9770147800445557,-1.1067743301391602
91,22861,22862,-0.10851307958364487,-0.08333344012498856,1.005155086517334,2.8755300045013428,-4.988498210906982,15.606980323791504,-0.5789710283279419,-0.8549572229385376,-0.3149842321872711,1.0865901708602905,-2.096216917037964,-0.9632526636123657
92,22871,22872,-0.02218850888311863,-0.006939940620213747,0.9891660213470459,1.327899694442749,-12.918622016906738,16.897626876831055,-0.5834708213806152,-0.844457745552063,-0.28948551416397095,1.119434118270874,-2.021096706390381,-0.78934246301651
93,22881,22882,-0.3665770888328552,-0.02517968975007534,1.08527672290802,-4.808576583862305,-13.712257385253906,16.115882873535156,-0.56997150182724,-0.8339582681655884,-0.28798559308052063,1.2417126893997192,-2.016727924346924,-0.6204453706741333
94,22891,22892,-0.6667361855506897,-0.5645843744277954,1.0938198566436768,-8.367176055908203,-13.933320999145508,13.611037254333496,-0.5819708704948425,-0.8399580121040344,-0.28498575091362,1.4651916027069092,-2.1667957305908203,-0.494576096534729
95,22901,22902,-0.1885686218738556,-0.14422577619552612,1.0397484302520752,-5.573948383331299,-13.234647750854492,11.008699417114258,-0.5834708213806152,-0.8354582190513611,-0.2924853563308716,1.5385898351669312,-2.118375301361084,-0.32655617594718933
96,22911,22912,-0.05599619448184967,-0.04249107465147972,1.0558311939239502,0.09023471176624298,-10.78585147857666,9.216548919677734,-0.5759711861610413,-0.8309584259986877,-0.2939853072166443,1.5367594957351685,-2.289100170135498,-0.20262253284454346
97,22921,22922,-0.33001238107681274,-0.2549581825733185,1.073843240737915,12.781068801879883,-2.5399463176727295,6.297623157501221,-0.562471866607666,-0.8354582190513611,-0.28948551416397095,1.5906356573104858,-2.2369112968444824,-0.10193696618080139
98,22931,22932,-0.6198223233222961,-0.8427238464355469,1.0942915678024292,23.8518123626709,5.424935817718506,3.3506760597229004,-0.5684715509414673,-0.8384580612182617,-0.2864856719970703,1.565745234489441,-1.9875377416610718,-0.03657034784555435
99,22941,22942,-0.6473746299743652,-1.5518288612365723,1.0877517461776733,31.34515953063965,4.326448917388916,-0.3211206793785095,-0.5789710283279419,-0.8309584259986877,-0.2939853072166443,1.5093202590942383,-1.7099149227142334,-0.007505156099796295
100,22951,22952,-0.9405436515808105,-0.9464756846427917,1.0445843935012817,36.202239990234375,-0.29320165514945984,-2.418921709060669,-0.5759711861610413,-0.8459576964378357,-0.2969851493835449,1.4942727088928223,-1.4708023071289062,-0.017730319872498512
101,22961,22962,-0.5433477759361267,-0.3791996240615845,1.0419758558273315,32.021488189697266,-10.36565113067627,-0.9106523990631104,-0.5744712948799133,-0.8534573316574097,-0.30748462677001953,1.5936719179153442,-0.9827468991279602,-0.04732244461774826
102,22971,22972,-0.16437968611717224,-0.13333988189697266,0.9935061931610107,19.06344223022461,-12.360034942626953,-1.0845588445663452,-0.5864706635475159,-0.8594570159912109,-0.28948551416397095,1.836630940437317,-0.7612251043319702,-0.09165722131729126
103,22981,22982,-0.13128790259361267,-0.3725488483905792,0.9718440175056458,0.6708332896232605,-5.626926898956299,-2.4571688175201416,-0.56997150182724,-0.8399580121040344,-0.28498575091362,1.8322499990463257,-0.9295490980148315,-0.07718532532453537
104,22991,22992,-0.1133890375494957,-0.2698318064212799,1.0137594938278198,-14.897233963012695,0.8615906238555908,-4.007940292358398,-0.56997150182724,-0.8309584259986877,-0.27898603677749634,1.853263258934021,-1.0221319198608398,-0.10284901410341263
105,23001,23002,-0.2264743149280548,-0.05406947061419487,1.0317035913467407,-19.842472076416016,4.644930362701416,-2.8903210163116455,-0.5639718174934387,-0.8249587416648865,-0.28498575091362,1.84702730178833,-1.2269586324691772,-0.14998312294483185
106,23011,23012,-0.2981507480144501,-0.007374764420092106,1.0506253242492676,-16.136756896972656,8.774250030517578,-4.081920623779297,-0.5669716596603394,-0.8309584259986877,-0.29098543524742126,1.7845929861068726,-1.3706345558166504,-0.18787431716918945
107,23021,23022,-0.31946513056755066,0.04369112476706505,1.025343894958496,-7.039977550506592,10.112196922302246,-5.937206268310547,-0.5804709792137146,-0.8234587907791138,-0.28048595786094666,1.6219381093978882,-1.494905710220337,-0.21772794425487518
108,23031,23032,-0.031257957220077515,0.14720869064331055,1.0690233707427979,4.794332504272461,4.9930853843688965,-6.771534442901611,-0.5759711861610413,-0.8279585838317871,-0.27898603677749634,1.5605592727661133,-1.521199107170105,-0.287789911031723
109,23041,23042,-0.012533758766949177,-0.03509775549173355,1.0698349475860596,18.260133743286133,3.5913844108581543,-8.661633491516113,-0.5729713439941406,-0.8219588994979858,-0.27898603677749634,1.5684677362442017,-1.3364241123199463,-0.3786616325378418
110,23051,23052,-0.10399343818426132,0.049045711755752563,1.0065497159957886,30.377958297729492,-5.661128520965576,-8.198992729187012,-0.5879706144332886,-0.8249587416648865,-0.28798559308052063,1.6439337730407715,-1.1538493633270264,-0.4743393361568451
111,23061,23062,-0.266474187374115,0.009920008480548859,0.9976349472999573,33.235145568847656,-12.302204132080078,-5.61877965927124,-0.5804709792137146,-0.8354582190513611,-0.2834858298301697,1.6436586380004883,-0.7006814479827881,-0.54430091381073
112,23071,23072,-0.3983645439147949,-0.2012418806552887,0.9481836557388306,32.46647644042969,-16.860654830932617,-4.964338779449463,-0.5879706144332886,-0.8399580121040344,-0.29098543524742126,1.8857389688491821,-0.4980974495410919,-0.5964210033416748
113,23081,23082,-0.32182013988494873,-0.16459935903549194,0.943899393081665,26.36219596862793,-20.627962112426758,-2.8665881156921387,-0.5864706635475159,-0.8564571738243103,-0.29848507046699524,2.1769728660583496,-0.05368055775761604,-0.6688634157180786
114,23091,23092,-0.28678804636001587,-0.19056950509548187,0.9123585224151611,19.224727630615234,-13.82005500793457,0.12137387692928314,-0.5714713931083679,-0.844457745552063,-0.2924853563308716,2.4342732429504395,0.07182260602712631,-0.6843579411506653
115,23101,23102,-0.23627252876758575,-0.19973579049110413,0.9215205907821655,7.820794105529785,-0.08774805814027786,0.9362690448760986,-0.5804709792137146,-0.8324583768844604,-0.2924853563308716,2.5344977378845215,0.2545701861381531,-0.6802195906639099
116,23111,23112,-0.13887199759483337,-0.16201826930046082,0.9294236302375793,-2.621487855911255,6.843230247497559,3.5963549613952637,-0.5789710283279419,-0.851957380771637,-0.29098543524742126,2.3768742084503174,0.0526745580136776,-0.6042727828025818
117,23121,23122,-0.09711474925279617,-0.044136859476566315,0.9828893542289734,-10.230347633361816,14.017721176147461,4.577060222625732,-0.5729713439941406,-0.8459576964378357,-0.28198590874671936,2.2265310287475586,-0.010454115457832813,-0.5563809275627136
118,23131,23132,-0.12611530721187592,-0.2411864846944809,0.969316303730011,-12.652594566345215,20.809825897216797,6.16354513168335,-0.5819708704948425,-0.8429578542709351,-0.28198590874671936,2.0025618076324463,-0.1566539704799652,-0.49798890948295593
119,23141,23142,-0.14534783363342285,-0.3300009071826935,0.9612717032432556,-11.425251007080078,27.534385681152344,6.054195404052734,-0.5834708213806152,-0.8354582190513611,-0.2864856719970703,1.746704339981079,-0.2499639391899109,-0.44245585799217224
120,23151,23152,-0.09996169805526733,-0.13106413185596466,0.9719235301017761,-5.631628513336182,24.93102264404297,9.833566665649414,-0.5849707126617432,-0.836958110332489,-0.28498575091362,1.3071378469467163,-0.3069486916065216,-0.38014036417007446
121,23161,23162,-0.22029076516628265,-0.02785549685359001,1.0483235120773315,-1.7986903190612793,24.75300407409668,10.63050651550293,-0.5819708704948425,-0.8309584259986877,-0.28798559308052063,1.059989333152771,-0.3471168279647827,-0.2873947322368622
122,23171,23172,-0.11334075033664703,0.06821608543395996,1.0345019102096558,8.250429153442383,20.0913143157959,13.24537467956543,-0.5789710283279419,-0.8459576964378357,-0.28198590874671936,0.8644413352012634,-0.2864736020565033,-0.18810442090034485
123,23181,23182,0.012212083674967289,0.1154288649559021,1.0920552015304565,15.867706298828125,10.445833206176758,16.103336334228516,-0.5804709792137146,-0.850457489490509,-0.2864856719970703,0.702596127986908,-0.14604757726192474,-0.057492539286613464
124,23191,23192,-0.04574911668896675,0.04105488583445549,1.1299434900283813,22.678712844848633,6.944309234619141,16.140623092651367,-0.577471137046814,-0.850457489490509,-0.29848507046699524,0.6014155745506287,0.12028708308935165,0.09059996902942657
125,23201,23202,0.010545043274760246,0.1253359615802765,1.1066874265670776,25.785072326660156,2.155104398727417,17.769502639770508,-0.577471137046814,-0.8564571738243103,-0.2924853563308716,0.5616893768310547,0.18927644193172455,0.27462512254714966
126,23211,23212,-0.13600587844848633,-0.15783177316188812,1.1016781330108643,24.73395347595215,-0.3423658013343811,19.82958984375,-0.5834708213806152,-0.8534573316574097,-0.29848507046699524,0.6532444953918457,0.6322564482688904,0.4435494840145111
127,23221,23222,-0.3465094268321991,-0.2785312533378601,1.0429351329803467,16.044313430786133,1.600967526435852,20.935745239257812,-0.5789710283279419,-0.836958110332489,-0.3029848337173462,0.6886354088783264,0.7361354231834412,0.6555659770965576
128,23231,23232,-0.10983912646770477,-0.010562436655163765,1.0156782865524292,6.605945110321045,-0.9692940711975098,23.430206298828125,-0.5759711861610413,-0.8429578542709351,-0.28798559308052063,0.7150189280509949,0.8165626525878906,0.8786695599555969
129,23241,23242,-0.02062947116792202,0.07451481372117996,1.0032293796539307,-6.056430339813232,0.4882577061653137,22.46126365661621,-0.5819708704948425,-0.8339582681655884,-0.2969851493835449,0.660124659538269,0.8776258230209351,1.1083595752716064
130,23251,23252,-0.07669277489185333,0.06561439484357834,0.9976400136947632,-18.763469696044922,-1.6875340938568115,22.89695930480957,-0.5834708213806152,-0.8324583768844604,-0.28948551416397095,0.6800448298454285,0.44721052050590515,1.3512083292007446
131,23261,23262,-0.050249554216861725,0.039920445531606674,0.9874408841133118,-24.732332229614258,-3.336935043334961,21.115642547607422,-0.5759711861610413,-0.8339582681655884,-0.2969851493835449,0.7265425324440002,0.21070335805416107,1.577976107597351
132,23271,23272,-0.04403131827712059,-0.03679264336824417,1.0157198905944824,-24.043569564819336,-2.3936424255371094,20.280494689941406,-0.5744712948799133,-0.8204589486122131,-0.2924853563308716,0.6584929823875427,-0.14309927821159363,1.7802432775497437
133,23281,23282,-0.0763409212231636,-0.05363684520125389,0.9822724461555481,-15.493376731872559,-0.006270689889788628,17.005735397338867,-0.5729713439941406,-0.8219588994979858,-0.28798559308052063,0.7012512683868408,-0.27693459391593933,1.9736984968185425
134,23291,23292,-0.10208994150161743,0.12927201390266418,1.0153288841247559,-3.3307981491088867,4.504744529724121,14.864537239074707,-0.5864706635475159,-0.8204589486122131,-0.2924853563308716,0.6934874653816223,-0.3393612802028656,2.1396901607513428
135,23301,23302,-0.18086110055446625,-0.08464546501636505,1.0085090398788452,10.186832427978516,8.047889709472656,13.396953582763672,-0.5849707126617432,-0.8339582681655884,-0.27298635244369507,0.6246280074119568,-0.2554866671562195,2.280790090560913
136,23311,23312,-0.11767347902059555,-0.4095090627670288,0.9181077480316162,21.228219985961914,14.304296493530273,11.329107284545898,-0.5834708213806152,-0.8264586329460144,-0.28048595786094666,0.46508216857910156,-0.03981684520840645,2.404367446899414
137,23321,23322,-0.09137077629566193,-0.1175151914358139,1.0235283374786377,26.932363510131836,18.71599578857422,9.784528732299805,-0.5924703478813171,-0.8294585347175598,-0.27148643136024475,0.3543243110179901,0.10476882755756378,2.5162723064422607
138,23331,23332,-0.07451613247394562,0.06885238736867905,1.0469633340835571,28.212825775146484,15.553071022033691,8.024712562561035,-0.5894705057144165,-0.8204589486122131,-0.28948551416397095,0.15177848935127258,0.5209813117980957,2.6118555068969727
139,23341,23342,-0.0336771123111248,0.08296038955450058,1.024060845375061,22.17671775817871,11.878997802734375,7.280735015869141,-0.5834708213806152,-0.8414579033851624,-0.2924853563308716,-0.06593310087919235,0.7673993110656738,2.6839258670806885
140,23351,23352,-0.18686427175998688,0.11549311131238937,1.0058307647705078,9.774691581726074,5.511595249176025,7.449835777282715,-0.5864706635475159,-0.8324583768844604,-0.2954852283000946,-0.04774154722690582,1.0176295042037964,2.776585340499878
141,23361,23362,-0.23411448299884796,-0.07144566625356674,0.9996601939201355,-5.38393497467041,0.31457358598709106,4.023902416229248,-0.5729713439941406,-0.836958110332489,-0.2759861946105957,-0.08281244337558746,0.9592199921607971,2.8365111351013184
142,23371,23372,-0.15329653024673462,-0.3490701913833618,0.9452059864997864,-14.21528148651123,-1.3810927867889404,0.08519840240478516,-0.5744712948799133,-0.8414579033851624,-0.2834858298301697,0.030360279604792595,0.7894776463508606,2.8762316703796387
143,23381,23382,-0.8132756948471069,-0.44640153646469116,0.9747039079666138,-19.395606994628906,-4.31985330581665,-3.0293831825256348,-0.5759711861610413,-0.8339582681655884,-0.27898603677749634,0.10853393375873566,0.6333564519882202,2.8789069652557373
144,23391,23392,-0.5945000648498535,-0.1305694729089737,0.9727270603179932,-17.535236358642578,-6.612847805023193,-4.35739278793335,-0.5789710283279419,-0.836958110332489,-0.28198590874671936,0.14877533912658691,0.44637811183929443,2.8456478118896484
145,23401,23402,-0.16013619303703308,-0.060490768402814865,0.9510655403137207,-11.722577095031738,-5.317691802978516,-4.8065290451049805,-0.5789710283279419,-0.836958110332489,-0.28198590874671936,0.17731986939907074,0.3064514398574829,2.797534465789795
146,23411,23412,-0.2259661853313446,-0.013040709309279919,0.9260400533676147,-2.9714908599853516,2.838425874710083,-7.200811386108398,-0.5789710283279419,-0.836958110332489,-0.28198590874671936,0.2719448208808899,0.20932747423648834,2.7501049041748047
147,23421,23422,-0.14450563490390778,-0.09259867668151855,0.9483400583267212,4.770333290100098,8.236473083496094,-7.620715618133545,-0.5789710283279419,-0.836958110332489,-0.28198590874671936,0.12246755510568619,0.321685791015625,2.6748476028442383
148,23431,23432,-0.1541091799736023,-0.3264104723930359,0.9430095553398132,10.072132110595703,8.77241325378418,-8.396416664123535,-0.5894705057144165,-0.8174591064453125,-0.28948551416397095,0.059472355991601944,0.4559231698513031,2.6056103706359863
149,23441,23442,-0.040440257638692856,-0.40053611993789673,0.9388247728347778,11.746728897094727,11.061490058898926,-8.966087341308594,-0.5819708704948425,-0.8309584259986877,-0.28498575091362,-0.10387678444385529,0.5086874961853027,2.5028536319732666
150,23451,23452,-0.09000591188669205,-0.07288037985563278,0.9749684929847717,9.506591796875,5.782825469970703,-9.699482917785645,-0.5834708213806152,-0.8324583768844604,-0.2924853563308716,-0.09809891879558563,0.7153795957565308,2.437504529953003
151,23461,23462,-0.24443939328193665,0.04184066131711006,0.9699692130088806,4.259765148162842,-1.5272729396820068,-9.402149200439453,-0.5834708213806152,-0.850457489490509,-0.28948551416397095,-0.12747782468795776,0.8578160405158997,2.350738286972046
152,23471,23472,-0.4138181209564209,-0.09408235549926758,0.9658451080322266,-4.279603481292725,-9.805893898010254,-8.184198379516602,-0.5804709792137146,-0.8384580612182617,-0.28948551416397095,-0.039086706936359406,0.8918197751045227,2.2658586502075195
153,23481,23482,-0.19678927958011627,-0.2591833472251892,0.9350523352622986,-14.855721473693848,-17.219623565673828,-9.390131950378418,-0.5819708704948425,-0.8399580121040344,-0.29098543524742126,0.17597883939743042,0.6135647892951965,2.163400650024414
154,23491,23492,-0.12143778800964355,-0.15946164727210999,0.9843387603759766,-16.762630462646484,-21.471683502197266,-11.156142234802246,-0.5744712948799133,-0.8414579033851624,-0.2954852283000946,0.4880880117416382,0.5198535323143005,2.089733362197876
155,23501,23502,-0.24674133956432343,-0.12186276167631149,0.9648219347000122,-14.504369735717773,-20.54326629638672,-12.289231300354004,-0.5654717087745667,-0.8384580612182617,-0.2924853563308716,0.7560796141624451,0.28750625252723694,1.971442699432373
156,23511,23512,-0.6142402291297913,-0.3858893811702728,1.0165163278579712,-8.024718284606934,-13.107430458068848,-13.20022201538086,-0.5714713931083679,-0.8564571738243103,-0.2954852283000946,0.8810048699378967,0.2559044063091278,1.8464683294296265
157,23521,23522,-0.19637735188007355,-0.21320591866970062,0.967920184135437,1.5031903982162476,-1.772325038909912,-12.689655303955078,-0.5759711861610413,-0.8309584259986877,-0.29098543524742126,0.9270375967025757,0.21083204448223114,1.7071236371994019
158,23531,23532,-0.023964829742908478,-0.007754731923341751,0.9625973105430603,11.008663177490234,8.426502227783203,-12.220245361328125,-0.5714713931083679,-0.8324583768844604,-0.2864856719970703,0.8662620186805725,0.31328174471855164,1.5812454223632812
159,23541,23542,-0.033266715705394745,0.03005927987396717,0.9624220132827759,17.02663230895996,12.974592208862305,-10.776161193847656,-0.5879706144332886,-0.8189590573310852,-0.28498575091362,0.8072469830513,0.5510353446006775,1.478883147239685
160,23551,23552,-0.3228863775730133,-0.2814074754714966,1.0047389268875122,16.03098487854004,13.452459335327148,-7.9293317794799805,-0.5849707126617432,-0.8279585838317871,-0.28798559308052063,0.5705582499504089,0.6913943886756897,1.3619695901870728
161,23561,23562,-0.14797604084014893,-0.3046637773513794,0.9969835877418518,9.869959831237793,11.64801025390625,-6.644991874694824,-0.5879706144332886,-0.8309584259986877,-0.2969851493835449,0.34705737233161926,0.6367520093917847,1.2572890520095825
162,23571,23572,-0.7678937315940857,-0.16582204401493073,0.9882796406745911,2.006502389907837,8.785981178283691,-5.789060592651367,-0.6014699339866638,-0.8294585347175598,-0.28948551416397095,0.24320611357688904,0.7681869864463806,1.1993365287780762
163,23581,23582,-0.3831491470336914,0.001104793045669794,0.8777921199798584,-1.628099799156189,6.495875358581543,-5.999101161956787,-0.5909704566001892,-0.8309584259986877,-0.28798559308052063,0.1748148500919342,0.7866454720497131,1.1450632810592651
164,23591,23592,-0.33419176936149597,-0.05508457124233246,0.9526974558830261,-5.726376056671143,-2.7570507526397705,-4.450226306915283,-0.5819708704948425,-0.836958110332489,-0.29098543524742126,0.13572192192077637,0.7300543785095215,1.0893480777740479
165,23601,23602,-1.1939233541488647,-0.47143977880477905,1.0003583431243896,-5.306750774383545,-7.022332668304443,-4.02760124206543,-0.577471137046814,-0.8264586329460144,-0.2924853563308716,0.2050546407699585,0.6492913961410522,1.0463494062423706
166,23611,23612,-0.7866683006286621,-0.3148273527622223,1.0170758962631226,-2.728085517883301,-6.544553756713867,-3.1519458293914795,-0.5954701900482178,-0.8324583768844604,-0.2834858298301697,0.3057115375995636,0.5936644077301025,1.0129375457763672
167,23621,23622,-0.20107312500476837,-0.08755603432655334,0.9920985698699951,0.6138996481895447,-9.208945274353027,-2.370537757873535,-0.5879706144332886,-0.836958110332489,-0.2969851493835449,0.37065616250038147,0.6594903469085693,0.9897269010543823
168,23631,23632,-0.40632107853889465,-0.1256726086139679,0.9996535778045654,7.36213493347168,1.709190845489502,-3.7835497856140137,-0.5864706635475159,-0.8324583768844604,-0.28948551416397095,0.3848174512386322,0.7303476333618164,0.9588524103164673
169,23641,23642,-0.5317240953445435,-0.3275664150714874,1.0556784868240356,13.702092170715332,-2.4190337657928467,-3.0134706497192383,-0.5849707126617432,-0.8399580121040344,-0.28198590874671936,0.32874712347984314,0.8192393183708191,0.916894257068634
170,23651,23652,-0.2978546619415283,-0.13446372747421265,1.0013264417648315,15.07657241821289,-0.8140085935592651,-0.871289849281311,-0.5909704566001892,-0.8399580121040344,-0.27898603677749634,0.31999459862709045,1.0476614236831665,0.8961043357849121
171,23661,23662,-0.8860506415367126,-0.5175785422325134,0.9500603079795837,15.25749397277832,-7.477062225341797,0.3094385862350464,-0.5789710283279419,-0.836958110332489,-0.29098543524742126,0.5475606322288513,0.9384903311729431,0.898975133895874
172,23671,23672,-0.35177475214004517,-0.116534024477005,0.9520222544670105,13.823930740356445,-4.2016825675964355,-0.039616331458091736,-0.5954701900482178,-0.8384580612182617,-0.28048595786094666,0.6131249666213989,1.1093816757202148,0.8989909291267395
173,23681,23682,-0.5449013710021973,-0.3612210154533386,0.9336590766906738,12.56263256072998,2.9572949409484863,1.2985988855361938,-0.5819708704948425,-0.851957380771637,-0.28798559308052063,0.666486382484436,1.191537857055664,0.9000303149223328
174,23691,23692,-0.5641372799873352,-0.39197319746017456,0.9850480556488037,3.9653120040893555,10.08962631225586,0.7531297206878662,-0.5879706144332886,-0.851957380771637,-0.2939853072166443,0.5408666729927063,1.3567222356796265,0.9032284617424011
175,23701,23702,-0.2953583002090454,-0.2711138129234314,0.9939841628074646,-4.965636730194092,19.265153884887695,-0.7403263449668884,-0.5864706635475159,-0.850457489490509,-0.2864856719970703,0.3507270812988281,1.2929834127426147,0.8922768831253052
176,23711,23712,-0.08091340959072113,-0.046452995389699936,0.966176450252533,-14.436993598937988,26.878623962402344,-1.735782504081726,-0.5924703478813171,-0.8354582190513611,-0.2834858298301697,0.16076397895812988,1.1521097421646118,0.8857924342155457
177,23721,23722,-0.0033369851298630238,0.04327518120408058,0.9303399324417114,-22.340272903442383,30.27937126159668,-3.522974967956543,-0.5849707126617432,-0.8429578542709351,-0.28798559308052063,-0.25896650552749634,0.8757848739624023,0.8319056034088135
178,23731,23732,-0.3145450949668884,-0.04384910315275192,0.9403271079063416,-27.607479095458984,27.815383911132812,-2.9297189712524414,-0.5894705057144165,-0.8354582190513611,-0.2864856719970703,-0.48148247599601746,0.7053271532058716,0.8202929496765137
179,23741,23742,-0.19655202329158783,-0.12337019294500351,0.9889881610870361,-32.035316467285156,19.485021591186523,-2.5045278072357178,-0.5819708704948425,-0.836958110332489,-0.28798559308052063,-0.5578828454017639,0.30555039644241333,0.8154658675193787
180,23751,23752,-0.042207278311252594,0.010641192086040974,1.019031047821045,-32.25431823730469,11.365097999572754,-1.8175944089889526,-0.5834708213806152,-0.8384580612182617,-0.29848507046699524,-0.7040706276893616,0.07825635373592377,0.8077334761619568
181,23761,23762,-0.10242553800344467,-0.13530370593070984,1.0581401586532593,-24.17024040222168,-5.833477973937988,-0.46860021352767944,-0.5924703478813171,-0.8324583768844604,-0.2864856719970703,-0.7169070243835449,-0.23973466455936432,0.7971785068511963
182,23771,23772,-0.05138200521469116,-0.0077819558791816235,0.9813410639762878,-14.238962173461914,-14.883424758911133,0.9895660877227783,-0.5924703478813171,-0.8474575877189636,-0.3044847846031189,-0.5897961258888245,-0.5487614274024963,0.7880480885505676
183,23781,23782,-0.2764590382575989,-0.012970750220119953,1.0418823957443237,-4.38056755065918,-16.552261352539062,1.5375605821609497,-0.5879706144332886,-0.851957380771637,-0.2939853072166443,-0.42961910367012024,-0.6183543801307678,0.8074935674667358
184,23791,23792,-0.2598617374897003,0.03726664558053017,1.0551207065582275,7.662927150726318,-5.879414081573486,1.1041278839111328,-0.5834708213806152,-0.8264586329460144,-0.28948551416397095,-0.3292747735977173,-0.5131632089614868,0.8361172080039978
185,23801,23802,-0.2332490235567093,-0.13662445545196533,1.0071085691452026,19.019372940063477,9.22766399383545,-0.9950049519538879,-0.5894705057144165,-0.8414579033851624,-0.2954852283000946,-0.3058328926563263,-0.2882705628871918,0.8627105951309204
186,23811,23812,-0.10950148850679398,-0.06656529009342194,1.0273163318634033,22.884323120117188,21.036954879760742,-3.747760772705078,-0.5954701900482178,-0.8474575877189636,-0.2864856719970703,-0.5832993388175964,-0.01623821072280407,0.848544180393219
187,23821,23822,-0.2864249050617218,-0.03330589458346367,1.0258764028549194,18.046037673950195,26.79851722717285,-7.877726078033447,-0.5969701409339905,-0.8429578542709351,-0.28498575091362,-1.0022836923599243,0.26290035247802734,0.8019683361053467
188,23831,23832,-0.8521567583084106,-0.2650659382343292,1.0563058853149414,5.516346454620361,26.862499237060547,-13.685773849487305,-0.6044697761535645,-0.850457489490509,-0.2924853563308716,-1.2543230056762695,0.3947383165359497,0.7077259421348572
189,23841,23842,-0.9190091490745544,-0.5316749215126038,1.0356663465499878,-9.537546157836914,17.13210105895996,-19.338228225708008,-0.5924703478813171,-0.8474575877189636,-0.28948551416397095,-1.5756126642227173,0.29558050632476807,0.5305099487304688
190,23851,23852,-1.3364410400390625,-0.3650723099708557,1.030783772468567,-20.855527877807617,3.1893491744995117,-24.523681640625,-0.5984700918197632,-0.8384580612182617,-0.28048595786094666,-1.5606101751327515,0.11993296444416046,0.3237329125404358
191,23861,23862,-1.1812825202941895,-0.34395256638526917,1.0432672500610352,-22.19556427001953,-12.55511474609375,-29.15841293334961,-0.5999699831008911,-0.8219588994979858,-0.28198590874671936,-1.5162599086761475,-0.16300544142723083,0.052840713411569595
192,23871,23872,-0.23169347643852234,-0.9175639152526855,0.9638639688491821,-15.36209487915039,-22.72532081604004,-31.916290283203125,-0.5999699831008911,-0.8489575386047363,-0.28498575091362,-1.3220551013946533,-0.3466997444629669,-0.23246566951274872
193,23881,23882,-0.07422647625207901,-0.8866610527038574,1.0673643350601196,1.9601975679397583,-26.80559539794922,-34.50634002685547,-0.6074696183204651,-0.8414579033851624,-0.2834858298301697,-0.9999157190322876,-0.49102574586868286,-0.562964677810669
194,23891,23892,-0.07532253861427307,-0.6409928798675537,0.9876202344894409,22.952425003051758,-27.796844482421875,-35.39090347290039,-0.5864706635475159,-0.8414579033851624,-0.2864856719970703,-0.6350104212760925,-0.3093770742416382,-0.8770579695701599
195,23901,23902,-0.6210570335388184,-0.43550631403923035,0.9815592765808105,42.00587463378906,-21.858436584472656,-35.425437927246094,-0.5909704566001892,-0.8429578542709351,-0.27898603677749634,-0.384010910987854,0.11321444809436798,-1.1942033767700195
196,23911,23912,-0.3500902056694031,-0.11379764974117279,0.9562557935714722,55.58527755737305,-15.575390815734863,-35.247196197509766,-0.6014699339866638,-0.8624568581581116,-0.2954852283000946,-0.305252343416214,0.820381224155426,-1.4859751462936401
197,23921,23922,-0.6256262063980103,-0.3202219307422638,1.0221539735794067,54.81747817993164,-9.694093704223633,-33.737144470214844,-0.6029698252677917,-0.8669566512107849,-0.3059847056865692,-0.2705587148666382,1.0682847499847412,-1.9132887125015259
198,23931,23932,-0.4273630976676941,-0.3931105136871338,0.9687195420265198,39.006710052490234,-9.873455047607422,-32.12720489501953,-0.6014699339866638,-0.8624568581581116,-0.3014849126338959,-0.11148691177368164,1.7761958837509155,-2.202157974243164
199,23941,23942,-0.21425485610961914,-0.31445351243019104,0.9571942090988159,14.140819549560547,-11.0062894821167,-30.285511016845703,-0.6014699339866638,-0.8564571738243103,-0.29848507046699524,-0.08462397754192352,2.0121092796325684,-2.5474133491516113
200,23951,23952,-0.3454097509384155,-0.11363615840673447,0.9584671854972839,-12.757038116455078,-3.9210257530212402,-28.766361236572266,-0.6044697761535645,-0.8714563846588135,-0.29848507046699524,-0.03446146100759506,2.0418777465820312,-2.864659070968628
201,23961,23962,-0.509581983089447,-0.3815862238407135,0.9782081246376038,-38.39140701293945,7.557310581207275,-26.339153289794922,-0.6014699339866638,-0.8594570159912109,-0.2954852283000946,-0.07652807980775833,1.6323750019073486,-3.191277503967285
202,23971,23972,-0.3746699392795563,-0.19166572391986847,0.9424405097961426,-54.94843292236328,14.432173728942871,-25.257553100585938,-0.5879706144332886,-0.8609569072723389,-0.29998499155044556,-0.1910506784915924,0.9434299468994141,-3.49631667137146
203,23981,23982,-0.38295501470565796,-0.23195765912532806,0.9934753775596619,-56.70230484008789,16.78504753112793,-25.414857864379883,-0.5849707126617432,-0.851957380771637,-0.29998499155044556,-0.36797893047332764,0.1672111451625824,-3.788694143295288
204,23991,23992,-0.38336506485939026,-0.06292249262332916,0.9072460532188416,-43.40857696533203,7.784225940704346,-24.908815383911133,-0.5999699831008911,-0.8399580121040344,-0.3029848337173462,-0.6484701037406921,0.8323127627372742,-3.8365840911865234
205,24001,24002,-0.5452901124954224,-0.41396158933639526,0.9496942162513733,-25.237102508544922,17.430295944213867,-25.07099151611328,-0.5849707126617432,-0.8429578542709351,-0.28798559308052063,-0.8054815530776978,0.516676127910614,-4.072973251342773
206,24011,24012,-0.3646482229232788,-0.4834533929824829,0.843278169631958,-9.42243480682373,16.093414306640625,-20.685264587402344,-0.6089695692062378,-0.851957380771637,-0.28198590874671936,-1.0706030130386353,0.1794777363538742,-4.342581272125244
207,24021,24022,-0.0940183624625206,-0.03911704197525978,0.8694457411766052,-2.0358290672302246,18.422588348388672,-18.353561401367188,-0.5969701409339905,-0.8579570651054382,-0.30898454785346985,-1.1392111778259277,0.17930129170417786,-4.51753568649292
208,24031,24032,-0.10534463077783585,0.0748804435133934,1.1300954818725586,-4.667176723480225,3.848918914794922,-14.054162979125977,-0.622468888759613,-0.850457489490509,-0.28948551416397095,-1.3432238101959229,0.06605330854654312,-4.7160162925720215
209,24041,24042,-0.24887767434120178,-0.23216958343982697,1.0195505619049072,4.339223861694336,-11.302593231201172,-9.987872123718262,-0.6014699339866638,-0.8684565424919128,-0.2834858298301697,-1.316208839416504,0.01258442085236311,-4.857571601867676
210,24051,24052,-0.5822341442108154,-0.30224770307540894,0.817001461982727,8.990640640258789,-11.491718292236328,-8.293888092041016,-0.5984700918197632,-0.8684565424919128,-0.2954852283000946,-1.136754035949707,0.02286590449512005,-4.959870338439941
211,24061,24062,-0.1748744696378708,-0.46799901127815247,0.9146674275398254,0.3926682472229004,-28.91238784790039,-2.0046944618225098,-0.6134693026542664,-0.8534573316574097,-0.3044847846031189,-0.9113864302635193,0.09153096377849579,-5.01733922958374
212,24071,24072,-0.0072852009907364845,-0.12371105700731277,1.0842726230621338,-9.869071006774902,-44.925968170166016,3.691897392272949,-0.5834708213806152,-0.8684565424919128,-0.29848507046699524,-0.5813264846801758,-0.033283594995737076,-5.048125267028809
213,24081,24082,-0.3688961863517761,-0.04755386710166931,1.0491102933883667,-20.27810287475586,-42.50608825683594,7.645653247833252,-0.5834708213806152,-0.8714563846588135,-0.3044847846031189,0.006618249695748091,-0.31152814626693726,-5.029594421386719
214,24091,24092,-0.6883822679519653,-0.26227450370788574,1.0892306566238403,-28.674619674682617,-35.79901885986328,9.54413890838623,-0.5924703478813171,-0.8564571738243103,-0.2954852283000946,0.5249292254447937,-0.603619396686554,-4.953945159912109
215,24101,24102,-0.6043602228164673,-0.8332902193069458,0.9750416874885559,-33.16529083251953,-16.304113388061523,9.074307441711426,-0.5834708213806152,-0.8654567003250122,-0.2954852283000946,0.7776653170585632,-0.7384794354438782,-4.8236894607543945
216,24111,24112,-0.4445973038673401,-0.7643771171569824,0.9556527137756348,-33.603546142578125,-9.967978477478027,10.001323699951172,-0.5804709792137146,-0.8474575877189636,-0.3044847846031189,0.9526163339614868,-1.2177183628082275,-4.7464213371276855
217,24121,24122,-0.2264096438884735,-0.4699420630931854,0.9971498847007751,-25.04925537109375,3.740574359893799,9.91421890258789,-0.5849707126617432,-0.8459576964378357,-0.29998499155044556,0.7893669009208679,-1.4610263109207153,-4.631341934204102
218,24131,24132,-0.16928616166114807,-0.20588621497154236,0.9567420482635498,-16.069095611572266,11.55505084991455,9.931476593017578,-0.5744712948799133,-0.8534573316574097,-0.3044847846031189,0.6698814034461975,-1.7181062698364258,-4.536030292510986
219,24141,24142,-0.23208455741405487,-0.22286038100719452,1.066787600517273,-2.7423512935638428,20.288454055786133,6.364141941070557,-0.5834708213806152,-0.844457745552063,-0.2954852283000946,0.6179872751235962,-1.8636854887008667,-4.465700149536133
220,24151,24152,-0.2933078706264496,-0.15355348587036133,1.083306908607483,11.690496444702148,15.188530921936035,5.271838188171387,-0.5894705057144165,-0.844457745552063,-0.28948551416397095,0.32683703303337097,-1.7739720344543457,-4.397974014282227
221,24161,24162,-0.5780571699142456,-0.04266311973333359,1.0365891456604004,29.388877868652344,10.519980430603027,4.286460876464844,-0.5984700918197632,-0.844457745552063,-0.2924853563308716,0.11177361756563187,-1.48057222366333,-4.337369441986084
222,24171,24172,-0.2403402477502823,0.018852658569812775,1.0361871719360352,38.96763610839844,0.5550429224967957,3.0134294033050537,-0.5924703478813171,-0.8624568581581116,-0.2954852283000946,0.10010264068841934,-1.1894091367721558,-4.309847354888916
223,24181,24182,-0.10601111501455307,0.0031953195575624704,1.0162808895111084,40.15387725830078,-7.464710712432861,4.901336669921875,-0.5969701409339905,-0.8639568090438843,-0.29998499155044556,0.1653844267129898,-0.8645319938659668,-4.28681755065918
224,24191,24192,-0.2389054000377655,-0.03455395624041557,1.0610854625701904,32.262813568115234,-16.445648193359375,6.293158054351807,-0.577471137046814,-0.850457489490509,-0.2954852283000946,0.2996564209461212,-0.5699676871299744,-4.242824077606201
225,24201,24202,-0.49685797095298767,-0.2417333424091339,1.0638879537582397,18.791013717651367,-28.527956008911133,8.82138729095459,-0.6059696674346924,-0.8639568090438843,-0.2969851493835449,0.6424747705459595,-0.2817116379737854,-4.203751564025879
226,24211,24212,-1.1904640197753906,-0.2895332872867584,1.1104652881622314,1.667992353439331,-22.377071380615234,10.043878555297852,-0.5744712948799133,-0.8564571738243103,-0.30748462677001953,0.9156268239021301,-0.175380676984787,-4.117388725280762
227,24221,24222,-0.5421662926673889,-0.16198766231536865,1.0585137605667114,-8.999655723571777,-19.29108238220215,13.54143238067627,-0.56997150182724,-0.851957380771637,-0.29998499155044556,1.1001722812652588,-0.24334028363227844,-4.006091594696045
228,24231,24232,-0.12448497861623764,0.007435917388647795,1.0421192646026611,-21.546833038330078,-5.777253150939941,12.948264122009277,-0.5789710283279419,-0.8579570651054382,-0.29998499155044556,1.2961134910583496,-0.5701761841773987,-3.876354217529297
229,24241,24242,-0.045624151825904846,0.14187690615653992,1.025534749031067,-26.394678115844727,4.2824225425720215,13.486214637756348,-0.5879706144332886,-0.8429578542709351,-0.2939853072166443,1.3304035663604736,-0.7527724504470825,-3.7454638481140137
230,24251,24252,-0.23247100412845612,0.11583591252565384,1.0401734113693237,-28.249155044555664,8.552589416503906,14.711050033569336,-0.5834708213806152,-0.8384580612182617,-0.28948551416397095,1.251905083656311,-1.0642966032028198,-3.5988943576812744
231,24261,24262,-0.16063159704208374,0.05449192225933075,1.0037235021591187,-24.181896209716797,2.3366878032684326,12.88210678100586,-0.5924703478813171,-0.8324583768844604,-0.2954852283000946,1.1570472717285156,-1.4088647365570068,-3.447336435317993
232,24271,24272,-0.14512331783771515,-0.06646669656038284,1.0230051279067993,-19.0273380279541,-0.41696637868881226,11.969863891601562,-0.577471137046814,-0.8294585347175598,-0.277486115694046,1.1197962760925293,-1.612642765045166,-3.320556163787842
233,24281,24282,-0.04729171469807625,-0.03958810493350029,1.0434685945510864,-11.258279800415039,-1.8953109979629517,11.01347827911377,-0.5864706635475159,-0.8234587907791138,-0.28948551416397095,1.1195186376571655,-1.7242107391357422,-3.2076363563537598
234,24291,24292,-0.3187427520751953,-0.3355833888053894,1.0297633409500122,-3.454498052597046,-0.22944457828998566,9.135257720947266,-0.5954701900482178,-0.8234587907791138,-0.2864856719970703,1.1254569292068481,-1.7773032188415527,-3.105787515640259
235,24301,24302,-0.4084552526473999,-0.154620960354805,1.0751463174819946,5.7801384925842285,2.7302801609039307,8.855015754699707,-0.5864706635475159,-0.8234587907791138,-0.29848507046699524,1.1062545776367188,-1.8348363637924194,-3.0033679008483887
236,24311,24312,-0.6330105066299438,-0.11094740033149719,1.0402275323867798,15.38587760925293,10.68787670135498,8.727845191955566,-0.5864706635475159,-0.8234587907791138,-0.29848507046699524,1.0051820278167725,-1.7331335544586182,-2.9066662788391113
237,24321,24322,-0.21548815071582794,-0.23882834613323212,1.012368083000183,25.197792053222656,23.803651809692383,8.619009017944336,-0.5864706635475159,-0.8234587907791138,-0.29848507046699524,0.9380652904510498,-1.4721943140029907,-2.8515102863311768
238,24331,24332,-0.2723187208175659,0.011745347641408443,1.086950659751892,34.21638107299805,35.38761901855469,6.252598285675049,-0.6044697761535645,-0.8414579033851624,-0.28948551416397095,0.5142285823822021,-1.200111746788025,-2.7385213375091553
239,24341,24342,-0.21299678087234497,-0.043028756976127625,1.0609056949615479,39.27289962768555,43.60259246826172,3.429826259613037,-0.5984700918197632,-0.8474575877189636,-0.2954852283000946,0.14109593629837036,-0.8067496418952942,-2.6953048706054688
240,24351,24352,-0.033419933170080185,-0.348044753074646,0.9853643178939819,38.88846969604492,40.804893493652344,1.467052936553955,-0.5909704566001892,-0.851957380771637,-0.28798559308052063,-0.3501288890838623,-0.4399411082267761,-2.6527938842773438
241,24361,24362,-0.1137373223900795,-0.24899160861968994,1.011403203010559,35.21793746948242,29.137298583984375,0.4307381510734558,-0.5894705057144165,-0.850457489490509,-0.3044847846031189,-0.6388426423072815,-0.1666027456521988,-2.653820514678955
242,24371,24372,-0.24470824003219604,-0.09176405519247055,1.0057129859924316,26.159076690673828,11.249987602233887,-0.35373979806900024,-0.6044697761535645,-0.8594570159912109,-0.3014849126338959,-0.91042160987854,0.29081541299819946,-2.651531457901001
243,24381,24382,-0.19122201204299927,-0.7276821136474609,1.0062158107757568,13.7715425491333,-8.983198165893555,-1.1699775457382202,-0.6104694604873657,-0.844457745552063,-0.3014849126338959,-0.9486460089683533,0.36591607332229614,-2.655233144760132
244,24391,24392,-0.5010209083557129,-0.6890846490859985,1.082761526107788,2.477189540863037,-26.714656829833984,-1.8431814908981323,-0.5984700918197632,-0.844457745552063,-0.29848507046699524,-0.6736641526222229,0.40420258045196533,-2.6917734146118164
245,24401,24402,-1.0956690311431885,-0.27027246356010437,1.0250959396362305,-7.653205871582031,-36.574764251708984,-1.5454447269439697,-0.6014699339866638,-0.850457489490509,-0.2924853563308716,-0.17936834692955017,0.4073869585990906,-2.7408666610717773
246,24411,24412,-0.5709934830665588,-0.06693891435861588,0.9729617834091187,-10.87175464630127,-37.74001693725586,-2.092165470123291,-0.5879706144332886,-0.8459576964378357,-0.2969851493835449,-0.018614379689097404,0.28032398223876953,-2.735659599304199
247,24421,24422,-0.8114148378372192,-0.31421202421188354,1.0625622272491455,-9.654353141784668,-31.78171730041504,-1.4559885263442993,-0.5969701409339905,-0.851957380771637,-0.29998499155044556,0.5477495193481445,0.14489060640335083,-2.780384063720703
248,24431,24432,-0.17605149745941162,-0.18557505309581757,0.9543920755386353,-2.4714748859405518,-19.216020584106445,-0.6616200804710388,-0.5984700918197632,-0.8354582190513611,-0.2924853563308716,0.8158057332038879,0.0580240897834301,-2.791836738586426
249,24441,24442,-0.1256241500377655,-0.022607600316405296,0.9843305349349976,4.7134199142456055,-1.6084167957305908,0.8145307302474976,-0.5999699831008911,-0.8459576964378357,-0.29998499155044556,0.8848026394844055,0.0886012390255928,-2.7860350608825684
250,24451,24452,-0.47870633006095886,-0.40719661116600037,1.0073983669281006,9.051064491271973,8.93399429321289,3.136401414871216,-0.5834708213806152,-0.8474575877189636,-0.2924853563308716,0.8425176739692688,0.15912200510501862,-2.7676236629486084
251,24461,24462,-0.589658796787262,-0.2268993854522705,1.0622638463974,10.550516128540039,20.573694229125977,4.806600093841553,-0.5939702987670898,-0.8459576964378357,-0.27898603677749634,0.6788601279258728,0.195487380027771,-2.724337577819824
252,24471,24472,-0.23068344593048096,0.012654540129005909,1.080817699432373,13.978078842163086,28.27992820739746,4.560576438903809,-0.5894705057144165,-0.8324583768844604,-0.28948551416397095,0.28195637464523315,0.42513158917427063,-2.6720683574676514
253,24481,24482,-0.16429424285888672,0.09246309101581573,1.0035498142242432,17.078571319580078,24.472917556762695,5.095949172973633,-0.5894705057144165,-0.8324583768844604,-0.2924853563308716,-0.012520919553935528,0.5602338314056396,-2.6212940216064453
254,24491,24492,-0.4170827865600586,0.020924286916851997,0.9751242399215698,16.63624382019043,18.151227951049805,5.35969352722168,-0.5969701409339905,-0.836958110332489,-0.28498575091362,-0.25608929991722107,0.7904042601585388,-2.565708875656128
255,24501,24502,-0.42817991971969604,0.11808428913354874,0.9542341232299805,13.259842872619629,2.781285524368286,3.570059061050415,-0.6044697761535645,-0.8294585347175598,-0.277486115694046,-0.4632711708545685,0.9881250262260437,-2.514709234237671
256,24511,24512,-0.3635271191596985,0.1430308222770691,0.9696491360664368,5.868862628936768,-18.48898696899414,4.1132612228393555,-0.6074696183204651,-0.8324583768844604,-0.3014849126338959,-0.1806102842092514,0.8819563388824463,-2.4741764068603516
257,24521,24522,-0.4560626447200775,0.08286415040493011,1.0041842460632324,1.0935020446777344,-24.204381942749023,4.428144931793213,-0.5954701900482178,-0.8324583768844604,-0.277486115694046,0.024886226281523705,0.9587098360061646,-2.4359991550445557
258,24531,24532,-0.8931020498275757,-0.6770065426826477,0.9986088275909424,-0.39475563168525696,-28.52940559387207,5.279732704162598,-0.5849707126617432,-0.8459576964378357,-0.2939853072166443,0.45781609416007996,0.8604388236999512,-2.3859760761260986
259,24541,24542,-0.7650019526481628,-0.5962461233139038,0.9726343750953674,-2.6805975437164307,-21.222599029541016,5.364048957824707,-0.5984700918197632,-0.8414579033851624,-0.2924853563308716,0.5090908408164978,0.8717419505119324,-2.3463335037231445
260,24551,24552,-0.3080345392227173,-0.05061337351799011,0.948986828327179,-4.176158428192139,-8.217024803161621,5.70770263671875,-0.5834708213806152,-0.8474575877189636,-0.29848507046699524,0.8294829726219177,0.8451901078224182,-2.285862922668457
261,24561,24562,-0.09552352875471115,0.10207873582839966,1.0493563413619995,0.8271123766899109,10.534894943237305,4.997583389282227,-0.5984700918197632,-0.844457745552063,-0.28948551416397095,0.8099445700645447,0.8252967596054077,-2.236172914505005
262,24571,24572,-0.2384297251701355,-0.11683711409568787,1.0151610374450684,10.160836219787598,24.029630661010742,6.419661998748779,-0.5954701900482178,-0.8294585347175598,-0.29848507046699524,0.5251825451850891,0.9191901683807373,-2.1958889961242676
263,24581,24582,-0.44981661438941956,-0.4473174512386322,0.955237090587616,18.2278995513916,36.213924407958984,7.117802143096924,-0.5924703478813171,-0.8384580612182617,-0.3014849126338959,0.24768267571926117,1.0054556131362915,-2.1235268115997314
264,24591,24592,-0.21683603525161743,-0.27938392758369446,1.0243767499923706,26.09978485107422,36.94087219238281,6.904919147491455,-0.5984700918197632,-0.8474575877189636,-0.2924853563308716,-0.14105018973350525,1.178648591041565,-2.047405242919922
265,24601,24602,-0.1583641767501831,0.008692747913300991,1.0193687677383423,30.40912628173828,21.980409622192383,9.71601390838623,-0.6044697761535645,-0.8594570159912109,-0.2954852283000946,-0.4873121380805969,1.6624997854232788,-1.9651033878326416
266,24611,24612,-0.4753414988517761,0.017128637060523033,1.0756678581237793,21.831090927124023,7.125354290008545,10.696602821350098,-0.5984700918197632,-0.8564571738243103,-0.2954852283000946,-0.6668224930763245,1.753812551498413,-1.8587568998336792
267,24621,24622,-0.683668315410614,-0.14151398837566376,1.0644347667694092,11.504469871520996,-12.059880256652832,10.675196647644043,-0.5984700918197632,-0.8624568581581116,-0.31048446893692017,-0.5667761564254761,1.9938938617706299,-1.7313042879104614
268,24631,24632,-1.0013432502746582,-0.3198700249195099,0.9139183163642883,-1.7655692100524902,-31.052875518798828,11.96539306640625,-0.5984700918197632,-0.8564571738243103,-0.29848507046699524,-0.21777111291885376,2.045888900756836,-1.598616123199463
269,24641,24642,-0.9121784567832947,-0.6756331920623779,0.923620879650116,-13.2330904006958,-42.567832946777344,11.932748794555664,-0.5879706144332886,-0.851957380771637,-0.2969851493835449,0.37577831745147705,1.959326148033142,-1.4428871870040894
270,24651,24652,-0.5550208687782288,-0.4750770628452301,0.98251873254776,-19.891544342041016,-40.90256881713867,11.59047794342041,-0.5909704566001892,-0.8549572229385376,-0.2939853072166443,0.9610608220100403,1.78517746925354,-1.3082870244979858
271,24661,24662,-0.6187089085578918,-0.18286779522895813,1.0712928771972656,-21.59917449951172,-32.725257873535156,11.75436019897461,-0.5834708213806152,-0.850457489490509,-0.3014849126338959,1.2627133131027222,1.7381809949874878,-1.2231513261795044
272,24671,24672,-0.2726394236087799,0.04502628743648529,1.107055902481079,-20.740833282470703,-13.431061744689941,11.586328506469727,-0.5669716596603394,-0.8669566512107849,-0.3059847056865692,1.5275155305862427,1.3874167203903198,-1.1134546995162964
273,24681,24682,-0.13269966840744019,0.009030143730342388,1.130756139755249,-22.82518768310547,17.03228187561035,9.181070327758789,-0.5834708213806152,-0.8384580612182617,-0.2954852283000946,1.3329929113388062,1.1771005392074585,-1.065089464187622
274,24691,24692,-0.17925718426704407,-0.2819938063621521,1.0062750577926636,-23.64480209350586,43.710975646972656,3.435631275177002,-0.5669716596603394,-0.8399580121040344,-0.2939853072166443,0.9416217803955078,1.011173963546753,-1.0259917974472046
275,24701,24702,-0.31783249974250793,-0.5426827669143677,0.9643236994743347,-23.04745864868164,63.60890197753906,-0.2921631336212158,-0.5744712948799133,-0.844457745552063,-0.2924853563308716,0.24740304052829742,0.7481359243392944,-1.0406581163406372
276,24711,24712,-0.11643733829259872,-0.05584727227687836,0.9510853886604309,-20.115278244018555,66.29686737060547,-2.108975887298584,-0.5894705057144165,-0.8384580612182617,-0.2924853563308716,-0.33140912652015686,0.6842043995857239,-1.031227469444275
277,24721,24722,-0.08922068029642105,0.06688466668128967,1.011279821395874,-22.454540252685547,60.42074966430664,-4.3738932609558105,-0.5969701409339905,-0.8339582681655884,-0.2969851493835449,-1.1871740818023682,0.39890241622924805,-1.0942615270614624
278,24731,24732,-0.20082321763038635,-0.000730022497009486,0.9234653115272522,-24.930830001831055,47.93556213378906,-6.681543827056885,-0.5924703478813171,-0.8384580612182617,-0.2864856719970703,-1.6860852241516113,0.14697524905204773,-1.1260789632797241
279,24741,24742,-0.08108547329902649,-0.13950078189373016,0.8912670612335205,-23.407028198242188,25.128080368041992,-6.566667079925537,-0.6014699339866638,-0.8354582190513611,-0.2864856719970703,-2.177274703979492,-0.06346572935581207,-1.2025864124298096
280,24751,24752,-0.7075632810592651,-0.024518214166164398,0.9549091458320618,-18.565895080566406,5.627140998840332,-8.614587783813477,-0.6119694113731384,-0.8279585838317871,-0.2759861946105957,-1.9870116710662842,-0.28216201066970825,-1.2047399282455444
281,24761,24762,-0.32119762897491455,-0.08112161606550217,0.9970279335975647,-11.432663917541504,-21.53116798400879,-8.69184684753418,-0.6014699339866638,-0.8414579033851624,-0.3014849126338959,-1.8951276540756226,-0.40610840916633606,-1.2736533880233765
282,24771,24772,-0.05241019278764725,0.18571068346500397,0.9979115724563599,-3.2799713611602783,-36.86516189575195,-10.618330001831055,-0.5924703478813171,-0.8594570159912109,-0.3044847846031189,-1.4165822267532349,-0.5648892521858215,-1.3429150581359863
283,24781,24782,-0.27740901708602905,-0.21809077262878418,1.1086994409561157,2.753157615661621,-49.84171676635742,-7.821070194244385,-0.5894705057144165,-0.8594570159912109,-0.3014849126338959,-1.0950838327407837,-0.525659441947937,-1.4372109174728394
284,24791,24792,-0.2972632944583893,-0.2888888716697693,1.0941072702407837,9.540141105651855,-46.74972915649414,-8.557123184204102,-0.5744712948799133,-0.8624568581581116,-0.29848507046699524,-0.564484179019928,-0.4377654492855072,-1.503097414970398
285,24801,24802,-0.16869612038135529,-0.3126198649406433,0.9705018997192383,10.532367706298828,-38.54178237915039,-6.566755294799805,-0.5924703478813171,-0.8654567003250122,-0.30748462677001953,-0.23054926097393036,-0.2943403720855713,-1.5818344354629517
286,24811,24812,-0.5268150568008423,-0.1799066811800003,0.9936426281929016,8.660840034484863,-16.14834213256836,-7.509833812713623,-0.5744712948799133,-0.8534573316574097,-0.2954852283000946,0.06804434955120087,-0.17133131623268127,-1.6472687721252441
287,24821,24822,-0.8489935398101807,0.017616523429751396,1.0057013034820557,9.356212615966797,-0.7097574472427368,-7.326848030090332,-0.5984700918197632,-0.850457489490509,-0.28948551416397095,0.08859643340110779,-0.19744378328323364,-1.7398018836975098
288,24831,24832,-0.4251762628555298,-0.2843063473701477,1.0574791431427002,9.93205451965332,19.447593688964844,-8.363563537597656,-0.6014699339866638,-0.8414579033851624,-0.29848507046699524,-0.05295912176370621,-0.06055191904306412,-1.8127235174179077
289,24841,24842,-0.2123744636774063,-0.18409240245819092,1.039410948753357,12.621164321899414,34.23052978515625,-8.46241283416748,-0.5879706144332886,-0.8459576964378357,-0.29998499155044556,-0.45657965540885925,0.0893758088350296,-1.8933420181274414
290,24851,24852,-0.28514623641967773,-0.3748513162136078,0.932135820388794,18.094520568847656,40.807308197021484,-8.861872673034668,-0.5924703478813171,-0.850457489490509,-0.3014849126338959,-0.7683138251304626,0.31299182772636414,-1.965541124343872
291,24861,24862,-0.6572162508964539,-0.6337758302688599,0.929511308670044,19.848934173583984,32.33701705932617,-9.379890441894531,-0.6044697761535645,-0.8594570159912109,-0.29848507046699524,-1.2043777704238892,0.3927801549434662,-2.071516513824463
292,24871,24872,-0.06814771890640259,-0.40241584181785583,1.0765457153320312,15.341171264648438,12.990971565246582,-5.694667816162109,-0.6014699339866638,-0.8564571738243103,-0.29848507046699524,-1.5194873809814453,0.6718451976776123,-2.140702962875366
293,24881,24882,-0.28167039155960083,-0.4699316918849945,1.060866117477417,4.5012030601501465,-8.379777908325195,-3.5304794311523438,-0.5984700918197632,-0.8564571738243103,-0.3044847846031189,-1.4124960899353027,0.81455397605896,-2.1841795444488525
294,24891,24892,-0.7425944805145264,-0.31071990728378296,1.106438398361206,-8.413756370544434,-23.318180084228516,-2.0600173473358154,-0.6014699339866638,-0.844457745552063,-0.28948551416397095,-1.1529932022094727,0.7689141035079956,-2.2246334552764893
295,24901,24902,-0.5338865518569946,-0.26321151852607727,1.0673874616622925,-21.768747329711914,-31.986120223999023,-1.0484038591384888,-0.5909704566001892,-0.8759561777114868,-0.3059847056865692,-0.8403323292732239,0.5225967168807983,-2.2657556533813477
296,24911,24912,-0.13904105126857758,-0.4647996723651886,0.9952864646911621,-27.48298454284668,-29.213802337646484,-1.443296194076538,-0.5864706635475159,-0.8594570159912109,-0.2924853563308716,-0.5757861733436584,0.19734112918376923,-2.2998900413513184
297,24921,24922,-0.6099045276641846,-0.5569952726364136,1.0186963081359863,-32.266536712646484,-23.058979034423828,0.028235118836164474,-0.5834708213806152,-0.850457489490509,-0.29848507046699524,-0.14166045188903809,-0.1779133528470993,-2.317613363265991
298,24931,24932,-0.7625629901885986,-0.9212775230407715,1.0274287462234497,-27.664949417114258,-14.926508903503418,0.6178933382034302,-0.5864706635475159,-0.844457745552063,-0.29848507046699524,-0.05113130062818527,-0.33402693271636963,-2.2950053215026855
299,24941,24942,-0.5089826583862305,-0.4030104875564575,1.0686954259872437,-21.95903205871582,-10.121657371520996,2.90559983253479,-0.5789710283279419,-0.8399580121040344,-0.3059847056865692,0.06256508827209473,-0.6095758080482483,-2.28027081489563
300,24951,24952,-0.9771658778190613,-0.5681394934654236,1.1117393970489502,-8.968544960021973,3.961221933364868,2.9714431762695312,-0.5984700918197632,-0.844457745552063,-0.2834858298301697,-0.023998955264687538,-0.8449883460998535,-2.2550742626190186
301,24961,24962,-0.5552346706390381,-0.5312734842300415,1.0189709663391113,5.370287895202637,12.963887214660645,4.562645435333252,-0.5954701900482178,-0.8474575877189636,-0.29848507046699524,-0.1345733255147934,-0.8124171495437622,-2.209975481033325
302,24971,24972,-0.1274535059928894,-0.2964576482772827,0.9536339044570923,11.489089012145996,23.365888595581055,3.7371814250946045,-0.5849707126617432,-0.8429578542709351,-0.29098543524742126,-0.35183751583099365,-0.6923280954360962,-2.159829616546631
303,24981,24982,-0.04785775765776634,-0.05244092270731926,0.9658064842224121,16.55415916442871,22.820674896240234,2.552216053009033,-0.5969701409339905,-0.8429578542709351,-0.3059847056865692,-0.5773065090179443,-0.4852644205093384,-2.1207973957061768
304,24991,24992,-0.22853152453899384,-0.356952428817749,1.0239672660827637,16.064138412475586,14.981318473815918,2.9272799491882324,-0.5969701409339905,-0.8429578542709351,-0.28798559308052063,-0.7964637279510498,-0.30567535758018494,-2.0940940380096436
305,25001,25002,-0.2926117181777954,-0.32598307728767395,0.9346582293510437,13.773645401000977,9.569955825805664,2.652470350265503,-0.5894705057144165,-0.8414579033851624,-0.2924853563308716,-0.8787367343902588,-0.06490650027990341,-2.062161922454834
306,25011,25012,-0.3596847951412201,-0.3432044982910156,0.8961494565010071,1.9696109294891357,1.0208269357681274,2.7791571617126465,-0.5864706635475159,-0.850457489490509,-0.3014849126338959,-0.8796097040176392,0.05050269141793251,-2.036318302154541
307,25021,25022,-0.2927340567111969,-0.19268900156021118,0.9797413945198059,-14.973511695861816,-1.3440141677856445,1.439377784729004,-0.5849707126617432,-0.8399580121040344,-0.28798559308052063,-0.905799150466919,-0.07720860838890076,-2.029923439025879
308,25031,25032,0.07871852070093155,-0.07101253420114517,1.002579927444458,-22.029071807861328,-11.754223823547363,3.0443077087402344,-0.5894705057144165,-0.8534573316574097,-0.3044847846031189,-0.7891646027565002,-0.26222625374794006,-2.0186984539031982
309,25041,25042,-0.19750387966632843,-0.396350622177124,0.9977405071258545,-25.292987823486328,-13.97189712524414,3.940668821334839,-0.5864706635475159,-0.8534573316574097,-0.2954852283000946,-0.6419901847839355,-0.59923255443573,-2.003751516342163
310,25051,25052,-0.36222460865974426,-0.36349013447761536,1.0734838247299194,-21.721405029296875,-12.322501182556152,5.458914279937744,-0.5849707126617432,-0.8309584259986877,-0.2969851493835449,-0.4951583743095398,-0.654400646686554,-1.9335947036743164
311,25061,25062,-0.2349168062210083,-0.09831932187080383,1.0798228979110718,-18.868446350097656,-4.85394287109375,6.298355579376221,-0.5894705057144165,-0.8564571738243103,-0.28948551416397095,-0.3524499833583832,-0.9490800499916077,-1.8865858316421509
312,25071,25072,0.0073405662551522255,0.07726342231035233,1.0171759128570557,-11.190316200256348,-4.997151851654053,7.648904800415039,-0.5849707126617432,-0.8429578542709351,-0.29998499155044556,-0.34987887740135193,-0.9406704902648926,-1.7898051738739014
313,25081,25082,-0.18104258179664612,-0.001978052780032158,1.0365240573883057,-3.8663508892059326,-3.3768582344055176,6.157423973083496,-0.5849707126617432,-0.8399580121040344,-0.2939853072166443,-0.2802083194255829,-1.100001573562622,-1.7293708324432373
314,25091,25092,-0.7560928463935852,-0.3670862019062042,0.9537971615791321,-1.3224321603775024,2.8146812915802,4.831799030303955,-0.5984700918197632,-0.8384580612182617,-0.2954852283000946,-0.339055597782135,-1.1641392707824707,-1.6664631366729736
315,25101,25102,-0.6451942324638367,-0.6468633413314819,0.9185023903846741,2.790586233139038,9.940055847167969,1.994061827659607,-0.5879706144332886,-0.8429578542709351,-0.2939853072166443,-0.43976980447769165,-1.1844325065612793,-1.6236852407455444
316,25111,25112,-0.10266969352960587,-0.35551324486732483,0.926753580570221,9.713798522949219,10.035089492797852,0.58465576171875,-0.5834708213806152,-0.844457745552063,-0.28048595786094666,-0.6272512078285217,-1.1044766902923584,-1.588729739189148
317,25121,25122,-0.12075411528348923,-0.263855904340744,1.0022764205932617,11.094230651855469,17.65236473083496,-4.515962600708008,-0.5894705057144165,-0.8414579033851624,-0.2924853563308716,-0.8533039689064026,-0.9568188190460205,-1.5798685550689697
318,25131,25132,-0.024124784395098686,-0.17180339992046356,0.9273385405540466,12.626511573791504,9.798272132873535,-7.084001064300537,-0.5939702987670898,-0.836958110332489,-0.28198590874671936,-0.9701964855194092,-0.7830789685249329,-1.631134271621704
319,25141,25142,-0.09877019375562668,-0.056832872331142426,0.8938509225845337,12.620416641235352,3.9942235946655273,-11.639263153076172,-0.5939702987670898,-0.8459576964378357,-0.28198590874671936,-0.9610581398010254,-0.6048047542572021,-1.7302359342575073
320,25151,25152,-0.03430226072669029,-0.17715972661972046,0.9535802006721497,11.563236236572266,-13.189995765686035,-11.026368141174316,-0.5969701409339905,-0.851957380771637,-0.29998499155044556,-0.9465157985687256,-0.5070230960845947,-1.8485417366027832
321,25161,25162,-0.24162457883358002,-0.17376647889614105,1.017737627029419,13.29771614074707,-23.5465030670166,-11.21422004699707,-0.5819708704948425,-0.8489575386047363,-0.2969851493835449,-0.736553966999054,-0.3348205089569092,-1.963627815246582
322,25171,25172,-0.6520956754684448,-0.684266209602356,1.0400339365005493,10.329934120178223,-27.721912384033203,-9.035789489746094,-0.5879706144332886,-0.8429578542709351,-0.2939853072166443,-0.4561726748943329,-0.3116633892059326,-2.077988386154175
323,25181,25182,-0.2349298894405365,-0.5247572064399719,1.0101237297058105,17.118114471435547,-37.18796157836914,-7.530236721038818,-0.5849707126617432,-0.8489575386047363,-0.2969851493835449,-0.010060783475637436,-0.12419773638248444,-2.184242010116577
324,25191,25192,0.09953228384256363,-0.22676949203014374,1.1332393884658813,26.208248138427734,-44.45297622680664,-2.7832436561584473,-0.5834708213806152,-0.8684565424919128,-0.2924853563308716,0.4064764380455017,0.1047491803765297,-2.2478418350219727
325,25201,25202,-0.08214210718870163,0.12096240371465683,1.0526546239852905,30.980993270874023,-35.75128936767578,0.3528115749359131,-0.562471866607666,-0.8654567003250122,-0.3014849126338959,0.6553571820259094,0.33418428897857666,-2.2523396015167236
326,25211,25212,-0.0936027243733406,0.23852846026420593,1.1170390844345093,30.23773956298828,-29.67300033569336,6.359760284423828,-0.562471866607666,-0.8654567003250122,-0.3014849126338959,1.1770380735397339,0.6740261316299438,-2.2542545795440674
327,25221,25222,-0.10748722404241562,0.044895514845848083,1.1126067638397217,17.876508712768555,-15.119059562683105,11.647331237792969,-0.562471866607666,-0.8654567003250122,-0.3014849126338959,1.2265076637268066,0.8478442430496216,-2.1609909534454346
328,25231,25232,-0.14810575544834137,-0.22744527459144592,1.1365816593170166,4.270425319671631,-2.912041187286377,13.038043975830078,-0.5759711861610413,-0.8669566512107849,-0.29998499155044556,1.329559326171875,0.9552936553955078,-2.0395538806915283
329,25241,25242,-0.2795816659927368,-0.5626510381698608,1.170221209526062,-7.952641487121582,-3.411036252975464,16.20607566833496,-0.5789710283279419,-0.8609569072723389,-0.3029848337173462,1.4061752557754517,0.9222371578216553,-1.903164029121399
330,25251,25252,-0.1198510006070137,-0.2873004674911499,1.1132628917694092,-26.508018493652344,2.5285842418670654,17.89480972290039,-0.5729713439941406,-0.851957380771637,-0.2939853072166443,1.307926058769226,0.6422584056854248,-1.722028136253357
331,25261,25262,-0.1138472929596901,-0.1647719442844391,1.1113080978393555,-41.622596740722656,14.366997718811035,17.644039154052734,-0.5819708704948425,-0.8399580121040344,-0.3029848337173462,1.3435046672821045,0.30337804555892944,-1.5422475337982178
332,25271,25272,-0.03659294173121452,-0.0781150609254837,1.026018738746643,-51.81332778930664,25.375471115112305,17.648033142089844,-0.5804709792137146,-0.8414579033851624,-0.3014849126338959,1.0509130954742432,-0.044568710029125214,-1.376944661140442
333,25281,25282,-0.021566011011600494,-0.0650242492556572,1.0098326206207275,-53.86042785644531,38.828487396240234,16.969532012939453,-0.5684715509414673,-0.844457745552063,-0.28048595786094666,0.5727540254592896,-0.7888490557670593,-1.1728382110595703
334,25291,25292,-0.46443411707878113,-0.04699114337563515,1.0139940977096558,-41.708736419677734,47.07609558105469,13.036829948425293,-0.5939702987670898,-0.8159592151641846,-0.28498575091362,0.1792069524526596,-0.9135910272598267,-1.0721319913864136
335,25301,25302,-0.3476351201534271,0.013507585041224957,1.042588472366333,-17.727188110351562,40.68901062011719,11.687142372131348,-0.5879706144332886,-0.8159592151641846,-0.29098543524742126,-0.4344649314880371,-1.3341398239135742,-0.9423486590385437
336,25311,25312,-0.2779083549976349,0.1077120378613472,1.029577374458313,6.1034111976623535,33.895164489746094,8.479791641235352,-0.5924703478813171,-0.8204589486122131,-0.277486115694046,-0.8420947194099426,-1.4293451309204102,-0.8452864289283752
337,25321,25322,-0.013521941378712654,0.050850849598646164,0.9453888535499573,27.54913902282715,8.902168273925781,8.37961196899414,-0.6044697761535645,-0.8174591064453125,-0.2744862735271454,-1.0568008422851562,-1.1509027481079102,-0.7853155136108398
338,25331,25332,-0.06723233312368393,0.046479903161525726,0.9992635250091553,43.14341735839844,-10.423007011413574,7.46853494644165,-0.6149692535400391,-0.8219588994979858,-0.27898603677749634,-1.0671859979629517,-0.7103579640388489,-0.7161259055137634
339,25341,25342,-0.9897590279579163,-0.2863807678222656,1.0292350053787231,53.230003356933594,-30.877071380615234,9.93957233428955,-0.6014699339866638,-0.8204589486122131,-0.2864856719970703,-0.6908603310585022,-0.24522162973880768,-0.6523732542991638
340,25351,25352,-1.179291009902954,-0.09347545355558395,0.970058262348175,51.806724548339844,-37.65486145019531,12.767267227172852,-0.5969701409339905,-0.8339582681655884,-0.28198590874671936,-0.20290856063365936,0.4188779890537262,-0.5668696165084839
341,25361,25362,-0.9228284955024719,0.11955155432224274,1.0935956239700317,43.02500534057617,-45.191917419433594,14.588754653930664,-0.5999699831008911,-0.8309584259986877,-0.29098543524742126,0.14234399795532227,0.6746513843536377,-0.4279237985610962
342,25371,25372,-0.8802122473716736,-0.07618416845798492,1.0261096954345703,21.871601104736328,-47.167518615722656,16.00646209716797,-0.5999699831008911,-0.8429578542709351,-0.2969851493835449,0.7115384340286255,1.2032232284545898,-0.2949082553386688
343,25381,25382,-0.20926699042320251,-0.1698351800441742,0.940319836139679,-7.024322986602783,-45.130271911621094,15.819021224975586,-0.5924703478813171,-0.844457745552063,-0.28948551416397095,1.344984769821167,1.0921478271484375,-0.13893747329711914
344,25391,25392,-0.24775370955467224,-0.3675050139427185,0.934116542339325,-28.757579803466797,-40.30046844482422,16.321054458618164,-0.5819708704948425,-0.836958110332489,-0.30898454785346985,1.4478174448013306,0.865759551525116,0.026832515373826027
345,25401,25402,-0.2729235887527466,-0.3767937123775482,0.8661808967590332,-45.154396057128906,-24.913862228393555,18.10909652709961,-0.577471137046814,-0.8384580612182617,-0.2924853563308716,1.8966383934020996,0.4024147391319275,0.20328396558761597
346,25411,25412,-0.5561758279800415,-0.5366888046264648,0.8376155495643616,-56.07032012939453,-5.500439643859863,18.51637077331543,-0.5714713931083679,-0.8234587907791138,-0.28948551416397095,1.9934196472167969,-0.01624705083668232,0.37477603554725647
347,25421,25422,-0.1835440695285797,-0.36063846945762634,0.973725438117981,-55.72194290161133,12.556537628173828,18.40548324584961,-0.5714713931083679,-0.8354582190513611,-0.2924853563308716,1.9902534484863281,-0.6171714067459106,0.5644159317016602
348,25431,25432,-0.17398588359355927,-0.05666085332632065,1.063288688659668,-43.305381774902344,28.314559936523438,18.81325912475586,-0.5804709792137146,-0.8264586329460144,-0.277486115694046,1.7763599157333374,-1.2716375589370728,0.7682341933250427
349,25441,25442,-0.31068432331085205,0.020641297101974487,1.0501887798309326,-20.549528121948242,36.136329650878906,17.63022232055664,-0.562471866607666,-0.8204589486122131,-0.2864856719970703,1.3917280435562134,-1.4846973419189453,0.9092526435852051
350,25451,25452,-0.091243676841259,-0.0904388427734375,0.9648528695106506,6.650453567504883,34.5488395690918,16.77581787109375,-0.5639718174934387,-0.8219588994979858,-0.28498575091362,1.0242812633514404,-1.5143729448318481,1.0499967336654663
351,25461,25462,-0.24059484899044037,-0.46659624576568604,0.9761825203895569,27.425113677978516,30.554983139038086,15.887771606445312,-0.577471137046814,-0.8174591064453125,-0.2864856719970703,0.596404492855072,-1.3101156949996948,1.1906800270080566
352,25471,25472,-0.2633403539657593,-0.2394852191209793,0.9482884407043457,44.52233123779297,16.38353729248047,14.640169143676758,-0.5834708213806152,-0.8234587907791138,-0.2864856719970703,0.3348678946495056,-0.8592824339866638,1.310266137123108
353,25481,25482,-0.2513713836669922,-0.0887124314904213,0.951637327671051,53.94345474243164,4.372804164886475,12.675301551818848,-0.5864706635475159,-0.8384580612182617,-0.29848507046699524,0.24881374835968018,-0.24777069687843323,1.4211198091506958
354,25491,25492,-0.20377270877361298,-0.33671823143959045,0.9102931618690491,47.926631927490234,-0.07230529189109802,11.81441593170166,-0.5924703478813171,-0.8474575877189636,-0.2834858298301697,0.2977045476436615,0.08218248933553696,1.5769548416137695
355,25501,25502,-0.2143491804599762,-0.16518792510032654,0.881316602230072,28.80990219116211,-1.8640050888061523,10.560324668884277,-0.577471137046814,-0.8474575877189636,-0.2864856719970703,0.38449084758758545,0.5601168274879456,1.6761845350265503
356,25511,25512,-0.1273869276046753,-0.3679269552230835,0.963621199131012,7.693012237548828,-3.5213282108306885,9.676795959472656,-0.5789710283279419,-0.836958110332489,-0.28498575091362,0.6307682394981384,0.7153093814849854,1.7755426168441772
357,25521,25522,-0.07672523707151413,-0.24348478019237518,0.9567614197731018,-15.862883567810059,-2.1010568141937256,9.114889144897461,-0.5759711861610413,-0.836958110332489,-0.2969851493835449,0.6345940232276917,0.5949110388755798,1.8959050178527832
358,25531,25532,-0.07640592753887177,0.10186465829610825,0.9315890073776245,-38.53395462036133,-5.275266170501709,8.685708045959473,-0.5684715509414673,-0.8384580612182617,-0.2864856719970703,0.6629465818405151,0.16250573098659515,2.0224664211273193
359,25541,25542,-0.04781550541520119,0.0022625760175287724,0.9808153510093689,-52.61492919921875,-8.5883207321167,8.078790664672852,-0.5609719157218933,-0.8429578542709351,-0.28198590874671936,0.6777817010879517,-0.14675551652908325,2.090691566467285
360,25551,25552,-0.2170676738023758,-0.5753631591796875,0.9172521829605103,-55.1224250793457,-11.085923194885254,9.120984077453613,-0.5534723401069641,-0.8294585347175598,-0.2954852283000946,0.8208132982254028,-0.8296807408332825,2.1980321407318115
361,25561,25562,-0.3075554072856903,-0.42680108547210693,0.8638705611228943,-47.141258239746094,-10.102347373962402,9.75869083404541,-0.5474725961685181,-0.844457745552063,-0.28948551416397095,0.9050807952880859,-1.2123345136642456,2.2663331031799316
362,25571,25572,-0.11656451970338821,-0.03434012830257416,0.940271258354187,-29.737728118896484,-5.944427967071533,10.43851375579834,-0.5459727048873901,-0.8219588994979858,-0.2939853072166443,0.9528308510780334,-1.7512954473495483,2.3884212970733643
363,25581,25582,0.035181738436222076,0.09210509806871414,0.9500787854194641,-9.18680191040039,0.1901923418045044,10.940523147583008,-0.5714713931083679,-0.8294585347175598,-0.2834858298301697,0.9270185232162476,-1.824440598487854,2.4695868492126465
364,25591,25592,-0.15280960500240326,-0.21521534025669098,0.9924394488334656,9.608128547668457,4.425030708312988,9.780673027038574,-0.562471866607666,-0.8414579033851624,-0.2954852283000946,0.8750727772712708,-1.8583974838256836,2.576589345932007
365,25601,25602,-0.11008479446172714,-0.16997282207012177,0.9486056566238403,22.821367263793945,7.253378391265869,9.460321426391602,-0.5684715509414673,-0.8414579033851624,-0.2954852283000946,0.8503663539886475,-1.6412928104400635,2.650770664215088
366,25611,25612,-0.06586045026779175,0.10268768668174744,1.0247441530227661,32.23815155029297,9.49618911743164,9.900764465332031,-0.5669716596603394,-0.8459576964378357,-0.28198590874671936,0.8459475636482239,-1.2222931385040283,2.705848217010498
367,25621,25622,0.05654881149530411,0.22279365360736847,1.0299667119979858,32.878257751464844,12.514054298400879,10.63908863067627,-0.5609719157218933,-0.8399580121040344,-0.2969851493835449,0.6521010398864746,-0.9221000075340271,2.821944236755371
368,25631,25632,-0.3254333734512329,-0.03784875199198723,1.0771223306655884,24.133209228515625,11.948506355285645,10.46444320678711,-0.5729713439941406,-0.8549572229385376,-0.2969851493835449,0.5670883655548096,-0.6727501749992371,2.929187297821045
369,25641,25642,-0.7070712447166443,-0.3349626660346985,1.0307161808013916,9.33139419555664,13.886930465698242,10.876717567443848,-0.56997150182724,-0.8639568090438843,-0.2969851493835449,0.4573785364627838,-0.5307666063308716,3.0426008701324463
370,25651,25652,-0.49715569615364075,-0.3535380959510803,1.0303013324737549,-5.814730644226074,11.41032886505127,10.490068435668945,-0.5654717087745667,-0.8474575877189636,-0.31048446893692017,0.21021658182144165,-0.566887378692627,3.1815059185028076
371,25661,25662,-0.15285561978816986,-0.14211133122444153,1.0268207788467407,-15.326961517333984,6.070019245147705,11.833219528198242,-0.562471866607666,-0.850457489490509,-0.3044847846031189,0.054999008774757385,-0.7279801368713379,3.307675838470459
372,25671,25672,-0.1326778084039688,-0.03025170788168907,1.0723624229431152,-21.393327713012695,1.5288324356079102,13.363690376281738,-0.56997150182724,-0.851957380771637,-0.3059847056865692,-0.000815848761703819,-0.9444644451141357,3.436333179473877
373,25681,25682,-0.23387759923934937,-0.04595841094851494,1.0449656248092651,-22.40884017944336,2.7269058227539062,12.831036567687988,-0.5639718174934387,-0.8609569072723389,-0.3029848337173462,-0.044177815318107605,-1.1589845418930054,3.5706000328063965
374,25691,25692,-0.11286090314388275,-0.07415544241666794,0.9974678158760071,-18.1629695892334,4.3995256423950195,10.989615440368652,-0.5534723401069641,-0.8324583768844604,-0.29848507046699524,-0.12708407640457153,-1.3527065515518188,3.697542667388916
375,25701,25702,-0.06516066938638687,-0.021800437942147255,1.0653164386749268,-6.934268474578857,1.1751381158828735,10.080721855163574,-0.5609719157218933,-0.836958110332489,-0.2939853072166443,-0.17782637476921082,-1.504150629043579,3.806739568710327
376,25711,25712,0.05850015580654144,0.01370212435722351,0.9831258058547974,4.101959228515625,0.4916327893733978,8.562126159667969,-0.5639718174934387,-0.8339582681655884,-0.2939853072166443,0.08237119764089584,-1.3895083665847778,3.850876569747925
377,25721,25722,-0.13812635838985443,-0.03602591156959534,1.055608868598938,13.997071266174316,0.9129528999328613,6.715246200561523,-0.5654717087745667,-0.8354582190513611,-0.2954852283000946,0.040161170065402985,-1.3260622024536133,3.9400041103363037
378,25731,25732,-0.07196739315986633,-0.040013160556554794,1.022289752960205,17.633602142333984,-0.7265996932983398,3.3958210945129395,-0.5534723401069641,-0.8384580612182617,-0.2954852283000946,-0.21869535744190216,-1.207899808883667,4.046107292175293
379,25741,25742,-0.08768700063228607,-0.02088857814669609,1.0615416765213013,17.0566349029541,-8.470808982849121,2.3384768962860107,-0.5639718174934387,-0.8339582681655884,-0.2939853072166443,0.06235683709383011,-0.9143202304840088,4.02769660949707
380,25751,25752,-0.15362809598445892,-0.1980614811182022,1.0110106468200684,11.748412132263184,-14.145576477050781,2.808903455734253,-0.5519723892211914,-0.8309584259986877,-0.28198590874671936,0.23647303879261017,-1.0720069408416748,4.049203395843506
381,25761,25762,-0.30820345878601074,-0.07002629339694977,0.9875463843345642,8.622922897338867,-14.288679122924805,1.464072346687317,-0.5594720244407654,-0.8414579033851624,-0.2954852283000946,0.4422007203102112,-0.8780866861343384,4.0639495849609375
382,25771,25772,-0.3290786147117615,-0.532660722732544,0.9806467890739441,7.615950584411621,-10.95137882232666,-1.3284987211227417,-0.5609719157218933,-0.836958110332489,-0.28498575091362,0.6101025938987732,-0.723767101764679,4.064416408538818
383,25781,25782,-0.3223881721496582,-0.7283117175102234,0.9828331470489502,11.038623809814453,-7.833328723907471,-2.8435730934143066,-0.5564721822738647,-0.8384580612182617,-0.2924853563308716,0.5967038869857788,-0.5803677439689636,4.066664695739746
384,25791,25792,-0.8799119591712952,-0.6647346019744873,1.0278431177139282,16.673843383789062,0.8437597155570984,-1.4971615076065063,-0.562471866607666,-0.8234587907791138,-0.28048595786094666,0.5922280550003052,-0.4185376465320587,4.051450729370117
385,25801,25802,-0.5398674607276917,-0.6725183129310608,1.0241830348968506,19.211015701293945,7.7114763259887695,-2.172924518585205,-0.5714713931083679,-0.8354582190513611,-0.2954852283000946,0.5224040746688843,-0.33306634426116943,4.045949935913086
386,25811,25812,-0.40589049458503723,-0.19656707346439362,0.9951615929603577,18.121631622314453,17.508747100830078,-0.49805697798728943,-0.5684715509414673,-0.8324583768844604,-0.2954852283000946,0.31984224915504456,-0.08212731033563614,4.038196563720703
387,25821,25822,-0.3627040982246399,-0.3283332586288452,0.9516919851303101,13.99025821685791,25.250171661376953,0.46809911727905273,-0.5789710283279419,-0.8279585838317871,-0.28198590874671936,0.15595360100269318,-0.07116779685020447,4.038567543029785
388,25831,25832,-0.10271751880645752,-0.4120126962661743,0.9799598455429077,5.566628456115723,20.676376342773438,1.6865434646606445,-0.5759711861610413,-0.8429578542709351,-0.3029848337173462,-0.12015251815319061,-0.014358342625200748,4.051951885223389
389,25841,25842,-0.15028057992458344,-0.1756289005279541,0.9692720174789429,-4.586363315582275,9.11900520324707,2.2804136276245117,-0.5729713439941406,-0.8309584259986877,-0.2939853072166443,-0.19037935137748718,0.052807439118623734,4.060735702514648
390,25851,25852,-0.08350376039743423,-0.07197453081607819,0.9869211316108704,-12.29417896270752,-0.41757073998451233,2.00266432762146,-0.554972231388092,-0.8429578542709351,-0.28798559308052063,-0.21639792621135712,-0.11292698979377747,4.081699848175049
391,25861,25862,-0.1065114438533783,-0.20635831356048584,0.9796972274780273,-12.789539337158203,-3.608696460723877,-0.08851330727338791,-0.5639718174934387,-0.836958110332489,-0.2969851493835449,-0.2045583575963974,-0.28913360834121704,4.0965166091918945
392,25871,25872,-0.037795718759298325,-0.018478458747267723,1.0187437534332275,-8.580843925476074,-3.6781153678894043,-3.072977304458618,-0.5669716596603394,-0.8249587416648865,-0.29098543524742126,-0.17001156508922577,-0.43702465295791626,4.090203762054443
393,25881,25882,-0.042021576315164566,0.13429421186447144,1.109503984451294,-2.6580686569213867,-3.996241331100464,-6.323052406311035,-0.5714713931083679,-0.8324583768844604,-0.2864856719970703,-0.13217422366142273,-0.4986023008823395,4.053191661834717
394,25891,25892,-0.15881216526031494,-0.04657851532101631,1.0292303562164307,5.440304279327393,-2.7866129875183105,-7.9841508865356445,-0.5639718174934387,-0.8309584259986877,-0.2969851493835449,-0.10225624591112137,-0.4641968011856079,3.9886693954467773
395,25901,25902,-0.14215536415576935,-0.039935145527124405,1.0534954071044922,17.222578048706055,-0.31254637241363525,-10.103700637817383,-0.5759711861610413,-0.8399580121040344,-0.28798559308052063,-0.09446767717599869,-0.33184751868247986,3.9055399894714355
396,25911,25912,-0.04569905251264572,-0.35739263892173767,1.0277711153030396,26.926530838012695,2.9351468086242676,-12.151167869567871,-0.56997150182724,-0.8399580121040344,-0.27898603677749634,-0.0593842975795269,-0.016309255734086037,3.8010940551757812
397,25921,25922,-0.1380489021539688,-0.31616178154945374,1.0093799829483032,33.778621673583984,0.84145587682724,-13.535821914672852,-0.5744712948799133,-0.8474575877189636,-0.28948551416397095,-0.11471642553806305,0.3605274260044098,3.682454824447632
398,25931,25932,-0.29951557517051697,-0.20774033665657043,1.019904613494873,34.309181213378906,-3.330486536026001,-14.716294288635254,-0.5669716596603394,-0.851957380771637,-0.3029848337173462,0.022504765540361404,0.5854878425598145,3.5364742279052734
399,25941,25942,-0.2795579731464386,-0.21706493198871613,1.0848578214645386,27.062191009521484,-8.200776100158691,-16.596609115600586,-0.5804709792137146,-0.850457489490509,-0.29848507046699524,0.07957644015550613,0.9184255003929138,3.383845090866089
400,25951,25952,-0.18124788999557495,-0.05667567253112793,1.0181915760040283,16.184185028076172,-9.039129257202148,-17.84829330444336,-0.5729713439941406,-0.8459576964378357,-0.2969851493835449,0.18574582040309906,0.977301299571991,3.205537796020508
401,25961,25962,-0.2345464825630188,0.10732487589120865,1.069490909576416,2.5056231021881104,-5.814634799957275,-19.449411392211914,-0.56997150182724,-0.8339582681655884,-0.2969851493835449,0.27202317118644714,1.1807729005813599,3.024062395095825
402,25971,25972,-0.8435103893280029,0.0015000883722677827,1.0972577333450317,-6.121948719024658,-1.4848788976669312,-18.907440185546875,-0.5759711861610413,-0.851957380771637,-0.29098543524742126,0.2320854365825653,1.1948403120040894,2.8232905864715576
403,25981,25982,-1.080742597579956,-0.5754027962684631,1.0218684673309326,-13.65933609008789,8.8352689743042,-17.08445930480957,-0.5714713931083679,-0.8414579033851624,-0.2924853563308716,0.15755203366279602,1.0738499164581299,2.631263494491577
404,25991,25992,-0.23636050522327423,-0.40088939666748047,1.0268372297286987,-18.224079132080078,21.556142807006836,-13.400853157043457,-0.5924703478813171,-0.8384580612182617,-0.277486115694046,-0.03633413091301918,0.8460618853569031,2.461257219314575
405,26001,26002,0.01577957347035408,-0.1800978183746338,1.0092096328735352,-19.137500762939453,29.05358123779297,-11.26596736907959,-0.5744712948799133,-0.8354582190513611,-0.2924853563308716,-0.20224229991436005,0.6419578194618225,2.3431789875030518
406,26011,26012,-0.5808528661727905,0.09893754124641418,0.9247111082077026,-18.41584014892578,29.98499298095703,-10.537968635559082,-0.5729713439941406,-0.8219588994979858,-0.29098543524742126,-0.7078051567077637,0.4434666633605957,2.2048697471618652
407,26021,26022,-0.6242009401321411,-0.6027117371559143,0.9762506484985352,-16.479406356811523,25.641183853149414,-8.538376808166504,-0.5849707126617432,-0.8219588994979858,-0.27898603677749634,-0.8912122249603271,0.25322389602661133,2.121617555618286
408,26031,26032,-0.5969700217247009,-0.13468191027641296,0.9751300811767578,-11.1115140914917,18.352859497070312,-8.42396068572998,-0.5894705057144165,-0.8354582190513611,-0.277486115694046,-1.1466634273529053,0.19047339260578156,2.0446016788482666
409,26041,26042,-0.5664597153663635,0.1744678020477295,1.056983232498169,-3.310784339904785,4.824169635772705,-8.210569381713867,-0.5954701900482178,-0.8234587907791138,-0.277486115694046,-1.0705233812332153,0.08242988586425781,1.9904288053512573
410,26051,26052,-0.4663643538951874,-0.15302205085754395,1.067427635192871,5.428825378417969,-6.142441749572754,-8.019025802612305,-0.5864706635475159,-0.8294585347175598,-0.2954852283000946,-1.10029137134552,0.10733713209629059,1.9136197566986084
411,26061,26062,-0.4948590099811554,-0.3395949900150299,1.0310651063919067,15.612496376037598,-14.714542388916016,-8.177950859069824,-0.5924703478813171,-0.8324583768844604,-0.2864856719970703,-0.9687920808792114,0.22187423706054688,1.8420238494873047
412,26071,26072,-0.8128158450126648,-0.09838054329156876,1.0582232475280762,18.94047737121582,-24.332956314086914,-5.978246212005615,-0.5879706144332886,-0.836958110332489,-0.29098543524742126,-0.6634160280227661,0.37415415048599243,1.7786380052566528
413,26081,26082,-0.4132366180419922,-0.2684183418750763,1.0765217542648315,21.10934066772461,-23.216270446777344,-5.228372097015381,-0.5759711861610413,-0.836958110332489,-0.3029848337173462,-0.3166061043739319,0.7267668843269348,1.75331711769104
414,26091,26092,-0.4341397285461426,-0.332506000995636,1.04038405418396,18.82672882080078,-22.12375259399414,-4.5954270362854,-0.5759711861610413,-0.8489575386047363,-0.28798559308052063,-0.05355341359972954,0.9355608224868774,1.7014191150665283
415,26101,26102,-0.278200626373291,-0.0014714023564010859,1.000311255455017,12.599665641784668,-17.027578353881836,-3.5559237003326416,-0.5789710283279419,-0.8459576964378357,-0.2969851493835449,0.10414645820856094,1.2085206508636475,1.661234736442566
416,26111,26112,-0.20269499719142914,0.01990792155265808,0.9671704173088074,5.449002742767334,-6.1730732917785645,-2.873920440673828,-0.5789710283279419,-0.8459576964378357,-0.2969851493835449,0.21876825392246246,1.297240138053894,1.6151940822601318
417,26121,26122,-0.33702370524406433,-0.3087328374385834,0.9937692880630493,-5.560983657836914,6.250372886657715,-2.6538422107696533,-0.5789710283279419,-0.8459576964378357,-0.2969851493835449,0.21519427001476288,1.1110225915908813,1.5531307458877563
418,26131,26132,-0.6708365082740784,-0.34825530648231506,1.0649030208587646,-12.759734153747559,16.709877014160156,-1.2022876739501953,-0.5864706635475159,-0.8354582190513611,-0.2924853563308716,0.028011735528707504,0.8572044968605042,1.493149995803833
419,26141,26142,-0.7168871760368347,-0.10679611563682556,1.1168532371520996,-17.0333309173584,28.649229049682617,0.29234230518341064,-0.5849707126617432,-0.8279585838317871,-0.29098543524742126,-0.06350548565387726,1.0112385749816895,1.5349892377853394
420,26151,26152,-0.7310621738433838,-0.1580333113670349,0.9333283305168152,-18.704469680786133,36.05491256713867,0.02850225381553173,-0.5879706144332886,-0.836958110332489,-0.29098543524742126,-0.46933257579803467,0.7244215607643127,1.5140793323516846
421,26161,26162,-0.28738826513290405,-0.3159378468990326,0.9828763008117676,-15.61034107208252,39.64982604980469,-2.594472885131836,-0.5849707126617432,-0.8399580121040344,-0.28498575091362,-0.975554883480072,0.5155184864997864,1.4835784435272217
422,26171,26172,-0.40036335587501526,-0.42760467529296875,0.9952980279922485,-12.314376831054688,34.902774810791016,-4.3176774978637695,-0.5864706635475159,-0.8324583768844604,-0.2924853563308716,-1.1965210437774658,0.3704218566417694,1.487732172012329
423,26181,26182,-0.6829517483711243,-0.21826879680156708,1.000308871269226,-8.4240140914917,25.328527450561523,-4.969563007354736,-0.5909704566001892,-0.8429578542709351,-0.28198590874671936,-1.3199779987335205,0.33854934573173523,1.497063398361206
424,26191,26192,-0.5143125057220459,-0.3627440333366394,0.9403222799301147,-1.6555525064468384,15.65896987915039,-7.029436111450195,-0.6044697761535645,-0.8384580612182617,-0.2864856719970703,-1.6101114749908447,0.24938446283340454,1.4308629035949707
425,26201,26202,-0.1394224613904953,-0.2880690097808838,0.8047468066215515,6.565095901489258,-0.22104273736476898,-6.9265522956848145,-0.5939702987670898,-0.8219588994979858,-0.29098543524742126,-1.6788424253463745,0.28437161445617676,1.3765861988067627
426,26211,26212,-0.20067976415157318,-0.2633593678474426,0.8914247155189514,9.692608833312988,-11.139946937561035,-6.455842018127441,-0.6029698252677917,-0.8309584259986877,-0.28798559308052063,-1.6355139017105103,0.40897664427757263,1.3188977241516113
427,26221,26222,-0.13172240555286407,-0.1724129617214203,1.0167498588562012,10.820719718933105,-10.953953742980957,-6.913637638092041,-0.5969701409339905,-0.8399580121040344,-0.28798559308052063,-1.5346674919128418,0.5629297494888306,1.2630923986434937
428,26231,26232,-0.44685468077659607,-0.22603337466716766,0.9653775691986084,11.80886173248291,-18.281299591064453,-5.882499694824219,-0.5879706144332886,-0.8489575386047363,-0.2939853072166443,-1.333996295928955,0.6597645282745361,1.203055739402771
429,26241,26242,-0.7923698425292969,-0.22265103459358215,0.972805380821228,6.4465436935424805,-17.079357147216797,-5.263453483581543,-0.5954701900482178,-0.844457745552063,-0.28948551416397095,-1.2886213064193726,0.7992922067642212,1.1320873498916626
430,26251,26252,-1.056803584098816,-0.23944616317749023,1.0615116357803345,5.366360664367676,-14.392922401428223,-6.712136745452881,-0.5864706635475159,-0.8414579033851624,-0.2924853563308716,-1.0536530017852783,0.8801652789115906,1.0900245904922485
431,26261,26262,-0.5134501457214355,-0.15021726489067078,1.0014477968215942,7.073744297027588,-10.029797554016113,-6.893260955810547,-0.6029698252677917,-0.8489575386047363,-0.3029848337173462,-0.8761802315711975,0.819384753704071,0.9996908903121948
432,26271,26272,-0.4202585816383362,-0.155334934592247,0.9605493545532227,8.686393737792969,-3.651987075805664,-5.605171203613281,-0.5864706635475159,-0.8534573316574097,-0.28948551416397095,-0.8555943369865417,1.01071298122406,0.9500823616981506
433,26281,26282,-0.1483066976070404,-0.46367818117141724,1.012117624282837,10.889793395996094,0.8939027190208435,-5.033411979675293,-0.5909704566001892,-0.8459576964378357,-0.3029848337173462,-0.9069737195968628,1.0670892000198364,0.8744204044342041
434,26291,26292,-0.17067022621631622,-0.4029386341571808,0.9767742156982422,10.892407417297363,6.587027549743652,-3.1048784255981445,-0.6014699339866638,-0.8564571738243103,-0.3014849126338959,-0.9901668429374695,1.158693552017212,0.8138262629508972
435,26301,26302,-0.5442044734954834,-0.831987202167511,0.9963487982749939,8.198362350463867,3.3392651081085205,-2.4496800899505615,-0.5954701900482178,-0.8594570159912109,-0.3014849126338959,-1.0145617723464966,1.3248040676116943,0.8048292398452759
436,26311,26312,-0.3279217481613159,-0.862793505191803,0.906822681427002,2.414083480834961,0.8349810242652893,-1.6176846027374268,-0.577471137046814,-0.8474575877189636,-0.3014849126338959,-1.0041217803955078,1.3987995386123657,0.7908118963241577
437,26321,26322,-0.4359907805919647,-0.6600974202156067,0.8279622793197632,-8.314901351928711,3.876187801361084,-0.4573625922203064,-0.5924703478813171,-0.850457489490509,-0.2954852283000946,-1.0955076217651367,1.357141137123108,0.7509450316429138
438,26331,26332,-0.2814728021621704,-0.6904239058494568,0.880774974822998,-20.68995475769043,6.607104301452637,1.9644347429275513,-0.5909704566001892,-0.8669566512107849,-0.29998499155044556,-1.1466819047927856,1.1248811483383179,0.7218351364135742
439,26341,26342,-0.15487118065357208,-0.47206777334213257,1.0091993808746338,-34.4354248046875,9.34857177734375,3.5999226570129395,-0.5864706635475159,-0.850457489490509,-0.3014849126338959,-1.2893186807632446,0.970619261264801,0.7518834471702576
440,26351,26352,-0.19320978224277496,-0.531437873840332,1.0778558254241943,-45.15424346923828,16.28242301940918,3.022616386413574,-0.5684715509414673,-0.8594570159912109,-0.3014849126338959,-1.4358347654342651,0.44571536779403687,0.7448795437812805
441,26361,26362,-0.32082611322402954,-0.21778826415538788,1.0627027750015259,-47.97816467285156,20.308120727539062,0.47293317317962646,-0.5879706144332886,-0.8639568090438843,-0.29998499155044556,-1.7484068870544434,0.0938020572066307,0.7707012295722961
442,26371,26372,-0.18346966803073883,-0.22592556476593018,1.0673329830169678,-42.97245407104492,15.695956230163574,-0.20302174985408783,-0.56997150182724,-0.8579570651054382,-0.29998499155044556,-1.9657843112945557,-0.47713878750801086,0.745677649974823
443,26381,26382,-0.10183215886354446,-0.03034965880215168,1.1183840036392212,-33.736568450927734,15.226313591003418,-2.25370192527771,-0.5834708213806152,-0.850457489490509,-0.3014849126338959,-2.2335758209228516,-1.0766148567199707,0.6679033637046814
444,26391,26392,-0.2542755603790283,0.000321342668030411,1.06771719455719,-18.198471069335938,-0.1014149859547615,-2.7583084106445312,-0.5879706144332886,-0.851957380771637,-0.2939853072166443,-2.261648178100586,-1.1567085981369019,0.7181152701377869
445,26401,26402,-0.6821083426475525,-0.17148470878601074,1.0810123682022095,0.003656423417851329,-15.796728134155273,-3.655568838119507,-0.5804709792137146,-0.850457489490509,-0.29848507046699524,-2.1798391342163086,-1.223009705543518,0.7234598398208618
446,26411,26412,-0.35606294870376587,-0.3383012115955353,1.0597689151763916,15.267582893371582,-25.629941940307617,-4.979867458343506,-0.5714713931083679,-0.8594570159912109,-0.3134843111038208,-1.87382173538208,-1.087193489074707,0.7329534888267517
447,26421,26422,-0.22903940081596375,-0.016561459749937057,1.0666590929031372,30.196556091308594,-36.66105270385742,-7.67374849319458,-0.5789710283279419,-0.8669566512107849,-0.3149842321872711,-1.6825642585754395,-0.8274590969085693,0.7001515626907349
448,26431,26432,-0.33681201934814453,-0.24716781079769135,1.092386245727539,33.890560150146484,-49.70588684082031,-7.181572437286377,-0.5819708704948425,-0.8639568090438843,-0.30898454785346985,-1.0347816944122314,-0.48591378331184387,0.6414200663566589
449,26441,26442,-0.1642090380191803,-0.16713787615299225,1.0568997859954834,31.2232608795166,-52.551544189453125,-8.482206344604492,-0.5729713439941406,-0.8729563355445862,-0.3119843900203705,-0.8289648294448853,-0.25340375304222107,0.5372703075408936
450,26451,26452,-0.06906740367412567,-0.19792920351028442,0.9965693354606628,20.460477828979492,-42.2060432434082,-7.513875484466553,-0.5804709792137146,-0.8744562864303589,-0.3044847846031189,-0.2932725250720978,0.10841876268386841,0.4735134541988373
451,26461,26462,-0.12396440654993057,-0.32822662591934204,0.9874954223632812,4.9332499504089355,-22.441560745239258,-7.665966510772705,-0.56997150182724,-0.8639568090438843,-0.2969851493835449,-0.009741554036736488,0.09216873347759247,0.35015058517456055
452,26471,26472,-0.16985487937927246,-0.3205670416355133,0.9400568008422852,-7.685112953186035,-6.560962677001953,-8.418888092041016,-0.5714713931083679,-0.8594570159912109,-0.30748462677001953,0.13639917969703674,0.08090382069349289,0.2642575204372406
453,26481,26482,-0.11670400947332382,-0.27660906314849854,0.9791712164878845,-17.120513916015625,5.634309768676758,-7.74825382232666,-0.5729713439941406,-0.8639568090438843,-0.29998499155044556,0.28317564725875854,-0.050676848739385605,0.1732819676399231
454,26491,26492,-0.4731873571872711,-0.296077698469162,0.9785749316215515,-20.062868118286133,16.791181564331055,-7.297540664672852,-0.5564721822738647,-0.8414579033851624,-0.2954852283000946,-0.08805548399686813,-0.08153560757637024,0.12802289426326752
455,26501,26502,-0.33362075686454773,-0.3041420578956604,0.9871788620948792,-12.37808895111084,14.859146118164062,-5.775939464569092,-0.5669716596603394,-0.8609569072723389,-0.2969851493835449,-0.16014604270458221,-0.37955692410469055,0.03718666732311249
456,26511,26512,-0.45851194858551025,-0.31131741404533386,1.0008068084716797,-5.491641998291016,10.708765983581543,-4.978141784667969,-0.5714713931083679,-0.8594570159912109,-0.30748462677001953,-0.26683735847473145,-0.34212830662727356,-0.0006772361812181771
457,26521,26522,-0.45845839381217957,-0.2687307298183441,0.95390385389328,2.0865023136138916,2.216735601425171,-4.363978385925293,-0.5579720735549927,-0.8549572229385376,-0.2939853072166443,-0.35336926579475403,-0.3843924403190613,-0.05249137431383133
458,26531,26532,-0.23753976821899414,-0.13633276522159576,1.0634616613388062,-2.5450496673583984,-6.546852111816406,-4.837430953979492,-0.5669716596603394,-0.8609569072723389,-0.3059847056865692,-0.28491514921188354,-0.39906856417655945,-0.10189186781644821
459,26541,26542,-0.09626779705286026,-0.17980678379535675,0.957779049873352,-5.0537943840026855,-15.08124828338623,-4.2022175788879395,-0.5714713931083679,-0.8534573316574097,-0.3014849126338959,-0.16647928953170776,-0.46710145473480225,-0.15521091222763062
460,26551,26552,-0.40245094895362854,-0.2656771242618561,1.0417101383209229,-7.113094806671143,-22.119609832763672,-2.699385166168213,-0.5594720244407654,-0.8564571738243103,-0.31048446893692017,0.015290556475520134,-0.5296757221221924,-0.19266530871391296
461,26561,26562,-0.2613784670829773,-0.08162002265453339,1.0730950832366943,-3.15112042427063,-27.10633087158203,-0.4222260117530823,-0.5564721822738647,-0.8624568581581116,-0.2954852283000946,0.2416556030511856,-0.6210713386535645,-0.21428993344306946
462,26571,26572,-0.5322977304458618,-0.26474618911743164,1.080597996711731,-1.0730392932891846,-29.108549118041992,1.8286607265472412,-0.5729713439941406,-0.8549572229385376,-0.30898454785346985,0.6741721034049988,-0.6743122935295105,-0.22097812592983246
463,26581,26582,-0.33423444628715515,-0.20288915932178497,1.074639916419983,1.084355115890503,-24.593109130859375,1.6451154947280884,-0.554972231388092,-0.8579570651054382,-0.2939853072166443,0.870002031326294,-0.6015878319740295,-0.1927875578403473
464,26591,26592,-0.16196860373020172,-0.21208395063877106,1.0643047094345093,-0.6145691871643066,-16.73065185546875,2.5051798820495605,-0.554972231388092,-0.8579570651054382,-0.29998499155044556,1.1908066272735596,-0.5431298017501831,-0.18074582517147064
465,26601,26602,-0.42015573382377625,0.00931275263428688,1.021311640739441,-2.2696003913879395,-5.076021671295166,0.3539831042289734,-0.5669716596603394,-0.8489575386047363,-0.3059847056865692,1.3928614854812622,-0.5768309831619263,-0.1650097370147705
466,26611,26612,-0.502974271774292,0.0830087661743164,1.0828371047973633,-2.6762819290161133,1.697100043296814,0.7256982326507568,-0.5654717087745667,-0.8654567003250122,-0.2954852283000946,1.3964821100234985,-0.6347070336341858,-0.15273922681808472
467,26621,26622,-0.44280195236206055,0.13721157610416412,1.1459561586380005,1.1985905170440674,13.877046585083008,-1.362898349761963,-0.5579720735549927,-0.851957380771637,-0.29098543524742126,1.2804418802261353,-0.6730509400367737,-0.14343178272247314
468,26631,26632,-0.09736379235982895,-0.012783488258719444,1.0509847402572632,6.858850002288818,13.853243827819824,-0.38487327098846436,-0.5669716596603394,-0.8459576964378357,-0.29998499155044556,1.081304669380188,-0.6154951453208923,-0.1524423509836197
469,26641,26642,-0.19868767261505127,-0.297992080450058,1.0717363357543945,9.653656959533691,12.544404029846191,1.360940933227539,-0.554972231388092,-0.8459576964378357,-0.2939853072166443,0.9519322514533997,-0.48602429032325745,-0.16503632068634033
470,26651,26652,-0.05974649637937546,-0.2350897490978241,0.997626543045044,11.126866340637207,6.371170997619629,1.621250867843628,-0.5834708213806152,-0.8534573316574097,-0.28048595786094666,0.794684648513794,-0.32919758558273315,-0.16065026819705963
471,26661,26662,-0.12834040820598602,0.009998428635299206,1.0405023097991943,7.523806095123291,2.3793160915374756,4.510854721069336,-0.56997150182724,-0.8459576964378357,-0.2969851493835449,0.7431913018226624,-0.18895074725151062,-0.14355574548244476
472,26671,26672,-0.04454812780022621,-0.26399266719818115,0.9503307342529297,6.005387783050537,4.613044738769531,6.456172943115234,-0.5684715509414673,-0.844457745552063,-0.2954852283000946,0.7000345587730408,-0.16374433040618896,-0.08620340377092361
473,26681,26682,-0.09731672704219818,-0.21763604879379272,0.9595105051994324,-0.010039067827165127,3.973127603530884,8.787996292114258,-0.5744712948799133,-0.8474575877189636,-0.2954852283000946,0.8020489811897278,-0.10969076305627823,-0.03093782626092434
474,26691,26692,-0.15695258975028992,-0.34904006123542786,0.9773467183113098,-7.611207962036133,8.766607284545898,9.97403621673584,-0.5804709792137146,-0.8414579033851624,-0.2834858298301697,0.7079750299453735,-0.18335458636283875,0.07283691316843033
475,26701,26702,-0.2589285373687744,-0.22146019339561462,1.0487507581710815,-7.413289546966553,13.162592887878418,9.981982231140137,-0.577471137046814,-0.8354582190513611,-0.2864856719970703,0.6804615259170532,-0.25507599115371704,0.16307632625102997
476,26711,26712,-0.19472438097000122,-0.21915099024772644,0.9993670582771301,-3.985933303833008,13.41031551361084,9.590202331542969,-0.5819708704948425,-0.8309584259986877,-0.28198590874671936,0.4737836718559265,-0.3056613504886627,0.26525646448135376
