,timestamp_start,timestamp_end,acc.x,acc.y,acc.z,gyro.x,gyro.y,gyro.z,mag.x,mag.y,mag.z,stabilizer.pitch,stabilizer.roll,stabilizer.yaw
0,94981,94982,-0.9978649020195007,-0.11669374257326126,1.0009878873825073,2.6867692470550537,3.6502819061279297,12.568025588989258,-0.6074696183204651,-0.8024598360061646,-0.30748462677001953,-1.5099098682403564,-0.6877098083496094,-3.8714723587036133
1,94991,94992,-0.5747979283332825,-0.32785487174987793,1.040542483329773,5.986674785614014,-8.996743202209473,11.959840774536133,-0.6044697761535645,-0.8174591064453125,-0.3164841830730438,-1.490822672843933,-1.2916609048843384,-3.877790927886963
2,95001,95002,-0.11290666460990906,-0.34526526927948,1.0161405801773071,7.083926200866699,-15.510209083557129,12.084896087646484,-0.6059696674346924,-0.8219588994979858,-0.3029848337173462,-1.2449803352355957,0.13855873048305511,-3.455218553543091
3,95011,95012,-0.05684633553028107,-0.21392856538295746,1.0243340730667114,9.065150260925293,-18.515308380126953,9.377910614013672,-0.6149692535400391,-0.797960102558136,-0.3059847056865692,-1.078822135925293,0.10389501601457596,-3.374305248260498
4,95021,95022,-0.7043253779411316,-0.796668529510498,0.9964218139648438,3.2515318393707275,-25.120155334472656,12.308563232421875,-0.6134693026542664,-0.8114594221115112,-0.29848507046699524,-0.7974134683609009,0.12777940928936005,-3.2816617488861084
5,95031,95032,-0.7728362083435059,-0.7456072568893433,1.0745450258255005,0.4695279598236084,-29.408655166625977,13.225473403930664,-0.5984700918197632,-0.8204589486122131,-0.30748462677001953,-0.321676105260849,0.026291674003005028,-3.184143543243408
6,95041,95042,-0.8211880922317505,-0.6859445571899414,1.0850870609283447,-9.234435081481934,-25.064077377319336,15.287672996520996,-0.6074696183204651,-0.8084595799446106,-0.2954852283000946,0.08783721178770065,-0.08949581533670425,-3.059479236602783
7,95051,95052,-0.2582883834838867,-1.045072078704834,1.0462712049484253,-15.81464672088623,-17.416044235229492,15.6434907913208,-0.5954701900482178,-0.8084595799446106,-0.29848507046699524,0.4386731684207916,-0.2728155553340912,-2.9098918437957764
8,95061,95062,-0.04140503704547882,-0.4163452386856079,0.9518626928329468,-19.50289535522461,-9.874383926391602,15.330061912536621,-0.5879706144332886,-0.8159592151641846,-0.2939853072166443,0.6564685702323914,-0.6728594303131104,-2.786503314971924
9,95071,95072,-0.05754803121089935,-0.019244452938437462,0.9974468350410461,-21.072893142700195,6.269769191741943,14.275872230529785,-0.6029698252677917,-0.8039597868919373,-0.29098543524742126,0.7146521210670471,-1.0141957998275757,-2.651582717895508
10,95081,95082,-0.36467358469963074,-0.07065778970718384,1.003517746925354,-9.075992584228516,13.848906517028809,15.422708511352539,-0.6014699339866638,-0.8174591064453125,-0.2924853563308716,0.5464118123054504,-1.1517683267593384,-2.5049631595611572
11,95091,95092,-0.3070067763328552,-0.33497801423072815,1.0055530071258545,0.28960534930229187,13.134148597717285,16.800260543823242,-0.5909704566001892,-0.8129593133926392,-0.3029848337173462,0.2855253219604492,-1.373740553855896,-2.3691351413726807
12,95101,95102,-0.39328545331954956,-0.48838090896606445,1.034506916999817,12.767359733581543,12.856321334838867,16.740985870361328,-0.5954701900482178,-0.8114594221115112,-0.29848507046699524,0.07817184925079346,-1.2669929265975952,-2.1987078189849854
13,95111,95112,-0.565298855304718,-0.18687182664871216,1.0050781965255737,23.322986602783203,4.7055463790893555,17.526683807373047,-0.5999699831008911,-0.8039597868919373,-0.30898454785346985,-0.06888280063867569,-0.7230357527732849,-2.000100612640381
14,95121,95122,-0.2235482782125473,-0.0128354886546731,1.0322914123535156,24.148630142211914,1.413936972618103,18.053359985351562,-0.6029698252677917,-0.8189590573310852,-0.29998499155044556,-0.03430192917585373,-0.7531425356864929,-1.842927098274231
15,95131,95132,-0.03618181496858597,-0.11376794427633286,1.0335075855255127,25.206384658813477,-3.2619869709014893,18.361665725708008,-0.5984700918197632,-0.8204589486122131,-0.3014849126338959,-0.024037327617406845,0.23856273293495178,-1.6119872331619263
16,95141,95142,-0.6087080836296082,-0.09041694551706314,1.0012502670288086,17.67363739013672,-6.792272090911865,19.063858032226562,-0.5984700918197632,-0.8324583768844604,-0.30748462677001953,-0.018254585564136505,0.9755574464797974,-1.392201542854309
17,95151,95152,-0.3874380886554718,-0.1566355973482132,1.028599500656128,4.280237674713135,-11.467575073242188,16.55080795288086,-0.5849707126617432,-0.8129593133926392,-0.3029848337173462,0.12803730368614197,1.3022129535675049,-1.1988770961761475
18,95161,95162,-0.25973203778266907,-0.191030353307724,1.0953342914581299,-11.13512134552002,-22.253311157226562,15.068390846252441,-0.5954701900482178,-0.8294585347175598,-0.3044847846031189,0.36523106694221497,0.905644953250885,-1.0658022165298462
19,95171,95172,-0.28975987434387207,-0.2487369179725647,1.040892243385315,-25.567670822143555,-22.636817932128906,11.764603614807129,-0.6029698252677917,-0.8159592151641846,-0.3029848337173462,0.6447556614875793,0.45010116696357727,-0.9413307309150696
20,95181,95182,-0.3738473951816559,-0.0810893103480339,1.0149509906768799,-35.6054801940918,-21.08374786376953,11.119086265563965,-0.5909704566001892,-0.8069596290588379,-0.29998499155044556,0.8074016571044922,-0.11421568691730499,-0.8391231894493103
21,95191,95192,-0.07944708317518234,0.1441357135772705,1.0095535516738892,-37.981353759765625,-18.337039947509766,10.614474296569824,-0.5894705057144165,-0.7994599938392639,-0.2864856719970703,1.1269041299819946,-0.6348439455032349,-0.7158094048500061
22,95201,95202,-0.03730728104710579,0.07598069310188293,1.0180280208587646,-32.79086685180664,-14.557455062866211,10.170872688293457,-0.5804709792137146,-0.7814609408378601,-0.2864856719970703,1.3052804470062256,-1.1281476020812988,-0.6065589785575867
23,95211,95212,-0.1349049061536789,-0.2685989439487457,0.9746675491333008,-20.626441955566406,-3.70509934425354,9.292585372924805,-0.5924703478813171,-0.7814609408378601,-0.2954852283000946,1.4581177234649658,-1.5358686447143555,-0.49858611822128296
24,95221,95222,-0.10146395117044449,-0.21560703217983246,1.021214485168457,-1.9822659492492676,10.308774948120117,9.123798370361328,-0.5879706144332886,-0.7949602603912354,-0.28798559308052063,1.3475362062454224,-1.5606505870819092,-0.4189531207084656
25,95231,95232,-0.05616745352745056,-0.009107795543968678,0.9786298274993896,12.018819808959961,18.693077087402344,10.903815269470215,-0.5894705057144165,-0.790460467338562,-0.277486115694046,1.1625016927719116,-1.7176618576049805,-0.31418293714523315
26,95241,95242,-0.07323960214853287,0.09174737334251404,0.9903814196586609,24.002683639526367,25.53498077392578,11.068734169006348,-0.5954701900482178,-0.7964601516723633,-0.2864856719970703,0.7829685807228088,-1.450535535812378,-0.2166341096162796
27,95251,95252,-0.08890020102262497,0.005919400602579117,0.995725691318512,29.631044387817383,28.299470901489258,9.387334823608398,-0.5909704566001892,-0.7919603586196899,-0.28198590874671936,0.8029115200042725,-1.2838857173919678,-0.11982068419456482
28,95261,95262,-0.11889234930276871,0.045354776084423065,1.059585452079773,35.60276794433594,24.961957931518555,6.671483516693115,-0.6119694113731384,-0.8129593133926392,-0.29998499155044556,0.5163784027099609,-0.6964359283447266,-0.06452235579490662
29,95271,95272,0.028065113350749016,0.16462796926498413,1.0021964311599731,34.64506149291992,14.51925277709961,6.731205463409424,-0.6119694113731384,-0.8129593133926392,-0.29998499155044556,-0.04154375195503235,-0.19749757647514343,0.013903087005019188
30,95281,95282,-0.04297809675335884,-0.21222181618213654,0.8884589672088623,22.055166244506836,5.4296441078186035,5.778318881988525,-0.6119694113731384,-0.8129593133926392,-0.29998499155044556,-0.4017724394798279,0.19537745416164398,0.08641891181468964
31,95291,95292,-0.7279137969017029,-0.5813010931015015,0.8519185185432434,4.339654445648193,-5.559330940246582,5.82209587097168,-0.6119694113731384,-0.8129593133926392,-0.29998499155044556,-0.424669474363327,0.3413738012313843,0.13984999060630798
32,95301,95302,-0.7220599055290222,-0.09908580780029297,0.9495409727096558,-10.163017272949219,-12.832953453063965,4.556572914123535,-0.6149692535400391,-0.797960102558136,-0.28798559308052063,-0.07116673141717911,0.2949706017971039,0.1863263100385666
33,95311,95312,-0.1712256520986557,0.06448053568601608,1.0644387006759644,-18.796113967895508,-21.94688606262207,4.365978717803955,-0.5939702987670898,-0.797960102558136,-0.28798559308052063,0.19515663385391235,0.03678591176867485,0.23144857585430145
34,95321,95322,-0.4401912987232208,-0.28489843010902405,1.008585810661316,-22.144771575927734,-27.559246063232422,4.120213508605957,-0.5894705057144165,-0.8024598360061646,-0.277486115694046,0.6343938708305359,-0.37657561898231506,0.279690146446228
35,95331,95332,-0.4743722081184387,-0.1044621393084526,0.9679590463638306,-18.791654586791992,-25.241775512695312,3.8245465755462646,-0.5939702987670898,-0.8009599447250366,-0.27898603677749634,0.9688073992729187,-0.7060361504554749,0.32577794790267944
36,95341,95342,-0.33943700790405273,-0.1375194638967514,0.9973568916320801,-12.473092079162598,-9.11329174041748,1.4257324934005737,-0.5984700918197632,-0.7964601516723633,-0.2834858298301697,0.9781833291053772,-0.9509743452072144,0.35879963636398315
37,95351,95352,-0.20513132214546204,-0.17041194438934326,0.961533784866333,0.08257640153169632,8.029227256774902,-1.0633777379989624,-0.5984700918197632,-0.8024598360061646,-0.2834858298301697,1.0077323913574219,-0.9746511578559875,0.3636661469936371
38,95361,95362,-0.11101184040307999,-0.09471770375967026,0.9295443892478943,11.5726957321167,12.33433723449707,-2.5617730617523193,-0.5984700918197632,-0.7964601516723633,-0.28048595786094666,0.7739627361297607,-0.8768637180328369,0.3393673896789551
39,95371,95372,-0.3273110091686249,-0.10289953649044037,0.8946680426597595,21.045412063598633,13.592219352722168,-2.5731732845306396,-0.5939702987670898,-0.7919603586196899,-0.27898603677749634,0.6114894151687622,-0.615734875202179,0.3067367672920227
40,95381,95382,-0.1074998527765274,-0.08796395361423492,0.8281116485595703,30.471906661987305,11.531312942504883,-2.6243526935577393,-0.6044697761535645,-0.7844607830047607,-0.28048595786094666,0.7732890248298645,-0.14172601699829102,0.2616211175918579
41,95391,95392,-0.1365882009267807,-0.21881292760372162,0.8546614050865173,36.103851318359375,17.264963150024414,-4.511807441711426,-0.5999699831008911,-0.8009599447250366,-0.2759861946105957,0.23010370135307312,0.44624802470207214,0.22053170204162598
42,95401,95402,-0.24925898015499115,-0.33707475662231445,0.9275601506233215,35.87165451049805,25.86541175842285,-8.319290161132812,-0.6029698252677917,-0.8129593133926392,-0.2939853072166443,-0.3802390396595001,-0.1446356624364853,0.22051551938056946
43,95411,95412,-0.1408097743988037,-0.5195702910423279,0.8686050772666931,32.96210861206055,25.343496322631836,-11.929217338562012,-0.5969701409339905,-0.8099594712257385,-0.29998499155044556,-0.6763471364974976,0.4482942223548889,0.11698072403669357
44,95421,95422,-0.5263458490371704,-0.5529254078865051,0.8962981104850769,26.277549743652344,18.802539825439453,-12.300774574279785,-0.6044697761535645,-0.8114594221115112,-0.29848507046699524,-0.7788379788398743,0.7664265632629395,-0.0014968466712161899
45,95431,95432,-0.45381131768226624,-0.42792952060699463,0.9812120199203491,14.543069839477539,10.079668998718262,-11.755949020385742,-0.6044697761535645,-0.8084595799446106,-0.3014849126338959,-0.9163697957992554,0.4232170283794403,-0.12707507610321045
46,95441,95442,-0.2230055332183838,-0.08346165716648102,0.9462823271751404,7.495428562164307,-6.176262855529785,-12.474902153015137,-0.5999699831008911,-0.8069596290588379,-0.2939853072166443,-0.960480272769928,0.6870347261428833,-0.24643096327781677
47,95451,95452,-0.19295884668827057,-0.30012980103492737,0.9437596201896667,0.9283445477485657,-20.947446823120117,-11.244699478149414,-0.5939702987670898,-0.8249587416648865,-0.28198590874671936,-0.7648448944091797,0.7134139537811279,-0.365413099527359
48,95461,95462,-0.24471034109592438,-0.46538737416267395,0.9665175080299377,-11.685179710388184,-22.9294376373291,-9.554778099060059,-0.5909704566001892,-0.8159592151641846,-0.29098543524742126,-0.37746691703796387,0.509393572807312,-0.4724464416503906
49,95471,95472,-0.1650523543357849,-0.5864275693893433,0.9218568801879883,-18.38846778869629,-21.828603744506836,-9.591496467590332,-0.5819708704948425,-0.8129593133926392,-0.3059847056865692,0.02442069724202156,0.2977040112018585,-0.5639907121658325
50,95481,95482,-0.08669526875019073,-0.30151620507240295,0.9042033553123474,-22.934497833251953,-17.80345344543457,-11.545629501342773,-0.5954701900482178,-0.8144592642784119,-0.3014849126338959,0.3314836919307709,0.06626944243907928,-0.6573830246925354
51,95491,95492,-0.05100540444254875,0.016581006348133087,0.8537002801895142,-19.414623260498047,-15.83353042602539,-13.98438835144043,-0.5789710283279419,-0.8039597868919373,-0.29098543524742126,0.5364066362380981,-0.46543067693710327,-0.798536479473114
52,95501,95502,-0.17620748281478882,-0.48349085450172424,1.0094153881072998,-9.95681095123291,-3.165374517440796,-16.556142807006836,-0.5834708213806152,-0.8234587907791138,-0.2954852283000946,0.6357561945915222,-0.5898851752281189,-0.9483636021614075
53,95511,95512,-0.12707731127738953,-0.2898865342140198,0.9358328580856323,6.750182151794434,9.178461074829102,-20.294340133666992,-0.5849707126617432,-0.8129593133926392,-0.2939853072166443,0.6307639479637146,-0.5265955328941345,-1.1256095170974731
54,95521,95522,-0.2032327502965927,-0.09733357280492783,0.9216439127922058,21.27726173400879,9.952252388000488,-19.585079193115234,-0.5879706144332886,-0.8219588994979858,-0.28798559308052063,0.41317859292030334,-0.5261025428771973,-1.3405852317810059
55,95531,95532,-0.1663723737001419,-0.5336196422576904,0.9781829118728638,39.19072341918945,13.125341415405273,-19.455522537231445,-0.5849707126617432,-0.8069596290588379,-0.2969851493835449,0.22805330157279968,0.006377486512064934,-1.5361487865447998
56,95541,95542,-0.04669962823390961,-0.60882169008255,0.9264241456985474,47.116844177246094,19.748798370361328,-17.89420509338379,-0.5954701900482178,-0.8324583768844604,-0.30748462677001953,0.11242830753326416,0.793584942817688,-1.7164380550384521
57,95551,95552,-0.2822186350822449,-0.5693867206573486,0.9407927989959717,45.319580078125,26.548015594482422,-16.41191864013672,-0.5954701900482178,-0.8294585347175598,-0.3014849126338959,-0.016108078882098198,0.6907192468643188,-1.899582028388977
58,95561,95562,0.00332148396410048,-0.17135004699230194,0.9769622683525085,42.70892333984375,13.64858627319336,-14.45386028289795,-0.6104694604873657,-0.8294585347175598,-0.29848507046699524,-0.33805832266807556,1.4737871885299683,-2.049485683441162
59,95571,95572,-0.08601739257574081,-0.3763735890388489,1.1408828496932983,30.742507934570312,5.4302144050598145,-11.89335823059082,-0.6014699339866638,-0.850457489490509,-0.3014849126338959,-0.5034592747688293,1.5339921712875366,-2.195284366607666
60,95581,95582,-0.24803794920444489,-0.31810954213142395,0.9923742413520813,22.842748641967773,6.575538635253906,-10.915809631347656,-0.6074696183204651,-0.8234587907791138,-0.31048446893692017,-0.5723129510879517,1.799369215965271,-2.3004815578460693
61,95591,95592,-0.6361334919929504,-0.35372787714004517,0.8528969287872314,9.920918464660645,2.470003128051758,-8.604555130004883,-0.6104694604873657,-0.8384580612182617,-0.3164841830730438,-0.5516834259033203,2.103297233581543,-2.3863589763641357
62,95601,95602,-1.0353988409042358,-0.20830278098583221,0.859473466873169,-4.83570671081543,10.110562324523926,-8.301933288574219,-0.6119694113731384,-0.8339582681655884,-0.3059847056865692,-0.5044934153556824,2.200181722640991,-2.4588398933410645
63,95611,95612,-1.1400851011276245,0.02078956365585327,0.9486739039421082,-20.04839515686035,-3.7453012466430664,-4.910880088806152,-0.6074696183204651,-0.8324583768844604,-0.2924853563308716,-0.5204436779022217,1.9307827949523926,-2.539123058319092
64,95621,95622,-0.9128193259239197,-0.10647383332252502,1.0839067697525024,-30.615806579589844,-1.1146793365478516,-7.71688175201416,-0.5894705057144165,-0.844457745552063,-0.29848507046699524,-0.4428725838661194,1.6578644514083862,-2.589726209640503
65,95631,95632,-1.0800681114196777,-0.4389151334762573,1.1060847043991089,-25.043960571289062,-11.253084182739258,-8.366862297058105,-0.5999699831008911,-0.8309584259986877,-0.29998499155044556,-0.6091564893722534,1.422300934791565,-2.7037200927734375
66,95641,95642,-0.8769966959953308,-1.0499836206436157,0.9871527552604675,-16.08280372619629,0.3959885537624359,-13.191797256469727,-0.5999699831008911,-0.8309584259986877,-0.29998499155044556,-0.4370034337043762,0.9919700622558594,-2.800109386444092
67,95651,95652,-0.6159712076187134,-0.951869010925293,0.9589649438858032,0.6044374108314514,-2.0842068195343018,-12.970487594604492,-0.5909704566001892,-0.8339582681655884,-0.29998499155044556,-0.37172168493270874,0.9530978798866272,-2.9196860790252686
68,95661,95662,-0.3358714282512665,-0.49842092394828796,0.936963677406311,20.61209487915039,1.1678539514541626,-15.970830917358398,-0.6089695692062378,-0.836958110332489,-0.3059847056865692,-0.3733004927635193,1.1898524761199951,-3.0435805320739746
69,95671,95672,-0.30480241775512695,-0.40153297781944275,0.9663308262825012,34.06700897216797,1.7118253707885742,-14.995253562927246,-0.6044697761535645,-0.8474575877189636,-0.30748462677001953,-0.4136740267276764,1.452784538269043,-3.2035555839538574
70,95681,95682,-0.3903249502182007,-0.6235609650611877,0.896272599697113,45.80194854736328,8.03295612335205,-15.973119735717773,-0.6044697761535645,-0.8474575877189636,-0.30748462677001953,-0.4593627452850342,1.9507430791854858,-3.348933696746826
71,95691,95692,-0.24310210347175598,-0.1919219046831131,1.063914179801941,38.90397262573242,8.426957130432129,-15.651875495910645,-0.6089695692062378,-0.8489575386047363,-0.30898454785346985,-0.5652968883514404,2.3424623012542725,-3.5196049213409424
72,95701,95702,-0.11148571968078613,-0.20150414109230042,1.1237068176269531,35.82725143432617,-2.81874942779541,-19.114648818969727,-0.6089695692062378,-0.8489575386047363,-0.3029848337173462,-0.6644620895385742,2.776981830596924,-3.69696044921875
73,95711,95712,-0.5907968282699585,-0.5992414355278015,1.1542586088180542,25.227262496948242,-8.949097633361816,-17.600292205810547,-0.6179690957069397,-0.8549572229385376,-0.3239837884902954,-0.5160868167877197,3.031975030899048,-3.8667471408843994
74,95721,95722,-0.7294658422470093,-1.3327298164367676,1.0336787700653076,19.295318603515625,-1.0861256122589111,-20.500991821289062,-0.6059696674346924,-0.8459576964378357,-0.3149842321872711,-0.4616471230983734,3.10103178024292,-4.064582824707031
75,95731,95732,-0.8405236005783081,-0.7736654877662659,1.0551362037658691,-2.7047066688537598,1.3154486417770386,-19.028152465820312,-0.6179690957069397,-0.8459576964378357,-0.3029848337173462,-0.45450252294540405,3.198732852935791,-4.261019706726074
76,95741,95742,-0.5401192903518677,-0.8851683735847473,1.0587787628173828,-13.36709213256836,7.174316883087158,-18.507518768310547,-0.5999699831008911,-0.8489575386047363,-0.3029848337173462,-0.5906879901885986,3.0401248931884766,-4.4872941970825195
77,95751,95752,-1.0942784547805786,-0.616194486618042,1.087530255317688,-18.71639060974121,1.2255550622940063,-15.64726734161377,-0.6074696183204651,-0.8384580612182617,-0.3014849126338959,-0.6821060180664062,2.894087791442871,-4.662882328033447
78,95761,95762,-0.4145301282405853,-0.4906499981880188,0.9559375643730164,-11.855353355407715,12.030393600463867,-16.81605339050293,-0.6134693026542664,-0.844457745552063,-0.2954852283000946,-0.8064867854118347,2.6790552139282227,-4.835941791534424
79,95771,95772,-0.3727414608001709,-0.4329454302787781,0.9655518531799316,-14.358241081237793,8.456416130065918,-14.34430980682373,-0.616469144821167,-0.844457745552063,-0.3014849126338959,-0.8226963877677917,2.606247901916504,-4.948417663574219
80,95781,95782,-0.35340431332588196,-0.20199134945869446,1.1339144706726074,-14.5629243850708,5.501729488372803,-12.22402572631836,-0.616469144821167,-0.8204589486122131,-0.29848507046699524,-0.9679200053215027,2.5116612911224365,-5.091301441192627
81,95791,95792,-0.38386455178260803,-0.1715526431798935,1.1960341930389404,-15.618280410766602,1.8921502828598022,-11.1124849319458,-0.6149692535400391,-0.8399580121040344,-0.3029848337173462,-1.0797977447509766,2.3495736122131348,-5.228890419006348
82,95801,95802,-0.1902676671743393,-0.39860355854034424,1.0549126863479614,-5.369458198547363,3.5606584548950195,-9.485982894897461,-0.6179690957069397,-0.836958110332489,-0.3059847056865692,-1.1359353065490723,2.18304705619812,-5.348309516906738
83,95811,95812,-0.05460160970687866,-0.06421902775764465,0.9759877324104309,-6.648245334625244,9.761353492736816,-8.877223014831543,-0.6044697761535645,-0.8414579033851624,-0.3014849126338959,-1.106896996498108,2.2001662254333496,-5.394999027252197
84,95821,95822,-0.45478686690330505,0.11847848445177078,1.1616922616958618,-7.984490394592285,-6.325556755065918,-6.2605767250061035,-0.622468888759613,-0.8384580612182617,-0.3134843111038208,-1.1148682832717896,2.1776931285858154,-5.459944248199463
85,95831,95832,-0.3520748019218445,-0.018168717622756958,1.0248273611068726,5.173439025878906,-8.867745399475098,-6.730850696563721,-0.6179690957069397,-0.8429578542709351,-0.3029848337173462,-1.0394282341003418,2.1456704139709473,-5.517237186431885
86,95841,95842,-0.24072371423244476,-0.2105352282524109,0.8752262592315674,4.5963897705078125,3.8231852054595947,-6.8039021492004395,-0.6179690957069397,-0.8489575386047363,-0.2969851493835449,-0.9130818247795105,2.2395973205566406,-5.552523612976074
87,95851,95852,0.021071063354611397,-0.1647573560476303,0.8655135035514832,5.859744548797607,-9.216944694519043,-3.7765820026397705,-0.616469144821167,-0.8384580612182617,-0.29848507046699524,-0.9719355702400208,2.370337724685669,-5.6262006759643555
88,95861,95862,-0.011467582546174526,-0.03116600774228573,0.9479576945304871,1.7277607917785645,-11.364398956298828,-4.6033172607421875,-0.6329683661460876,-0.8339582681655884,-0.3029848337173462,-0.8373298048973083,2.4833316802978516,-5.638300895690918
89,95871,95872,-0.21443046629428864,-0.03962656483054161,0.979016900062561,-0.16512414813041687,-10.80138874053955,-2.554838180541992,-0.616469144821167,-0.8354582190513611,-0.31048446893692017,-0.6519215703010559,2.416644334793091,-5.665782928466797
90,95881,95882,-0.27780836820602417,0.08605560660362244,1.0078779458999634,0.41824254393577576,-5.298157691955566,-2.4226582050323486,-0.6134693026542664,-0.8414579033851624,-0.29848507046699524,-0.6029497385025024,2.4035401344299316,-5.717063903808594
91,95891,95892,-0.45375776290893555,-0.05312783643603325,1.1045124530792236,-6.107231140136719,-17.336849212646484,3.607675790786743,-0.6194689869880676,-0.8564571738243103,-0.31048446893692017,-0.6035100817680359,2.4656567573547363,-5.74213171005249
92,95901,95902,-0.7319211959838867,-0.15343943238258362,0.9646251797676086,-0.4380795657634735,-13.575974464416504,4.838273525238037,-0.5999699831008911,-0.8429578542709351,-0.3059847056865692,-0.34965261816978455,2.380962610244751,-5.672073841094971
93,95911,95912,-0.24076926708221436,-0.3184838891029358,0.941148579120636,-8.62348747253418,-15.11242389678955,9.901860237121582,-0.6104694604873657,-0.850457489490509,-0.3014849126338959,-0.2427162230014801,2.311680793762207,-5.622442245483398
94,95921,95922,0.021939722821116447,-0.11768639832735062,0.9062426090240479,-15.097197532653809,-11.99797534942627,12.562585830688477,-0.6044697761535645,-0.8384580612182617,-0.3044847846031189,-0.0022201109677553177,2.214125871658325,-5.479954242706299
95,95931,95932,-0.3332253694534302,-0.10733681917190552,0.9439663887023926,-18.078584671020508,-8.881843566894531,14.593947410583496,-0.6029698252677917,-0.851957380771637,-0.3149842321872711,0.09832543134689331,2.0060627460479736,-5.358602046966553
96,95941,95942,-0.7174217104911804,-0.3234217166900635,0.9362735152244568,-22.035293579101562,-3.9821906089782715,14.591142654418945,-0.6029698252677917,-0.8339582681655884,-0.30898454785346985,0.22004035115242004,1.8742707967758179,-5.1845197677612305
97,95951,95952,-0.2603674829006195,-0.8921543955802917,0.8960312604904175,-28.497102737426758,3.6969218254089355,13.427270889282227,-0.6029698252677917,-0.8609569072723389,-0.31798410415649414,0.15981212258338928,1.5808457136154175,-5.064569473266602
98,95961,95962,-0.3359358608722687,-0.4843055307865143,0.9200288653373718,-25.96258544921875,17.00745391845703,10.040663719177246,-0.6014699339866638,-0.844457745552063,-0.30748462677001953,0.022217724472284317,1.360421061515808,-4.947438716888428
99,95971,95972,-0.24336935579776764,-0.09625595062971115,0.9403446912765503,-25.436487197875977,18.191457748413086,9.268795013427734,-0.6014699339866638,-0.850457489490509,-0.29848507046699524,-0.2187906801700592,1.054550051689148,-4.877617835998535
100,95981,95982,-0.49249333143234253,0.1558147817850113,0.9833127856254578,-21.405132293701172,17.668018341064453,4.737791061401367,-0.5894705057144165,-0.844457745552063,-0.30748462677001953,-0.4447220265865326,0.7864900827407837,-4.823470115661621
101,95991,95992,-0.23660802841186523,-0.10409276932477951,1.0546433925628662,-13.554515838623047,2.4457170963287354,2.381324291229248,-0.5939702987670898,-0.8579570651054382,-0.30898454785346985,-0.5520539283752441,0.9137744307518005,-4.763333320617676
102,96001,96002,-0.569813072681427,-0.4151640236377716,1.0759048461914062,1.0792027711868286,-8.052224159240723,-3.0446317195892334,-0.5984700918197632,-0.8564571738243103,-0.31048446893692017,-0.52137690782547,0.8793300986289978,-4.756269931793213
103,96011,96012,-0.745262861251831,-0.3305366337299347,1.1182352304458618,7.460255146026611,-20.067054748535156,-4.456910133361816,-0.5969701409339905,-0.8669566512107849,-0.31798410415649414,-0.3036864399909973,1.043778896331787,-4.7698259353637695
104,96021,96022,-0.3014283776283264,0.006653811316937208,1.1134779453277588,22.558687210083008,-31.45273780822754,-6.1322503089904785,-0.5984700918197632,-0.8744562864303589,-0.3254837095737457,0.005260000005364418,1.1892613172531128,-4.817883491516113
105,96031,96032,-0.23041778802871704,-0.023493964225053787,1.1117286682128906,23.523889541625977,-29.64480209350586,-6.789888381958008,-0.5834708213806152,-0.8654567003250122,-0.3164841830730438,0.5106653571128845,1.5059223175048828,-4.848672389984131
106,96041,96042,-0.13281852006912231,-0.07106596231460571,0.975867509841919,28.05813217163086,-29.70669937133789,-6.974586009979248,-0.5909704566001892,-0.8819558620452881,-0.31798410415649414,0.6671245098114014,1.7509437799453735,-4.950736045837402
107,96051,96052,-0.168345108628273,-0.2212851345539093,0.9137827157974243,18.53282356262207,-21.40730094909668,-4.928728103637695,-0.5924703478813171,-0.8654567003250122,-0.3254837095737457,1.0906764268875122,2.006183385848999,-4.9929280281066895
108,96061,96062,-0.06016842648386955,-0.13484546542167664,0.94463711977005,6.302148818969727,-9.647810935974121,-4.049981117248535,-0.6044697761535645,-0.8594570159912109,-0.3164841830730438,1.0611566305160522,2.0099220275878906,-5.076183319091797
109,96071,96072,-0.09851309657096863,-0.016974590718746185,1.020497441291809,-7.079756736755371,-1.5060656070709229,-2.5848500728607178,-0.6014699339866638,-0.8654567003250122,-0.31948402523994446,1.2389588356018066,1.9447708129882812,-5.093337059020996
110,96081,96082,-0.05264173448085785,0.0017084662104025483,1.017263650894165,-19.261348724365234,5.423025608062744,-0.14463640749454498,-0.5834708213806152,-0.8564571738243103,-0.31048446893692017,1.0701842308044434,1.9627296924591064,-5.141791820526123
111,96091,96092,-0.07145927846431732,-0.2419402152299881,1.0267829895019531,-29.430923461914062,12.381446838378906,1.859152913093567,-0.5924703478813171,-0.8594570159912109,-0.3254837095737457,1.0173008441925049,1.4965929985046387,-5.114856719970703
112,96101,96102,-0.6223519444465637,-0.6305918097496033,1.0279066562652588,-39.32381057739258,16.160152435302734,4.728961944580078,-0.5879706144332886,-0.8669566512107849,-0.3059847056865692,0.7823008894920349,0.9461672902107239,-5.086618900299072
113,96111,96112,-0.24694982171058655,-0.300213485956192,1.019208550453186,-44.55494689941406,19.06740379333496,7.784396648406982,-0.5819708704948425,-0.8489575386047363,-0.30898454785346985,0.5721644163131714,0.9177505970001221,-5.058712005615234
114,96121,96122,-0.05478198081254959,-0.16442599892616272,1.0927714109420776,-44.96857833862305,20.38496208190918,11.618054389953613,-0.5849707126617432,-0.8609569072723389,-0.3119843900203705,0.24720856547355652,0.38490208983421326,-4.97181510925293
115,96131,96132,-0.19811095297336578,-0.14205995202064514,1.0932769775390625,-42.14114761352539,18.867074966430664,12.936164855957031,-0.5834708213806152,-0.8474575877189636,-0.3044847846031189,0.21793551743030548,-0.0009325387072749436,-4.828278064727783
116,96141,96142,-0.07636568695306778,-0.2059708833694458,1.0977647304534912,-34.23938751220703,8.617871284484863,16.563159942626953,-0.5834708213806152,-0.8474575877189636,-0.3044847846031189,-0.03678228333592415,-0.4586094915866852,-4.694386959075928
117,96151,96152,-0.13393084704875946,-0.0894031748175621,1.056326150894165,-25.134204864501953,-1.6347527503967285,19.786203384399414,-0.5834708213806152,-0.8474575877189636,-0.3044847846031189,-0.11148892343044281,-0.758941650390625,-4.51759672164917
118,96161,96162,-0.05052981525659561,-0.07577817142009735,1.0386180877685547,-19.547561645507812,-9.514469146728516,22.04047203063965,-0.6044697761535645,-0.8354582190513611,-0.3224838674068451,-0.012477186508476734,-0.8634218573570251,-4.311770439147949
119,96171,96172,-0.1426551789045334,-0.01537536084651947,1.0742113590240479,-14.90325927734375,-9.680264472961426,22.30215072631836,-0.5969701409339905,-0.8429578542709351,-0.31798410415649414,0.14794710278511047,-0.894612193107605,-4.09245491027832
120,96181,96182,-0.1135852187871933,-0.10821868479251862,1.0714874267578125,-14.29763412475586,-5.296144962310791,20.436939239501953,-0.5879706144332886,-0.8309584259986877,-0.29998499155044556,0.2873110771179199,-0.9596825838088989,-3.8794350624084473
121,96191,96192,-0.08786947280168533,-0.07132785022258759,1.0522700548171997,-17.244983673095703,0.2774357795715332,18.40696907043457,-0.5939702987670898,-0.8459576964378357,-0.3149842321872711,0.2652210593223572,-1.2460734844207764,-3.6731667518615723
122,96201,96202,-0.1610911339521408,-0.05920588597655296,1.0292035341262817,-20.89105796813965,8.847506523132324,14.914060592651367,-0.5894705057144165,-0.8384580612182617,-0.30748462677001953,0.20546390116214752,-1.577402114868164,-3.4955344200134277
123,96211,96212,-0.06110573187470436,-0.08498850464820862,1.024609923362732,-24.217687606811523,17.913244247436523,11.030357360839844,-0.5894705057144165,-0.8294585347175598,-0.30748462677001953,0.06002146378159523,-1.6782954931259155,-3.372446060180664
124,96221,96222,-0.10979794710874557,0.01202926691621542,1.052034616470337,-25.58059310913086,25.924301147460938,7.323550701141357,-0.5984700918197632,-0.8264586329460144,-0.29848507046699524,-0.2916318476200104,-1.9061603546142578,-3.2728259563446045
125,96231,96232,-0.2776007652282715,-0.28685086965560913,1.1345608234405518,-20.56856346130371,28.558277130126953,6.3370361328125,-0.5864706635475159,-0.8174591064453125,-0.3134843111038208,-0.5111892223358154,-2.037501335144043,-3.2287778854370117
126,96241,96242,-0.33276185393333435,-0.1528826206922531,1.148947834968567,-15.613104820251465,26.4269962310791,6.4476165771484375,-0.5924703478813171,-0.8294585347175598,-0.2924853563308716,-0.8268055319786072,-2.3000190258026123,-3.1690304279327393
127,96251,96252,-0.31622758507728577,-0.09467821568250656,1.1283395290374756,-7.018284320831299,21.47067642211914,4.894450664520264,-0.5984700918197632,-0.8264586329460144,-0.31048446893692017,-1.156699299812317,-2.5231213569641113,-3.100822925567627
128,96261,96262,-0.15696321427822113,-0.07331909984350204,1.112921118736267,0.8998668789863586,8.45457649230957,6.355815410614014,-0.5969701409339905,-0.8219588994979858,-0.2969851493835449,-1.2155379056930542,-2.3697359561920166,-3.087106466293335
129,96271,96272,-0.059035830199718475,-0.036753684282302856,1.0186046361923218,6.296171188354492,3.479163646697998,5.916007041931152,-0.5969701409339905,-0.8099594712257385,-0.3029848337173462,-1.2529783248901367,-2.2602508068084717,-3.0357933044433594
130,96281,96282,-0.16602076590061188,0.012688214890658855,1.0178855657577515,9.083052635192871,-5.035816192626953,6.9468536376953125,-0.6044697761535645,-0.8204589486122131,-0.28948551416397095,-1.253462314605713,-2.2221834659576416,-2.9732649326324463
131,96291,96292,-0.08500570803880692,-0.026996610686182976,1.0617945194244385,7.882724285125732,-12.474035263061523,8.125452041625977,-0.6074696183204651,-0.8234587907791138,-0.2924853563308716,-1.1238510608673096,-2.091320276260376,-2.911288261413574
132,96301,96302,-0.031160401180386543,-0.006963945459574461,0.9973658323287964,5.998865604400635,-17.247018814086914,8.618987083435059,-0.6089695692062378,-0.8219588994979858,-0.29098543524742126,-0.9534480571746826,-2.0566444396972656,-2.8340883255004883
133,96311,96312,-0.1028880923986435,-0.09800171107053757,1.048043966293335,0.9762629270553589,-18.86824607849121,9.480069160461426,-0.6119694113731384,-0.8099594712257385,-0.2939853072166443,-0.5960685014724731,-2.068953037261963,-2.8113298416137695
134,96321,96322,-0.04275798425078392,-0.06715657562017441,1.0221223831176758,-6.895341396331787,-18.320302963256836,10.397608757019043,-0.6074696183204651,-0.8084595799446106,-0.28948551416397095,-0.29842695593833923,-2.1725103855133057,-2.75586199760437
135,96331,96332,-0.040963634848594666,-0.1510128378868103,0.9750446677207947,-11.820271492004395,-10.681431770324707,11.036519050598145,-0.5954701900482178,-0.8204589486122131,-0.29848507046699524,-0.27404236793518066,-2.2453196048736572,-2.5905473232269287
136,96341,96342,-0.19912679493427277,-0.6288341879844666,1.076361060142517,-13.538019180297852,-0.5897243618965149,10.865710258483887,-0.5864706635475159,-0.8144592642784119,-0.2954852283000946,-0.1721455454826355,-2.303340196609497,-2.490431070327759
137,96351,96352,-0.1563580483198166,-0.43696704506874084,1.032409429550171,-9.713146209716797,6.431254863739014,10.290901184082031,-0.5939702987670898,-0.8069596290588379,-0.29098543524742126,-0.2232528179883957,-2.5552430152893066,-2.386723279953003
138,96361,96362,-0.0625181719660759,-0.07321373373270035,0.9650650024414062,-1.8014707565307617,11.056211471557617,11.216796875,-0.6059696674346924,-0.8039597868919373,-0.28498575091362,-0.30591315031051636,-2.7081503868103027,-2.2936251163482666
139,96371,96372,-0.22604350745677948,-0.043680645525455475,1.0175520181655884,6.1022539138793945,15.74332332611084,13.132612228393555,-0.6044697761535645,-0.7994599938392639,-0.29848507046699524,-0.4649279713630676,-2.71319842338562,-2.169398307800293
140,96381,96382,-0.1613544076681137,-0.02127694897353649,1.0265141725540161,11.323627471923828,14.60196590423584,14.61592960357666,-0.6089695692062378,-0.8009599447250366,-0.29098543524742126,-0.6700467467308044,-2.601869821548462,-2.0183818340301514
141,96391,96392,-0.22152096033096313,-0.28449633717536926,0.9968673586845398,12.017518997192383,13.320274353027344,14.938478469848633,-0.5984700918197632,-0.80545973777771,-0.3014849126338959,-0.9120656251907349,-2.437361478805542,-1.8277809619903564
142,96401,96402,-0.8029914498329163,-0.35210129618644714,1.062273621559143,9.834859848022461,12.086996078491211,14.039898872375488,-0.5939702987670898,-0.8009599447250366,-0.28498575091362,-1.1310802698135376,-2.260460376739502,-1.6413136720657349
143,96411,96412,-0.5560483336448669,-0.2697605788707733,1.0114332437515259,4.676753997802734,8.90989875793457,10.23068618774414,-0.5999699831008911,-0.8069596290588379,-0.3029848337173462,-1.1670681238174438,-2.168158531188965,-1.5580846071243286
144,96421,96422,-0.14861594140529633,-0.1070961281657219,0.9855400323867798,5.357648849487305,2.0505142211914062,7.714825630187988,-0.6104694604873657,-0.8144592642784119,-0.2924853563308716,-1.2662665843963623,-2.1808624267578125,-1.4627817869186401
145,96431,96432,-0.3726174235343933,-0.08684483170509338,0.9915253520011902,5.387817859649658,-3.39693284034729,5.794563293457031,-0.6074696183204651,-0.8324583768844604,-0.2924853563308716,-1.1252162456512451,-2.1035122871398926,-1.4621027708053589
146,96441,96442,-0.17906367778778076,-0.026437807828187943,0.9958495497703552,4.774721145629883,-7.840776443481445,4.149489879608154,-0.5999699831008911,-0.8129593133926392,-0.2939853072166443,-1.0407062768936157,-2.1715242862701416,-1.443241834640503
147,96451,96452,-0.5105829238891602,-0.034958213567733765,0.9834263324737549,2.7492494583129883,-9.7713623046875,3.7047200202941895,-0.6029698252677917,-0.8129593133926392,-0.29098543524742126,-0.8960475325584412,-2.1094305515289307,-1.422131061553955
148,96461,96462,-0.5860949158668518,0.0012780172983184457,1.0266474485397339,0.1312907189130783,-7.38924503326416,2.271764039993286,-0.5909704566001892,-0.8159592151641846,-0.28798559308052063,-0.748423159122467,-2.0824365615844727,-1.4133750200271606
149,96471,96472,-0.08884459733963013,0.005219044629484415,0.9857063293457031,1.3879321813583374,-2.863213539123535,1.128415822982788,-0.5999699831008911,-0.8219588994979858,-0.2939853072166443,-0.6652691960334778,-2.0084104537963867,-1.395268440246582
150,96481,96482,-0.23597374558448792,-0.08947645872831345,0.9859983325004578,5.148661136627197,1.7098522186279297,0.3246704638004303,-0.5984700918197632,-0.8024598360061646,-0.28948551416397095,-0.6464188098907471,-2.034978151321411,-1.3972623348236084
151,96491,96492,-0.4956759214401245,-0.2003336101770401,1.0268326997756958,9.47138786315918,6.3630852699279785,-0.37091362476348877,-0.5969701409339905,-0.8069596290588379,-0.27298635244369507,-0.7112544775009155,-1.9154421091079712,-1.3781163692474365
152,96501,96502,-0.1967884749174118,-0.07030942291021347,1.0074291229248047,18.60593605041504,10.937911033630371,-2.577537775039673,-0.6074696183204651,-0.80545973777771,-0.29848507046699524,-0.8508143424987793,-1.8407924175262451,-1.3771166801452637
153,96511,96512,-0.15156568586826324,-0.08230932056903839,0.9893134236335754,29.59039878845215,12.121161460876465,-4.400993824005127,-0.5984700918197632,-0.8114594221115112,-0.3044847846031189,-1.1039079427719116,-1.7351045608520508,-1.371906042098999
154,96521,96522,-0.1392655074596405,-0.032919395714998245,1.0424519777297974,36.71847152709961,10.103202819824219,-7.5309014320373535,-0.6074696183204651,-0.8174591064453125,-0.2834858298301697,-1.143575668334961,-1.312840461730957,-1.454443097114563
155,96531,96532,-0.1724880486726761,-0.038633495569229126,0.976607620716095,35.85696029663086,4.653048038482666,-9.283088684082031,-0.6209689378738403,-0.8159592151641846,-0.3029848337173462,-1.269436001777649,-0.8313113451004028,-1.5030080080032349
156,96541,96542,-0.07500731199979782,-0.06393725425004959,1.0082823038101196,30.828868865966797,-1.214836835861206,-11.044173240661621,-0.6089695692062378,-0.8309584259986877,-0.2939853072166443,-1.299237608909607,-0.480569988489151,-1.5991755723953247
157,96551,96552,-0.13659287989139557,-0.015473512932658195,1.0660346746444702,23.709178924560547,-8.649858474731445,-11.176058769226074,-0.6134693026542664,-0.8354582190513611,-0.29848507046699524,-1.2836138010025024,-0.20824357867240906,-1.702292799949646
158,96561,96562,-0.1494084894657135,-0.08008389174938202,1.004273533821106,16.983081817626953,-20.202932357788086,-12.032889366149902,-0.6119694113731384,-0.8219588994979858,-0.3029848337173462,-1.0757575035095215,0.059896841645240784,-1.8424835205078125
159,96571,96572,-0.2104160040616989,-0.40369442105293274,0.9970325231552124,5.39433479309082,-15.97614860534668,-12.053889274597168,-0.6119694113731384,-0.8309584259986877,-0.29998499155044556,-0.8856791257858276,0.05263710767030716,-1.9824379682540894
160,96581,96582,-0.19610550999641418,-0.44876033067703247,0.9449549317359924,0.5779887437820435,-12.227004051208496,-11.375201225280762,-0.6134693026542664,-0.8204589486122131,-0.2924853563308716,-0.6925876140594482,0.10110364854335785,-2.11000394821167
161,96591,96592,-0.3640836477279663,-0.841524600982666,0.843475878238678,-10.275712966918945,-3.4975996017456055,-9.580223083496094,-0.6014699339866638,-0.8264586329460144,-0.29848507046699524,-0.5680462718009949,0.060333605855703354,-2.2183852195739746
162,96601,96602,-0.38757339119911194,-0.5629410147666931,0.8360995650291443,-11.354055404663086,0.780768096446991,-10.210653305053711,-0.6059696674346924,-0.8129593133926392,-0.28198590874671936,-0.499433696269989,-0.1048937737941742,-2.3284242153167725
163,96611,96612,-0.49544209241867065,-0.5321598649024963,1.0655779838562012,-13.444626808166504,-1.962607502937317,-8.605284690856934,-0.6149692535400391,-0.8189590573310852,-0.29998499155044556,-0.5958262085914612,-0.40808814764022827,-2.4261975288391113
164,96621,96622,-0.33166995644569397,-0.19083674252033234,1.0866659879684448,-1.346513271331787,-8.847546577453613,-9.133706092834473,-0.5939702987670898,-0.8219588994979858,-0.2939853072166443,-0.5650675296783447,-0.5134546756744385,-2.5093517303466797
165,96631,96632,-0.027863116934895515,-0.05759119242429733,1.0927852392196655,4.826629161834717,-11.889490127563477,-6.52051305770874,-0.5999699831008911,-0.8339582681655884,-0.29098543524742126,-0.3751087784767151,-0.42468947172164917,-2.599656343460083
166,96641,96642,-0.40787360072135925,-0.24839302897453308,1.0844461917877197,12.50103759765625,-17.09037971496582,-7.388678073883057,-0.6014699339866638,-0.8294585347175598,-0.29848507046699524,-0.2772138714790344,-0.25372186303138733,-2.6523962020874023
167,96651,96652,-0.4182005524635315,-0.07671648263931274,1.0658864974975586,11.092806816101074,-19.403940200805664,-7.351596355438232,-0.6059696674346924,-0.8339582681655884,-0.29998499155044556,-0.3837932050228119,-0.15069396793842316,-2.6883068084716797
168,96661,96662,-0.9832924604415894,-0.09972138702869415,0.9952403903007507,16.425487518310547,-24.25240707397461,-9.089017868041992,-0.6074696183204651,-0.8204589486122131,-0.29848507046699524,-0.06150064617395401,0.02425135299563408,-2.787301540374756
169,96671,96672,-1.1561614274978638,-0.052181269973516464,0.9634052515029907,17.004817962646484,-12.845669746398926,-10.329855918884277,-0.6119694113731384,-0.8219588994979858,-0.28798559308052063,0.08223674446344376,0.12122688442468643,-2.880424976348877
170,96681,96682,-0.9135817885398865,-0.13579197227954865,0.9573232531547546,16.781105041503906,-5.360193729400635,-11.234125137329102,-0.6044697761535645,-0.8174591064453125,-0.3014849126338959,0.21504059433937073,0.3509243130683899,-2.9861042499542236
171,96691,96692,-0.5252480506896973,-0.7138122916221619,0.8973708152770996,15.626209259033203,3.9091079235076904,-10.983861923217773,-0.5984700918197632,-0.8354582190513611,-0.2834858298301697,0.15935571491718292,0.5201507806777954,-3.0916078090667725
172,96701,96702,-0.04502609372138977,-0.3371879458427429,0.8102361559867859,15.503169059753418,10.24358081817627,-13.50271224975586,-0.6119694113731384,-0.8279585838317871,-0.28498575091362,0.10786125063896179,0.666655957698822,-3.20674991607666
173,96711,96712,-0.29706019163131714,-0.1278396099805832,0.9739493727684021,10.06861686706543,6.3487749099731445,-11.221633911132812,-0.6089695692062378,-0.8189590573310852,-0.29098543524742126,0.010120343416929245,0.8522788882255554,-3.3323981761932373
174,96721,96722,-0.43492934107780457,-0.5908650755882263,0.9824237823486328,9.234289169311523,1.378820776939392,-12.438703536987305,-0.6029698252677917,-0.8279585838317871,-0.2969851493835449,-0.09291533380746841,0.6992220878601074,-3.4571123123168945
175,96731,96732,-0.9516346454620361,-0.6683878898620605,0.9860990643501282,7.132709503173828,-5.751389026641846,-9.23680305480957,-0.5969701409339905,-0.8159592151641846,-0.2939853072166443,-0.0548168383538723,0.8198540806770325,-3.5748450756073
176,96741,96742,-0.542756199836731,-0.332942932844162,0.9471946358680725,11.830300331115723,-4.827075958251953,-9.931838989257812,-0.5894705057144165,-0.844457745552063,-0.2954852283000946,-0.003853717353194952,0.7126349806785583,-3.6693456172943115
177,96751,96752,-0.18372729420661926,-0.14744943380355835,0.937769889831543,14.036574363708496,-11.588314056396484,-6.635395526885986,-0.6089695692062378,-0.836958110332489,-0.29998499155044556,0.1895183026790619,0.9023417830467224,-3.751269817352295
178,96761,96762,-0.11935240030288696,0.05986688658595085,1.0258448123931885,20.86048698425293,-20.24422836303711,-5.457787990570068,-0.6104694604873657,-0.8324583768844604,-0.29848507046699524,0.41793450713157654,1.2262097597122192,-3.81333065032959
179,96771,96772,-0.1479102373123169,-0.32319456338882446,0.9834973216056824,20.232511520385742,-29.019094467163086,-2.3421902656555176,-0.6044697761535645,-0.844457745552063,-0.3014849126338959,0.6255149841308594,1.4724905490875244,-3.860109806060791
180,96781,96782,-0.18264946341514587,-0.20932336151599884,0.9233699440956116,15.255531311035156,-32.93181228637695,-1.7294070720672607,-0.5954701900482178,-0.8264586329460144,-0.30748462677001953,1.0865176916122437,1.7212446928024292,-3.877819299697876
181,96791,96792,-0.48631027340888977,-0.32868415117263794,0.9265127778053284,13.473671913146973,-37.75774002075195,0.6250022649765015,-0.5924703478813171,-0.8414579033851624,-0.30748462677001953,1.426133394241333,1.6967750787734985,-3.886894702911377
182,96801,96802,-0.27852994203567505,-0.1927415430545807,1.0109587907791138,5.932382583618164,-22.419437408447266,1.6945984363555908,-0.5864706635475159,-0.8474575877189636,-0.3014849126338959,1.5432813167572021,1.6809499263763428,-3.900430202484131
183,96811,96812,-0.041007936000823975,-0.018961841240525246,0.9662604928016663,7.2358927726745605,-9.860377311706543,1.859925389289856,-0.5939702987670898,-0.8399580121040344,-0.3029848337173462,1.761759638786316,1.8225699663162231,-3.889173984527588
184,96821,96822,0.04744065925478935,0.08983714133501053,1.0749399662017822,2.1549832820892334,-2.2907824516296387,3.743121385574341,-0.6074696183204651,-0.844457745552063,-0.3134843111038208,1.7105671167373657,1.8907402753829956,-3.8876490592956543
185,96831,96832,-0.44192764163017273,0.04024286940693855,1.124955415725708,3.0245964527130127,5.074357032775879,0.737807035446167,-0.5879706144332886,-0.836958110332489,-0.3059847056865692,1.7246259450912476,1.9158216714859009,-3.8529069423675537
186,96841,96842,-0.28761035203933716,-0.3108263611793518,1.1095573902130127,11.741069793701172,4.215512752532959,2.863377571105957,-0.5864706635475159,-0.850457489490509,-0.3014849126338959,1.6288388967514038,1.9218826293945312,-3.8350768089294434
187,96851,96852,-0.23762072622776031,-0.1944284290075302,1.0542489290237427,13.084266662597656,15.503312110900879,1.3958135843276978,-0.5984700918197632,-0.8384580612182617,-0.3134843111038208,1.503746747970581,2.156154155731201,-3.834683895111084
188,96861,96862,-0.2417779117822647,-0.34275171160697937,0.9011306166648865,12.136375427246094,15.470357894897461,0.1385856568813324,-0.5999699831008911,-0.836958110332489,-0.3119843900203705,1.273419976234436,2.3135015964508057,-3.8358371257781982
189,96871,96872,-0.10558045655488968,-0.1824515014886856,0.8327190279960632,6.057991981506348,10.753460884094238,1.400681734085083,-0.5819708704948425,-0.8429578542709351,-0.29998499155044556,1.0775083303451538,2.336787223815918,-3.8226423263549805
190,96881,96882,-0.06841956824064255,-0.2501235008239746,0.8625475168228149,-4.644089221954346,12.853933334350586,3.0453953742980957,-0.5969701409339905,-0.8309584259986877,-0.2969851493835449,0.9893724918365479,2.443540334701538,-3.810436487197876
191,96891,96892,0.05386181175708771,-0.21298933029174805,0.9686605334281921,-9.493382453918457,11.94700813293457,5.037412643432617,-0.6044697761535645,-0.8414579033851624,-0.3014849126338959,0.8198328018188477,2.353764533996582,-3.772423028945923
192,96901,96902,-0.019814955070614815,-0.08939041197299957,1.0747404098510742,-20.561397552490234,8.170265197753906,8.49389934539795,-0.5984700918197632,-0.8384580612182617,-0.3134843111038208,0.7360690832138062,2.143364429473877,-3.6866884231567383
193,96911,96912,-0.14047746360301971,-0.0973486453294754,0.965783953666687,-20.626798629760742,3.02119779586792,9.175809860229492,-0.5984700918197632,-0.8384580612182617,-0.3014849126338959,0.6490110754966736,1.8771542310714722,-3.5903046131134033
194,96921,96922,-0.32430022954940796,-0.2585626542568207,0.8896005153656006,-20.08871078491211,-2.963013172149658,12.844615936279297,-0.5939702987670898,-0.8399580121040344,-0.3059847056865692,0.6702215671539307,1.607309103012085,-3.4626827239990234
195,96931,96932,-0.24966931343078613,-0.773147702217102,0.8332969546318054,-16.184720993041992,-1.0797624588012695,12.00753116607666,-0.5999699831008911,-0.851957380771637,-0.3119843900203705,0.7601289749145508,1.5045616626739502,-3.335064649581909
196,96941,96942,-0.5197449326515198,-0.6079069972038269,0.8775280117988586,-11.384510040283203,-10.723194122314453,15.274911880493164,-0.5924703478813171,-0.8384580612182617,-0.3014849126338959,0.8891263604164124,1.4239357709884644,-3.18959903717041
197,96951,96952,-0.7462128400802612,-0.10925260186195374,0.9671355485916138,-10.574241638183594,-3.028189182281494,14.81360149383545,-0.5969701409339905,-0.8399580121040344,-0.3059847056865692,1.076355218887329,1.3951252698898315,-3.0224828720092773
198,96961,96962,-0.18590614199638367,-0.027013979852199554,0.9752135276794434,-10.276588439941406,-2.6246166229248047,15.365134239196777,-0.5864706635475159,-0.844457745552063,-0.3014849126338959,1.002143144607544,1.2825474739074707,-2.903956651687622
199,96971,96972,-0.07150258123874664,-0.16769972443580627,0.9720515012741089,-11.625787734985352,7.361311435699463,14.089219093322754,-0.5984700918197632,-0.844457745552063,-0.3044847846031189,0.9518442153930664,1.145256757736206,-2.7676196098327637
200,96981,96982,-0.18289637565612793,0.04762330651283264,0.9392401576042175,-11.049494743347168,16.972211837768555,12.815780639648438,-0.5789710283279419,-0.8429578542709351,-0.3149842321872711,0.8206889629364014,0.9496673345565796,-2.620774030685425
201,96991,96992,-0.8682239055633545,-0.342039555311203,0.9590094685554504,-13.2993745803833,18.49836540222168,14.346975326538086,-0.5864706635475159,-0.8474575877189636,-0.31048446893692017,0.6162988543510437,1.0289372205734253,-2.547065019607544
202,97001,97002,-0.6140799522399902,-0.6671379208564758,1.0220026969909668,-7.869837284088135,7.038785934448242,15.002639770507812,-0.5804709792137146,-0.8384580612182617,-0.31948402523994446,0.44802090525627136,0.8321377038955688,-2.3940000534057617
203,97011,97012,-0.5721359252929688,-0.49735110998153687,1.015181303024292,-9.549323081970215,3.587135076522827,16.820960998535156,-0.5804709792137146,-0.8384580612182617,-0.31948402523994446,0.40206605195999146,0.828893780708313,-2.254615068435669
204,97021,97022,-0.3030833303928375,-0.25705352425575256,1.0647213459014893,-11.76798152923584,0.5088962316513062,12.549488067626953,-0.5804709792137146,-0.8384580612182617,-0.31948402523994446,0.427590936422348,0.7746890187263489,-2.1015024185180664
205,97031,97032,-0.26068976521492004,-0.557357668876648,0.9334589838981628,-13.536884307861328,-12.247865676879883,15.754049301147461,-0.5804709792137146,-0.8384580612182617,-0.31948402523994446,0.5492936372756958,0.614151120185852,-1.9410220384597778
206,97041,97042,-0.028763489797711372,-0.14051799476146698,1.0121511220932007,-15.188676834106445,-9.679305076599121,11.604710578918457,-0.5879706144332886,-0.8339582681655884,-0.3149842321872711,0.7965748310089111,0.5070251226425171,-1.7733923196792603
207,97051,97052,-0.14667639136314392,-0.02519831620156765,1.0162211656570435,-18.716876983642578,-13.873772621154785,9.89363956451416,-0.5714713931083679,-0.8474575877189636,-0.3044847846031189,0.9494501352310181,0.2845507264137268,-1.6435421705245972
208,97061,97062,-0.20548886060714722,-0.24651837348937988,1.040827989578247,-28.136856079101562,2.8775346279144287,5.152358531951904,-0.5864706635475159,-0.8474575877189636,-0.30748462677001953,0.9611570835113525,0.031997401267290115,-1.5735394954681396
209,97071,97072,-0.0664551854133606,-0.1636371910572052,1.0057522058486938,-30.78565788269043,13.212890625,1.6959257125854492,-0.577471137046814,-0.844457745552063,-0.3164841830730438,0.7741642594337463,-0.34882959723472595,-1.547853946685791
210,97081,97082,-0.2000959813594818,-0.2749916911125183,1.0487675666809082,-25.722061157226562,19.5311222076416,-2.301081895828247,-0.5834708213806152,-0.8264586329460144,-0.28948551416397095,0.5157231092453003,-0.49210473895072937,-1.5882866382598877
211,97091,97092,-0.41305994987487793,-0.4102400243282318,1.0585384368896484,-10.617152214050293,15.0732421875,-3.8012263774871826,-0.5849707126617432,-0.8309584259986877,-0.3059847056865692,0.2014346569776535,-0.7825002074241638,-1.6224143505096436
212,97101,97102,-0.5396024584770203,-0.5380980372428894,1.0193243026733398,-3.3034474849700928,15.350872039794922,-5.237156391143799,-0.5804709792137146,-0.8294585347175598,-0.3014849126338959,0.09846066683530807,-0.7348519563674927,-1.678903579711914
213,97111,97112,-0.22985008358955383,-0.433544784784317,0.9934307336807251,13.762059211730957,-3.7734057903289795,-4.038890361785889,-0.5924703478813171,-0.8204589486122131,-0.29848507046699524,0.04146730527281761,-0.7113122344017029,-1.7291269302368164
214,97121,97122,-0.2805025279521942,-0.3729442358016968,1.0201314687728882,16.774511337280273,-8.74797248840332,-6.807674407958984,-0.5849707126617432,-0.8249587416648865,-0.3029848337173462,0.15243642032146454,-0.49272972345352173,-1.786236047744751
215,97131,97132,-0.22519566118717194,-0.5031588077545166,1.037933111190796,17.977977752685547,-18.52552032470703,-7.724864959716797,-0.5969701409339905,-0.8309584259986877,-0.3029848337173462,0.3813842535018921,-0.2305113524198532,-1.8600894212722778
216,97141,97142,-0.7460148334503174,-0.34456491470336914,1.0097029209136963,13.028194427490234,-19.81317138671875,-10.62228775024414,-0.6074696183204651,-0.8294585347175598,-0.30748462677001953,0.7137838006019592,-0.08344041556119919,-1.9427812099456787
217,97151,97152,-0.3405954837799072,-0.3700784146785736,0.9891403317451477,11.53421688079834,-25.93990707397461,-10.241255760192871,-0.5789710283279419,-0.8429578542709351,-0.29098543524742126,1.0683554410934448,0.06829700618982315,-2.0492382049560547
218,97161,97162,-0.24121324717998505,-0.3971983790397644,0.9322189688682556,1.7188036441802979,-10.43769645690918,-10.50013542175293,-0.5879706144332886,-0.8339582681655884,-0.29998499155044556,1.173691749572754,-0.0557432696223259,-2.12859845161438
219,97171,97172,-0.10949232429265976,-0.2736693322658539,0.917637050151825,-0.9517369270324707,0.9748237729072571,-10.440320014953613,-0.5894705057144165,-0.8384580612182617,-0.28948551416397095,1.1099668741226196,-0.008912526071071625,-2.233794689178467
220,97181,97182,-0.13508714735507965,-0.2790389657020569,0.9295751452445984,-7.5892181396484375,16.116357803344727,-9.071715354919434,-0.5939702987670898,-0.8249587416648865,-0.29098543524742126,0.9731031656265259,-0.10965988039970398,-2.323403835296631
221,97191,97192,-0.22623729705810547,-0.2726772129535675,0.8706225156784058,-10.318299293518066,38.366294860839844,-9.965914726257324,-0.5879706144332886,-0.8219588994979858,-0.2939853072166443,0.5905119776725769,-0.22422383725643158,-2.41326642036438
222,97201,97202,-0.07309428602457047,-0.4044545292854309,0.9676522612571716,-13.911020278930664,35.360191345214844,-8.31588363647461,-0.5924703478813171,-0.8294585347175598,-0.29848507046699524,0.10091277211904526,-0.4405064284801483,-2.489527702331543
223,97211,97212,-0.14605268836021423,-0.2523414194583893,1.0086814165115356,-13.888416290283203,41.39068603515625,-8.6044282913208,-0.5789710283279419,-0.8249587416648865,-0.29998499155044556,-0.22157390415668488,-0.25498488545417786,-2.612426519393921
224,97221,97222,-0.6474249362945557,-0.0906059518456459,0.9918574690818787,-9.475720405578613,22.27393913269043,-7.447531223297119,-0.5969701409339905,-0.836958110332489,-0.29098543524742126,-0.58384770154953,-0.49531593918800354,-2.6809022426605225
225,97231,97232,-0.47012487053871155,-0.020483478903770447,1.0654007196426392,-4.138923645019531,1.896511435508728,-6.625154495239258,-0.5954701900482178,-0.8354582190513611,-0.2954852283000946,-0.5981325507164001,-0.6369436979293823,-2.7464957237243652
226,97241,97242,-0.25128310918807983,-0.2904566526412964,1.125754714012146,3.83305025100708,-18.361589431762695,-3.085418224334717,-0.5834708213806152,-0.8234587907791138,-0.29848507046699524,-0.5290589332580566,-0.589599609375,-2.8041083812713623
227,97251,97252,-0.2003825306892395,-0.5739817023277283,0.9893921613693237,19.36794662475586,-25.822710037231445,-0.3935697674751282,-0.5984700918197632,-0.8294585347175598,-0.31048446893692017,-0.23327888548374176,-0.48306751251220703,-2.8292953968048096
228,97261,97262,-0.27651286125183105,-0.33317986130714417,0.8927724361419678,14.036664962768555,-22.32024574279785,3.510993242263794,-0.5999699831008911,-0.836958110332489,-0.2939853072166443,0.12076659500598907,-0.26816195249557495,-2.813382863998413
229,97271,97272,-0.11029023677110672,-0.02464648336172104,0.9726665616035461,15.656542778015137,-32.9052619934082,7.807997703552246,-0.5864706635475159,-0.8324583768844604,-0.30748462677001953,0.46162867546081543,-0.05784386768937111,-2.7611656188964844
230,97281,97282,-0.007473600097000599,-0.19697648286819458,1.0389896631240845,8.491964340209961,-29.566699981689453,11.286993026733398,-0.5849707126617432,-0.8399580121040344,-0.3149842321872711,0.7545353174209595,0.12438663840293884,-2.6674952507019043
231,97291,97292,-0.03919940069317818,-0.3077514171600342,1.0230317115783691,8.571505546569824,-33.361392974853516,15.666069984436035,-0.5819708704948425,-0.8489575386047363,-0.3029848337173462,1.2274664640426636,0.2353876233100891,-2.550090789794922
232,97301,97302,-0.24496330320835114,-0.11175010353326797,1.0691256523132324,-0.9646756052970886,-24.424171447753906,20.734376907348633,-0.5819708704948425,-0.8339582681655884,-0.3029848337173462,1.5043903589248657,0.28724339604377747,-2.375223398208618
233,97311,97312,-0.3902970254421234,0.08651631325483322,1.11932373046875,-5.668665885925293,-12.307172775268555,21.617103576660156,-0.577471137046814,-0.8354582190513611,-0.3224838674068451,1.5938897132873535,0.19738394021987915,-2.155061960220337
234,97321,97322,-0.10449972748756409,-0.08346188068389893,1.0769251585006714,-10.699334144592285,-5.9315338134765625,25.107616424560547,-0.5744712948799133,-0.844457745552063,-0.3134843111038208,1.6902436017990112,0.03292718902230263,-1.9197731018066406
235,97331,97332,-0.42268240451812744,-0.03197378292679787,1.10189950466156,-18.784626007080078,15.382251739501953,25.010812759399414,-0.5789710283279419,-0.8219588994979858,-0.2939853072166443,1.66087806224823,-0.1716511994600296,-1.6677623987197876
236,97341,97342,-0.5280957221984863,0.03340991958975792,1.1101206541061401,-24.318880081176758,31.327463150024414,24.33893394470215,-0.5804709792137146,-0.8174591064453125,-0.29848507046699524,1.2893832921981812,-0.5584254264831543,-1.3933665752410889
237,97351,97352,-0.1735777109861374,0.18153376877307892,1.129309892654419,-23.500394821166992,41.065155029296875,24.689315795898438,-0.5804709792137146,-0.8204589486122131,-0.2954852283000946,0.8387883901596069,-0.4950110912322998,-1.186482548713684
238,97361,97362,-0.15637558698654175,0.07950453460216522,1.1029781103134155,-24.256065368652344,47.710723876953125,22.132335662841797,-0.5819708704948425,-0.8189590573310852,-0.2939853072166443,0.260773628950119,-0.8353380560874939,-0.9364600777626038
239,97371,97372,-0.29669907689094543,0.09955935180187225,1.0841245651245117,-21.410188674926758,41.06066131591797,19.877975463867188,-0.5939702987670898,-0.8099594712257385,-0.3059847056865692,-0.17792871594429016,-1.1071386337280273,-0.7291705012321472
240,97381,97382,-0.20631425082683563,0.07482870668172836,1.0555955171585083,-21.07048988342285,26.620849609375,19.852699279785156,-0.6089695692062378,-0.8069596290588379,-0.28198590874671936,-0.43954503536224365,-1.3342679738998413,-0.5428920984268188
241,97391,97392,-0.0668632760643959,0.02384360507130623,1.0176358222961426,-10.799010276794434,4.581634044647217,18.34906768798828,-0.6089695692062378,-0.8009599447250366,-0.2759861946105957,-0.5779935717582703,-1.4996509552001953,-0.3552400469779968
242,97401,97402,-0.03536004573106766,-0.017677277326583862,0.9939807057380676,-4.907173156738281,-11.420073509216309,21.086137771606445,-0.6044697761535645,-0.7934603095054626,-0.28948551416397095,-0.40420767664909363,-1.657006859779358,-0.17025981843471527
243,97411,97412,-0.10314321517944336,-0.1303025484085083,1.052422046661377,4.259756088256836,-20.554237365722656,20.606948852539062,-0.6059696674346924,-0.7889605164527893,-0.28198590874671936,-0.11483724415302277,-1.6767866611480713,0.034953899681568146
244,97421,97422,0.014332471415400505,-0.0016817463329061866,0.9657607674598694,12.822550773620605,-35.3782958984375,23.12038803100586,-0.5894705057144165,-0.7934603095054626,-0.2834858298301697,0.13328710198402405,-1.5628416538238525,0.27108627557754517
245,97431,97432,-0.4944099485874176,-0.3304472267627716,1.0009962320327759,15.459068298339844,-40.181217193603516,25.39451789855957,-0.5909704566001892,-0.8099594712257385,-0.27898603677749634,0.6023805737495422,-1.3418174982070923,0.5069288015365601
246,97441,97442,-0.1662420779466629,-0.27135276794433594,0.9246401786804199,15.70716667175293,-30.606807708740234,26.0853214263916,-0.5864706635475159,-0.8084595799446106,-0.28048595786094666,0.9777054786682129,-1.0993387699127197,0.7693331837654114
247,97451,97452,-0.0562007836997509,0.004455578979104757,0.9507572054862976,16.409025192260742,-14.022052764892578,25.877094268798828,-0.5939702987670898,-0.7919603586196899,-0.27898603677749634,1.3384456634521484,-0.8632795810699463,1.00752854347229
248,97461,97462,-0.07434640824794769,0.03480050712823868,0.9303606748580933,12.209543228149414,10.22545051574707,24.868488311767578,-0.5849707126617432,-0.797960102558136,-0.29098543524742126,1.2951123714447021,-0.6561570167541504,1.2755416631698608
249,97471,97472,-0.3491940498352051,-0.06029552221298218,0.962742269039154,5.134110450744629,30.611854553222656,23.625213623046875,-0.5849707126617432,-0.8129593133926392,-0.2759861946105957,0.9620412588119507,-0.536824643611908,1.541757345199585
250,97481,97482,-0.22202758491039276,-0.20958562195301056,0.9547512531280518,-2.5252721309661865,43.19072723388672,22.2921142578125,-0.6074696183204651,-0.8084595799446106,-0.2864856719970703,0.5550175905227661,-0.8036683201789856,1.788116455078125
251,97491,97492,-0.24142448604106903,-0.23235996067523956,0.9717487096786499,-10.381735801696777,49.981658935546875,19.880615234375,-0.5879706144332886,-0.8069596290588379,-0.27898603677749634,-0.22113464772701263,-0.9743786454200745,2.059441328048706
252,97501,97502,-0.05474162474274635,-0.0681554302573204,0.9303253889083862,-14.400875091552734,45.046592712402344,16.213342666625977,-0.5804709792137146,-0.8144592642784119,-0.2834858298301697,-0.5052980184555054,-0.8941479921340942,2.196934461593628
253,97511,97512,-0.473665326833725,0.06255879253149033,0.9187712073326111,-13.883004188537598,30.398387908935547,13.313005447387695,-0.5909704566001892,-0.8099594712257385,-0.27898603677749634,-0.987695038318634,-1.2728804349899292,2.375905752182007
254,97521,97522,-0.3341917395591736,-0.00857461802661419,0.9534099698066711,-6.388613224029541,7.921560764312744,11.383116722106934,-0.5969701409339905,-0.7919603586196899,-0.28198590874671936,-1.0475836992263794,-1.3704626560211182,2.4753239154815674
255,97531,97532,-0.07328440994024277,-0.14989417791366577,0.9172361493110657,-2.0019371509552,-3.3950984477996826,7.5832648277282715,-0.5984700918197632,-0.80545973777771,-0.2834858298301697,-1.112604022026062,-1.432849645614624,2.582003593444824
256,97541,97542,-0.01960059627890587,-0.21266938745975494,0.8796674013137817,5.561028957366943,-13.397525787353516,3.0691099166870117,-0.5954701900482178,-0.8114594221115112,-0.28948551416397095,-0.9299383163452148,-1.384917140007019,2.6252331733703613
257,97551,97552,-0.035650502890348434,-0.02857719175517559,0.94649738073349,6.308407306671143,-21.635854721069336,0.6406858563423157,-0.5924703478813171,-0.8024598360061646,-0.2834858298301697,-0.6644620299339294,-1.2679530382156372,2.6348683834075928
258,97561,97562,-0.06867112219333649,0.0546836331486702,0.9313421845436096,4.0552897453308105,-31.334243774414062,-1.2468886375427246,-0.5909704566001892,-0.8159592151641846,-0.29998499155044556,-0.27030426263809204,-1.254374384880066,2.601489782333374
259,97571,97572,-0.1025175228714943,0.03651604428887367,0.9645989537239075,0.7401077151298523,-26.700788497924805,-4.236117839813232,-0.5654717087745667,-0.8294585347175598,-0.2954852283000946,-0.12262748926877975,-1.2637537717819214,2.6036832332611084
260,97581,97582,-0.07405755668878555,0.050739437341690063,0.9680685997009277,-0.713179349899292,-13.207151412963867,-8.375357627868652,-0.5819708704948425,-0.8159592151641846,-0.2969851493835449,0.13822658360004425,-1.2398321628570557,2.538465738296509
261,97591,97592,-0.0033703683875501156,0.19529767334461212,0.9813643097877502,1.7385201454162598,-0.7822242379188538,-11.018989562988281,-0.562471866607666,-0.8204589486122131,-0.2954852283000946,0.2627154290676117,-1.2314316034317017,2.4409525394439697
262,97601,97602,-0.07312130928039551,-0.0328960195183754,1.0117673873901367,8.157221794128418,10.188448905944824,-10.561169624328613,-0.577471137046814,-0.8354582190513611,-0.3044847846031189,0.1746242344379425,-1.2150681018829346,2.3416061401367188
263,97611,97612,-0.07431023567914963,-0.3426564931869507,0.9417665004730225,16.371641159057617,24.055156707763672,-11.252739906311035,-0.5744712948799133,-0.8354582190513611,-0.2954852283000946,-0.11856506019830704,-1.134657382965088,2.257723569869995
264,97621,97622,-0.26231956481933594,-0.7608998417854309,0.9485251903533936,24.74972915649414,29.813175201416016,-10.76612377166748,-0.5834708213806152,-0.8354582190513611,-0.2924853563308716,-0.4461207389831543,-0.8628108501434326,2.1606502532958984
265,97631,97632,-0.34863516688346863,-0.5450097322463989,1.010677456855774,24.245168685913086,32.80027389526367,-9.98232650756836,-0.5744712948799133,-0.850457489490509,-0.2924853563308716,-0.9786046743392944,-0.5142572522163391,2.1036696434020996
266,97641,97642,-0.30323007702827454,-0.16323627531528473,1.0641400814056396,25.31396484375,31.15033531188965,-12.195087432861328,-0.5804709792137146,-0.844457745552063,-0.2924853563308716,-1.2969006299972534,-0.43024325370788574,1.9712175130844116
267,97651,97652,-0.19052694737911224,-0.3315297067165375,1.0359365940093994,25.20416259765625,16.589542388916016,-12.03714656829834,-0.5804709792137146,-0.8474575877189636,-0.3044847846031189,-1.533934473991394,-0.20996403694152832,1.8343279361724854
268,97661,97662,-0.04985394701361656,-0.12822473049163818,0.9948936700820923,16.794523239135742,12.467205047607422,-14.375935554504395,-0.5879706144332886,-0.8429578542709351,-0.30898454785346985,-1.656575083732605,0.02590242587029934,1.6949368715286255
269,97671,97672,-0.3068545162677765,-0.15853136777877808,1.0336802005767822,10.259049415588379,-3.915494680404663,-14.123795509338379,-0.5819708704948425,-0.8459576964378357,-0.29998499155044556,-1.7919921875,0.07701198011636734,1.5511776208877563
270,97681,97682,-0.1978447586297989,-0.42597734928131104,0.9544060230255127,-5.326181888580322,-16.36745262145996,-12.042181015014648,-0.5939702987670898,-0.836958110332489,-0.3149842321872711,-1.5236625671386719,0.08826859295368195,1.3851988315582275
271,97691,97692,-0.15635035932064056,-0.4224649667739868,0.8949741721153259,-9.44359016418457,-33.94602966308594,-11.449580192565918,-0.5924703478813171,-0.844457745552063,-0.29848507046699524,-1.2304693460464478,-0.013617891818284988,1.2609548568725586
272,97701,97702,-0.12284346669912338,-0.27269503474235535,0.8926219344139099,-16.255868911743164,-43.755706787109375,-8.090447425842285,-0.5804709792137146,-0.8474575877189636,-0.29848507046699524,-0.688389778137207,-0.18243283033370972,1.1367288827896118
273,97711,97712,-0.09950273483991623,-0.2242421954870224,0.9360138177871704,-8.532879829406738,-48.706809997558594,-6.698117733001709,-0.5804709792137146,-0.8474575877189636,-0.3044847846031189,-0.18212109804153442,-0.3742838203907013,1.0504913330078125
274,97721,97722,-0.3342660069465637,-0.3253021538257599,0.948215901851654,-0.4164550006389618,-47.75868606567383,0.18391457200050354,-0.5639718174934387,-0.851957380771637,-0.30898454785346985,0.296930193901062,-0.4213005006313324,1.0162968635559082
275,97731,97732,-0.5349235534667969,-0.0455329455435276,0.9952821135520935,14.103904724121094,-30.784603118896484,1.3607196807861328,-0.562471866607666,-0.8474575877189636,-0.30748462677001953,0.8080081939697266,-0.2191525548696518,1.0359047651290894
276,97741,97742,-0.8289939165115356,0.060465503484010696,1.0482114553451538,23.743772506713867,-20.575376510620117,5.976767539978027,-0.5714713931083679,-0.8564571738243103,-0.31048446893692017,1.153489351272583,0.11174469441175461,1.0820834636688232
277,97751,97752,-0.49740999937057495,-0.040860019624233246,1.0961295366287231,21.33946990966797,4.328737735748291,5.286994934082031,-0.5564721822738647,-0.8654567003250122,-0.31048446893692017,1.2516356706619263,0.4547804892063141,1.154587745666504
278,97761,97762,-0.05107777565717697,-0.05242711678147316,1.0324567556381226,22.680688858032227,14.287901878356934,6.445693016052246,-0.56997150182724,-0.8639568090438843,-0.31798410415649414,0.7272948026657104,0.41805514693260193,1.2274302244186401
279,97771,97772,-0.04493669793009758,-0.07701914012432098,1.0428504943847656,19.087980270385742,23.242685317993164,8.67837142944336,-0.5759711861610413,-0.8669566512107849,-0.30898454785346985,0.4736863970756531,0.5263051390647888,1.2992217540740967
280,97781,97782,-0.18723011016845703,-0.09517335146665573,1.0861351490020752,12.992262840270996,27.3414249420166,6.152806282043457,-0.5714713931083679,-0.8594570159912109,-0.3164841830730438,0.029634101316332817,0.7719631195068359,1.3907275199890137
281,97791,97792,-0.2564803957939148,-0.039618100970983505,1.0634669065475464,5.593028545379639,23.584409713745117,4.558889865875244,-0.5804709792137146,-0.8564571738243103,-0.3224838674068451,-0.1943735033273697,0.8355382084846497,1.4458240270614624
282,97801,97802,-0.20741969347000122,0.03980980068445206,1.0744576454162598,-0.7817092537879944,15.820582389831543,4.833062171936035,-0.56997150182724,-0.8489575386047363,-0.31798410415649414,-0.5156214833259583,0.8525853753089905,1.4929592609405518
283,97811,97812,-0.23259523510932922,0.19955623149871826,1.0991648435592651,1.4953200817108154,10.971342086791992,-0.4317541718482971,-0.5744712948799133,-0.8534573316574097,-0.3134843111038208,-0.48380547761917114,0.812450110912323,1.5199015140533447
284,97821,97822,-0.44064366817474365,0.053534939885139465,1.0290807485580444,0.8938755989074707,-1.7951931953430176,0.9018656015396118,-0.5834708213806152,-0.8534573316574097,-0.31948402523994446,-0.5394894480705261,0.868887186050415,1.5255621671676636
285,97831,97832,-0.18738093972206116,-0.04513096064329147,1.081807017326355,0.8969735503196716,-3.7520740032196045,-1.5120680332183838,-0.5759711861610413,-0.8399580121040344,-0.3149842321872711,-0.3567282259464264,0.8652235865592957,1.5298182964324951
286,97841,97842,0.0785975530743599,-0.17043454945087433,1.0485904216766357,-2.8940589427948,-18.1783447265625,-0.38848498463630676,-0.5789710283279419,-0.8489575386047363,-0.29098543524742126,-0.23987607657909393,0.8318395614624023,1.5164530277252197
287,97851,97852,-0.06897451728582382,-0.21921710669994354,1.052411437034607,-13.986410140991211,-11.039586067199707,0.39216864109039307,-0.5684715509414673,-0.8474575877189636,-0.3044847846031189,-0.05494115874171257,0.6293067932128906,1.5034284591674805
288,97861,97862,-0.11450741440057755,-0.0373229905962944,1.0390194654464722,-14.540565490722656,-3.461596727371216,0.17731976509094238,-0.5819708704948425,-0.8279585838317871,-0.3119843900203705,0.057223353534936905,0.4970290958881378,1.506339430809021
289,97871,97872,-0.13784931600093842,0.0037344684824347496,1.0860662460327148,-14.412473678588867,5.877956867218018,1.0979894399642944,-0.5759711861610413,-0.8339582681655884,-0.3029848337173462,0.029420625418424606,0.5036440491676331,1.5186456441879272
290,97881,97882,-0.09482897818088531,-0.012647278606891632,1.0639454126358032,-7.347759246826172,11.208991050720215,-1.8414833545684814,-0.5759711861610413,-0.8339582681655884,-0.3029848337173462,-0.10599531978368759,0.3312944173812866,1.5024465322494507
291,97891,97892,-0.01779087446630001,-0.09473174810409546,1.0237823724746704,0.8596362471580505,13.616499900817871,-2.782177686691284,-0.5759711861610413,-0.8339582681655884,-0.3029848337173462,-0.28746262192726135,0.2975742816925049,1.4760878086090088
292,97901,97902,-0.11743830144405365,-0.30254897475242615,1.0687848329544067,9.50574779510498,11.090340614318848,-5.022907733917236,-0.5759711861610413,-0.8339582681655884,-0.3029848337173462,-0.4451409578323364,0.4121549427509308,1.4381017684936523
293,97911,97912,-0.051974933594465256,-0.26600828766822815,1.0483214855194092,23.735363006591797,-8.176189422607422,-1.463608741760254,-0.5759711861610413,-0.8279585838317871,-0.29998499155044556,-0.2753947675228119,0.6931727528572083,1.4319239854812622
294,97921,97922,-0.13258223235607147,-0.2818586528301239,1.0554546117782593,32.525169372558594,-7.703958034515381,-3.33514404296875,-0.5804709792137146,-0.8414579033851624,-0.30748462677001953,-0.22391001880168915,1.0217883586883545,1.4030746221542358
295,97931,97932,-0.382632315158844,-0.1374339610338211,1.0411549806594849,40.69869613647461,-16.18157386779785,-2.593125581741333,-0.5849707126617432,-0.8399580121040344,-0.3119843900203705,-0.0567297488451004,1.3434925079345703,1.3718973398208618
296,97941,97942,-0.3133443593978882,-0.035107165575027466,1.0320484638214111,34.27912521362305,-11.534100532531738,-3.42496657371521,-0.5864706635475159,-0.8414579033851624,-0.30748462677001953,0.15290820598602295,1.636436939239502,1.338573694229126
297,97951,97952,-0.08993934094905853,-0.003566220635548234,1.0737625360488892,21.163070678710938,-6.284552097320557,-2.384180784225464,-0.5939702987670898,-0.8579570651054382,-0.3149842321872711,0.3073572814464569,1.9410134553909302,1.310547113418579
298,97961,97962,-0.009526452980935574,-0.4144805669784546,1.0566078424453735,4.083583354949951,-4.998809814453125,-0.8206174969673157,-0.5879706144332886,-0.8429578542709351,-0.3119843900203705,0.3829343616962433,1.9134715795516968,1.2827613353729248
299,97971,97972,-0.042274825274944305,-0.3259691596031189,1.0844835042953491,-18.396581649780273,2.1050705909729004,-1.0321297645568848,-0.5924703478813171,-0.8414579033851624,-0.3014849126338959,0.30947431921958923,1.8602557182312012,1.2539302110671997
300,97981,97982,-0.14001892507076263,-0.052950140088796616,1.1096187829971313,-35.07240295410156,11.316034317016602,-3.731959581375122,-0.5864706635475159,-0.844457745552063,-0.31048446893692017,0.20398733019828796,1.475158929824829,1.2146031856536865
301,97991,97992,-0.1825261414051056,0.09490995109081268,1.0743516683578491,-37.50358200073242,23.087310791015625,-6.915028095245361,-0.5849707126617432,-0.8309584259986877,-0.30898454785346985,0.031093163415789604,1.1097835302352905,1.1589829921722412
302,98001,98002,-0.5608288645744324,-0.1647782325744629,1.0642993450164795,-34.032283782958984,19.18838119506836,-8.586905479431152,-0.5894705057144165,-0.8264586329460144,-0.29848507046699524,-0.24400576949119568,0.6845526099205017,1.0693587064743042
303,98011,98012,-0.5225727558135986,-0.7713665962219238,0.9808589220046997,-25.881990432739258,24.469234466552734,-11.646648406982422,-0.5759711861610413,-0.8219588994979858,-0.28798559308052063,-0.4752154052257538,0.5033043026924133,0.96867436170578
304,98021,98022,-0.5736302733421326,-0.5316728949546814,0.9865835309028625,-7.3863348960876465,13.321091651916504,-12.89622688293457,-0.5969701409339905,-0.8099594712257385,-0.3059847056865692,-0.6381165981292725,0.2359924465417862,0.8522256016731262
305,98031,98032,-0.45681262016296387,-0.19199658930301666,1.0596961975097656,7.146233558654785,19.28954315185547,-15.453667640686035,-0.5999699831008911,-0.8129593133926392,-0.2939853072166443,-0.7249308824539185,0.4498123228549957,0.738300621509552
306,98041,98042,-0.7460135817527771,-0.3758715093135834,0.9724333882331848,19.52194595336914,12.65249252319336,-15.881543159484863,-0.6029698252677917,-0.8219588994979858,-0.28798559308052063,-0.9863414764404297,0.6685337424278259,0.5730242729187012
307,98051,98052,-0.6804723739624023,-0.49136611819267273,1.005513072013855,24.334209442138672,12.018232345581055,-15.352738380432129,-0.6014699339866638,-0.8114594221115112,-0.28948551416397095,-1.171878695487976,1.0316503047943115,0.41989535093307495
308,98061,98062,-0.5629335045814514,-0.05333228036761284,1.050561785697937,26.134037017822266,7.518131732940674,-16.75426483154297,-0.6074696183204651,-0.8234587907791138,-0.2954852283000946,-1.2326202392578125,1.2273592948913574,0.262942373752594
309,98071,98072,-0.19813282787799835,-0.005021939519792795,0.9924430251121521,19.003406524658203,-7.762154579162598,-14.21941089630127,-0.6074696183204651,-0.8354582190513611,-0.2864856719970703,-1.163417100906372,1.4706307649612427,0.11915954202413559
310,98081,98082,-0.04457680508494377,-0.19964580237865448,0.9782306551933289,8.985457420349121,-20.238571166992188,-12.342710494995117,-0.6194689869880676,-0.8204589486122131,-0.29848507046699524,-0.9530133605003357,1.6455167531967163,-0.002893565921112895
311,98091,98092,-0.13351480662822723,-0.438525527715683,0.9260650873184204,-4.113959312438965,-33.43339920043945,-8.027276039123535,-0.5984700918197632,-0.8234587907791138,-0.2924853563308716,-0.5692765712738037,1.6982035636901855,-0.09072210639715195
312,98101,98102,-0.3492322564125061,-0.7855089902877808,1.0031543970108032,-21.267990112304688,-30.735776901245117,-5.5505852699279785,-0.5894705057144165,-0.8234587907791138,-0.3014849126338959,-0.1292182058095932,1.4178056716918945,-0.1603723019361496
313,98111,98112,-0.14784899353981018,-0.2908114790916443,1.0445506572723389,-36.518680572509766,-27.095169067382812,-3.7290236949920654,-0.5819708704948425,-0.8279585838317871,-0.2969851493835449,0.13217954337596893,1.041754961013794,-0.23158982396125793
314,98121,98122,-0.1327139288187027,-0.11651396751403809,0.9465711712837219,-43.440120697021484,-22.506216049194336,-4.778441905975342,-0.5909704566001892,-0.8129593133926392,-0.29998499155044556,0.3233688175678253,0.4654179811477661,-0.3040572702884674
315,98131,98132,-0.2373410165309906,-0.23388691246509552,0.9371150732040405,-43.298583984375,0.11059553921222687,-0.9917234182357788,-0.5819708704948425,-0.8129593133926392,-0.29098543524742126,0.4254806935787201,0.3103173077106476,-0.317626416683197
316,98141,98142,-0.493884414434433,0.0028722018469125032,0.8338117003440857,-35.36370849609375,20.941991806030273,-1.3526341915130615,-0.5804709792137146,-0.8204589486122131,-0.29848507046699524,0.33620694279670715,-0.21267825365066528,-0.34292933344841003
317,98151,98152,-0.5222511291503906,-0.11079298704862595,0.8910630345344543,-24.02790641784668,29.53763771057129,0.8781905174255371,-0.5834708213806152,-0.80545973777771,-0.28948551416397095,0.026752371340990067,-0.70440673828125,-0.3713683485984802
318,98161,98162,-0.3030848503112793,-0.24658802151679993,0.9756616353988647,-12.068132400512695,43.900062561035156,-0.587263286113739,-0.6014699339866638,-0.80545973777771,-0.28048595786094666,-0.38481152057647705,-0.6700787544250488,-0.36517393589019775
319,98171,98172,-0.3798580765724182,-0.20615291595458984,0.903231680393219,0.5414891242980957,41.70609664916992,0.6494399905204773,-0.5984700918197632,-0.8114594221115112,-0.28948551416397095,-0.8500375151634216,-0.7174370288848877,-0.3751538097858429
320,98181,98182,-0.5058189630508423,-0.299298495054245,0.913307785987854,9.325200080871582,30.641944885253906,0.5479908585548401,-0.5969701409339905,-0.8219588994979858,-0.28798559308052063,-1.2276438474655151,-0.4463755190372467,-0.35863441228866577
321,98191,98192,-0.24703282117843628,-0.34495481848716736,1.0208345651626587,15.309713363647461,15.716058731079102,1.023906946182251,-0.6044697761535645,-0.8114594221115112,-0.2834858298301697,-1.487064242362976,-0.2041715383529663,-0.34826043248176575
322,98201,98202,-0.0322066992521286,-0.01647016406059265,0.9505928754806519,19.868993759155273,-2.014077663421631,1.8663513660430908,-0.6014699339866638,-0.8234587907791138,-0.28948551416397095,-1.6217979192733765,-0.010649270378053188,-0.33966970443725586
323,98211,98212,-0.23049554228782654,-0.023965798318386078,0.9902942776679993,15.721388816833496,-28.533689498901367,5.110055446624756,-0.6134693026542664,-0.8204589486122131,-0.29848507046699524,-1.3203754425048828,0.0501316599547863,-0.3130183219909668
324,98221,98222,-0.676813542842865,-0.38149234652519226,0.9828106760978699,8.508942604064941,-30.389144897460938,3.751246690750122,-0.6059696674346924,-0.8309584259986877,-0.2969851493835449,-0.8755144476890564,0.15996888279914856,-0.26020026206970215
325,98231,98232,-0.5722932815551758,-0.30190426111221313,0.9461555480957031,5.132676601409912,-35.689491271972656,3.9983839988708496,-0.5924703478813171,-0.8324583768844604,-0.2954852283000946,-0.5004293918609619,0.23595204949378967,-0.21982374787330627
326,98241,98242,-0.4412558376789093,-0.37948769330978394,0.9054486155509949,-7.5423455238342285,-28.846071243286133,5.498275279998779,-0.5924703478813171,-0.8354582190513611,-0.3014849126338959,-0.02285938709974289,0.20487213134765625,-0.1689748615026474
327,98251,98252,-0.186399906873703,-0.46609607338905334,0.8386754989624023,-12.780834197998047,-17.653779983520508,4.5008134841918945,-0.5909704566001892,-0.8339582681655884,-0.3029848337173462,0.1814194768667221,0.027185939252376556,-0.12606270611286163
328,98261,98262,-0.10803133994340897,-0.11151552200317383,0.8501742482185364,-15.806901931762695,-12.308703422546387,5.2002763748168945,-0.5789710283279419,-0.8309584259986877,-0.2939853072166443,0.2199016958475113,-0.15649911761283875,-0.08186458796262741
329,98271,98272,-0.48436614871025085,-0.13314612209796906,0.9434151649475098,-15.44306468963623,0.4656977653503418,3.5039875507354736,-0.5924703478813171,-0.8324583768844604,-0.3044847846031189,0.32357752323150635,-0.28552091121673584,-0.026981985196471214
330,98281,98282,-0.8467583060264587,-0.19799599051475525,1.0082440376281738,-5.689007759094238,7.260883808135986,2.5367112159729004,-0.5864706635475159,-0.8384580612182617,-0.3134843111038208,0.2345704883337021,-0.42594707012176514,0.005975604057312012
331,98291,98292,-0.47709670662879944,-0.5626653432846069,0.9123684763908386,1.8715119361877441,15.073028564453125,2.9536654949188232,-0.5744712948799133,-0.8294585347175598,-0.30748462677001953,0.030086111277341843,-0.27679646015167236,0.04333769902586937
332,98301,98302,-0.5828564167022705,-0.6446148157119751,0.9867174029350281,8.105721473693848,18.327274322509766,-0.2532128095626831,-0.5804709792137146,-0.8264586329460144,-0.3044847846031189,-0.2506707012653351,-0.3016897439956665,0.05074367672204971
333,98311,98312,-0.44581398367881775,-0.3101116120815277,0.9953905940055847,11.997629165649414,7.870089054107666,-1.1123400926589966,-0.5879706144332886,-0.8459576964378357,-0.29998499155044556,-0.4383459687232971,-0.16532723605632782,0.04278948903083801
334,98321,98322,-0.328091025352478,-0.27161741256713867,0.92462158203125,11.282135963439941,5.658074378967285,-4.974300861358643,-0.5834708213806152,-0.8474575877189636,-0.3044847846031189,-0.40270763635635376,-0.13895918428897858,0.00752059044316411
335,98331,98332,-0.4168967604637146,-0.37941357493400574,1.0224157571792603,7.679317951202393,-5.182591915130615,-5.341740608215332,-0.5879706144332886,-0.836958110332489,-0.3029848337173462,-0.41041868925094604,-0.26645946502685547,-0.05563146620988846
336,98341,98342,-0.3085766136646271,-0.41214054822921753,0.930812418460846,4.345245838165283,-8.931029319763184,-4.489165306091309,-0.5729713439941406,-0.8549572229385376,-0.3149842321872711,-0.29515835642814636,-0.16261714696884155,-0.10575354099273682
337,98351,98352,-0.24832159280776978,-0.18017631769180298,0.9160251021385193,5.95369815826416,-12.271244049072266,-4.101494312286377,-0.5849707126617432,-0.8399580121040344,-0.30898454785346985,-0.12553256750106812,-0.07712405174970627,-0.147062748670578
338,98361,98362,-0.23789019882678986,-0.12937085330486298,0.9561413526535034,-0.26624953746795654,-11.036940574645996,-0.7727977633476257,-0.5864706635475159,-0.8594570159912109,-0.3134843111038208,0.0437932088971138,-0.020870475098490715,-0.17258623242378235
339,98371,98372,-0.09839636832475662,-0.08738473057746887,0.987791895866394,0.6419832706451416,-2.561579704284668,-0.25133779644966125,-0.5759711861610413,-0.8579570651054382,-0.3149842321872711,0.07005061954259872,0.044256921857595444,-0.17174077033996582
340,98381,98382,-0.09623982012271881,-0.17408394813537598,1.0116229057312012,0.03882722929120064,-5.193848133087158,0.4174570143222809,-0.5819708704948425,-0.8489575386047363,-0.3149842321872711,0.07182172685861588,0.035721611231565475,-0.17054051160812378
341,98391,98392,-0.28228339552879333,-0.21901975572109222,1.0547460317611694,1.2958074808120728,1.0749839544296265,-2.905971050262451,-0.5759711861610413,-0.8489575386047363,-0.29998499155044556,0.04839971661567688,-0.042107224464416504,-0.17938148975372314
342,98401,98402,-0.2806560695171356,-0.28027331829071045,1.053406000137329,2.349428653717041,-4.927557945251465,-2.0992884635925293,-0.5654717087745667,-0.850457489490509,-0.30748462677001953,-0.0005028753075748682,-0.023616060614585876,-0.21024993062019348
343,98411,98412,-0.6208586096763611,-0.26390203833580017,1.0491222143173218,0.21761123836040497,2.6784889698028564,-4.093869686126709,-0.5939702987670898,-0.851957380771637,-0.30898454785346985,0.04802997037768364,-0.017173659056425095,-0.24196693301200867
344,98421,98422,-0.3530645966529846,-0.15520775318145752,1.0570847988128662,4.510770797729492,-4.855792045593262,-4.812543869018555,-0.5819708704948425,-0.8459576964378357,-0.3029848337173462,0.009556016884744167,-0.015270877629518509,-0.2906056046485901
345,98431,98432,-0.19549885392189026,-0.019557595252990723,1.1030181646347046,7.0809454917907715,6.659621238708496,-8.164684295654297,-0.577471137046814,-0.8474575877189636,-0.3014849126338959,-0.015140131115913391,0.07361230254173279,-0.3571271002292633
346,98441,98442,-0.12973549962043762,-0.03939373046159744,1.1165657043457031,11.835588455200195,0.4353395402431488,-8.511061668395996,-0.5834708213806152,-0.8414579033851624,-0.31048446893692017,0.019775504246354103,0.21192754805088043,-0.4495803713798523
347,98451,98452,-0.08097777515649796,0.009211859665811062,1.12617826461792,10.512856483459473,9.715771675109863,-12.206925392150879,-0.5969701409339905,-0.8549572229385376,-0.31798410415649414,-0.0833045169711113,0.3894044756889343,-0.553242564201355
348,98461,98462,-0.09936098754405975,-0.18744681775569916,1.093311071395874,8.996891975402832,5.188302993774414,-14.16773796081543,-0.5954701900482178,-0.8294585347175598,-0.29848507046699524,-0.23064127564430237,0.5402985215187073,-0.6857355237007141
349,98471,98472,-0.14637887477874756,-0.05471023917198181,1.0635029077529907,3.835888624191284,0.6464637517929077,-15.069547653198242,-0.5984700918197632,-0.8354582190513611,-0.3014849126338959,-0.3003198802471161,0.5760291218757629,-0.8312588930130005
350,98481,98482,-0.7280425429344177,-0.06697142869234085,1.036091923713684,-1.706485390663147,-3.784797430038452,-15.023574829101562,-0.5894705057144165,-0.8204589486122131,-0.2924853563308716,-0.2887870967388153,0.5774343609809875,-0.984330952167511
351,98491,98492,-0.22875724732875824,-0.13735385239124298,1.0185896158218384,-4.048154830932617,-7.5293965339660645,-14.001588821411133,-0.5969701409339905,-0.8279585838317871,-0.2939853072166443,-0.21153579652309418,0.508808434009552,-1.134300708770752
352,98501,98502,-0.039151035249233246,-0.07729659229516983,1.0290658473968506,-6.732661247253418,-9.651921272277832,-10.982638359069824,-0.5969701409339905,-0.8189590573310852,-0.29998499155044556,-0.08297797292470932,0.40893858671188354,-1.262186050415039
353,98511,98512,-0.45167627930641174,-0.22052201628684998,1.0334042310714722,-5.731899738311768,-10.390375137329102,-8.51130485534668,-0.5939702987670898,-0.8219588994979858,-0.28798559308052063,0.06903784722089767,0.2785600423812866,-1.3634735345840454
354,98521,98522,-0.3459819555282593,-0.19845861196517944,1.0405738353729248,-1.3215272426605225,-10.019759178161621,-4.3213605880737305,-0.6044697761535645,-0.8294585347175598,-0.2924853563308716,0.2303239405155182,0.2083812803030014,-1.4294610023498535
355,98531,98532,-0.10176581144332886,-0.13254590332508087,1.036328673362732,3.5398385524749756,-6.513400077819824,-0.3361567258834839,-0.5894705057144165,-0.8294585347175598,-0.2954852283000946,0.2940453886985779,0.2083953469991684,-1.453935146331787
356,98541,98542,-0.021924106404185295,-0.017591282725334167,0.9823666214942932,6.848227024078369,2.0344486236572266,3.529510498046875,-0.5999699831008911,-0.8249587416648865,-0.28498575091362,0.27884674072265625,0.28817427158355713,-1.4391688108444214
357,98551,98552,-0.13745838403701782,-0.01918509043753147,1.0113292932510376,11.654255867004395,9.196758270263672,6.43917179107666,-0.5969701409339905,-0.8279585838317871,-0.28498575091362,0.19535639882087708,0.4207298457622528,-1.3930344581604004
358,98561,98562,-0.21358709037303925,-0.20776967704296112,0.993229329586029,11.424599647521973,13.490468978881836,8.037259101867676,-0.6134693026542664,-0.8204589486122131,-0.2924853563308716,-0.0485406294465065,0.5371803641319275,-1.3228652477264404
359,98571,98572,-0.2947092056274414,-0.061992887407541275,0.9883366823196411,8.163536071777344,13.101099967956543,9.876209259033203,-0.5909704566001892,-0.8189590573310852,-0.2939853072166443,-0.18794572353363037,0.7064415216445923,-1.2345291376113892
360,98581,98582,-0.4274638891220093,-0.23245841264724731,0.9782031178474426,4.212625026702881,6.66269063949585,11.199911117553711,-0.6044697761535645,-0.8204589486122131,-0.2864856719970703,-0.30400609970092773,0.5148137211799622,-1.1227174997329712
361,98591,98592,-1.0445709228515625,-0.25583720207214355,0.9231275320053101,2.5303075313568115,-10.548551559448242,13.685970306396484,-0.5969701409339905,-0.8249587416648865,-0.3029848337173462,-0.2087070494890213,0.7719610333442688,-1.0024230480194092
362,98601,98602,-0.9327476024627686,-0.3773498833179474,0.8642371296882629,-3.2363555431365967,-7.076261043548584,13.083928108215332,-0.6014699339866638,-0.8174591064453125,-0.2924853563308716,-0.07374131679534912,0.5336958169937134,-0.8585126399993896
363,98611,98612,-0.575805127620697,-0.12269041687250137,0.8840789198875427,-6.129206657409668,-20.45407485961914,17.949922561645508,-0.5939702987670898,-0.8219588994979858,-0.3059847056865692,0.1534784436225891,0.4548216760158539,-0.6979261636734009
364,98621,98622,-0.055471230298280716,-0.16014133393764496,0.9577173590660095,-9.620209693908691,-20.841032028198242,19.85213279724121,-0.5759711861610413,-0.8339582681655884,-0.2969851493835449,0.42011091113090515,0.41076886653900146,-0.5103151202201843
365,98631,98632,-0.06777314841747284,-0.16322055459022522,0.9734828472137451,-12.036490440368652,-14.46068000793457,21.68412971496582,-0.577471137046814,-0.8324583768844604,-0.2954852283000946,0.57365483045578,0.37840965390205383,-0.3077157437801361
366,98641,98642,-0.10567063838243484,-0.006885277107357979,0.9860129356384277,-13.829051971435547,-4.312753200531006,24.325153350830078,-0.5849707126617432,-0.8279585838317871,-0.29998499155044556,0.668813169002533,0.16121309995651245,-0.0763988196849823
367,98651,98652,-0.23509545624256134,-0.17416276037693024,0.9659438729286194,-13.973706245422363,6.30045223236084,26.430002212524414,-0.5819708704948425,-0.8339582681655884,-0.2969851493835449,0.6712234020233154,-0.0009182470384985209,0.17525365948677063
368,98661,98662,-0.17725926637649536,-0.31786394119262695,0.9974395632743835,-15.970043182373047,15.273531913757324,26.745433807373047,-0.5864706635475159,-0.8414579033851624,-0.28948551416397095,0.4367951452732086,-0.22966480255126953,0.4415943920612335
369,98671,98672,-0.2734242081642151,-0.08266348391771317,1.0168911218643188,-19.85158920288086,19.364538192749023,24.85906219482422,-0.577471137046814,-0.8264586329460144,-0.3044847846031189,0.15891508758068085,-0.43298158049583435,0.7007986903190613
370,98681,98682,-0.2948296368122101,-0.10663831233978271,0.9773746132850647,-19.44912338256836,17.952465057373047,22.878631591796875,-0.577471137046814,-0.8324583768844604,-0.2954852283000946,-0.012103701010346413,-0.6782772541046143,0.9450718760490417
371,98691,98692,-0.09418763965368271,-0.04228752478957176,0.976442813873291,-19.15643310546875,13.123909950256348,19.91059684753418,-0.5924703478813171,-0.8264586329460144,-0.29848507046699524,-0.20978513360023499,-0.6347619891166687,1.1445385217666626
372,98701,98702,0.020498864352703094,-0.13270635902881622,0.9397428035736084,-14.294323921203613,6.552463054656982,17.130155563354492,-0.5894705057144165,-0.8234587907791138,-0.2954852283000946,-0.2469564974308014,-0.9264777302742004,1.3407180309295654
373,98711,98712,-0.07531417906284332,-0.09860682487487793,0.9745914936065674,-7.068795680999756,-3.4483847618103027,16.7187442779541,-0.5864706635475159,-0.8234587907791138,-0.29848507046699524,-0.3364892899990082,-1.1955993175506592,1.5168579816818237
374,98721,98722,-0.17918606102466583,-0.00941802654415369,1.0792481899261475,3.5699946880340576,-0.6528611183166504,14.322906494140625,-0.5849707126617432,-0.8219588994979858,-0.28498575091362,-0.2865755259990692,-0.8824209570884705,1.6527845859527588
375,98731,98732,-0.13593685626983643,-0.12507568299770355,1.112903118133545,17.943679809570312,-1.1596983671188354,12.142626762390137,-0.5969701409339905,-0.8129593133926392,-0.2939853072166443,-0.3036171793937683,-0.7392798662185669,1.7845027446746826
376,98741,98742,-0.12589405477046967,-0.7075476050376892,1.1016799211502075,19.20283317565918,-0.7605689764022827,12.50314712524414,-0.5894705057144165,-0.8234587907791138,-0.2924853563308716,-0.30495303869247437,-0.7229017615318298,1.9093117713928223
377,98751,98752,-0.12251513451337814,-0.6524511575698853,1.0455533266067505,19.672571182250977,0.6348795294761658,9.968792915344238,-0.5894705057144165,-0.8234587907791138,-0.2924853563308716,-0.2926584482192993,-0.39166679978370667,2.022331714630127
378,98761,98762,-0.059467822313308716,-0.07812771946191788,1.030517339706421,18.216968536376953,-3.0935416221618652,8.4049711227417,-0.5894705057144165,-0.8234587907791138,-0.2924853563308716,-0.31839606165885925,-0.3565130829811096,2.1313283443450928
379,98771,98772,-0.01146814413368702,0.050652552396059036,0.9543977975845337,14.298294067382812,-9.843558311462402,9.451446533203125,-0.6014699339866638,-0.8174591064453125,-0.28948551416397095,-0.22265197336673737,-0.14528799057006836,2.2208709716796875
380,98781,98782,-0.10555204004049301,-0.11795148253440857,0.9607935547828674,7.9291815757751465,-9.022658348083496,10.37571907043457,-0.5924703478813171,-0.8174591064453125,-0.28048595786094666,-0.07488122582435608,0.06871038675308228,2.317270278930664
381,98791,98792,-0.24942991137504578,-0.3139822483062744,0.8953315615653992,-0.8435532450675964,-4.688434600830078,9.819472312927246,-0.6029698252677917,-0.8129593133926392,-0.2969851493835449,0.04315897077322006,0.13755707442760468,2.4212710857391357
382,98801,98802,-0.18834124505519867,-0.24605092406272888,0.891927182674408,-7.556300640106201,-5.1211466789245605,10.238696098327637,-0.5924703478813171,-0.8264586329460144,-0.2924853563308716,-0.04286958649754524,0.07107913494110107,2.542943000793457
383,98811,98812,-0.07277750223875046,-0.08639273792505264,0.9218760132789612,-12.43877124786377,-9.227716445922852,11.449207305908203,-0.5864706635475159,-0.8174591064453125,-0.3044847846031189,0.016025923192501068,-0.09439767897129059,2.651977300643921
384,98821,98822,-0.39072945713996887,-0.38343456387519836,0.9808010458946228,-15.04547119140625,-6.711390018463135,11.759437561035156,-0.5744712948799133,-0.8144592642784119,-0.29848507046699524,0.16192331910133362,-0.3141680061817169,2.7565228939056396
385,98831,98832,-0.40121355652809143,-0.532520055770874,1.0212199687957764,-12.620814323425293,-0.8292482495307922,9.69658088684082,-0.5879706144332886,-0.8309584259986877,-0.2969851493835449,0.13285276293754578,-0.4135938584804535,2.8677315711975098
386,98841,98842,-0.12314480543136597,-0.13410809636116028,0.9656087756156921,-5.974881649017334,2.6224539279937744,8.476550102233887,-0.5804709792137146,-0.8204589486122131,-0.3014849126338959,-0.022200696170330048,-0.5103822946548462,2.969062566757202
387,98851,98852,-0.0540681816637516,-0.0953923761844635,0.9509649276733398,-1.326419711112976,3.37477707862854,7.301344394683838,-0.5909704566001892,-0.8189590573310852,-0.29998499155044556,-0.06155046075582504,-0.566132664680481,3.047261953353882
388,98861,98862,0.009956047870218754,-0.014650563709437847,0.9775737524032593,-1.3997743129730225,4.615985870361328,4.353626728057861,-0.5834708213806152,-0.8084595799446106,-0.2924853563308716,-0.019430343061685562,-0.7070263028144836,3.1038758754730225
389,98871,98872,-0.05862971022725105,-0.1295345276594162,0.9662132859230042,3.6141505241394043,0.425308495759964,1.5493738651275635,-0.5909704566001892,-0.8129593133926392,-0.3059847056865692,-0.032416243106126785,-0.7467360496520996,3.1421926021575928
390,98881,98882,0.009657413698732853,-0.13316558301448822,0.9313398599624634,5.915118217468262,-10.38103199005127,3.610356569290161,-0.5834708213806152,-0.8174591064453125,-0.29848507046699524,0.027330804616212845,-0.6435558795928955,3.165938138961792
391,98891,98892,-0.12275855243206024,-0.39651739597320557,0.9637683033943176,7.223052024841309,-14.930697441101074,2.412426233291626,-0.5939702987670898,-0.8219588994979858,-0.29998499155044556,0.2215566188097,-0.5075765252113342,3.184674024581909
392,98901,98902,-0.05835622176527977,-0.07431933283805847,0.9630905985832214,11.157768249511719,-18.110706329345703,-1.9618885517120361,-0.5804709792137146,-0.8294585347175598,-0.29848507046699524,0.48928916454315186,-0.34673061966896057,3.1743321418762207
393,98911,98912,-0.05434612184762955,0.2209945172071457,1.048790693283081,12.026957511901855,-15.222847938537598,-3.4424073696136475,-0.5834708213806152,-0.8234587907791138,-0.30748462677001953,0.7886785864830017,-0.15156587958335876,3.131422281265259
394,98921,98922,0.09575679153203964,-0.01509775873273611,0.960082471370697,7.573116302490234,-6.187509536743164,-5.480320453643799,-0.5759711861610413,-0.8309584259986877,-0.2939853072166443,1.00631582736969,0.028141118586063385,3.0754048824310303
395,98931,98932,-0.010081898421049118,-0.2924104928970337,0.9264723658561707,5.588313102722168,1.214972972869873,-8.67906379699707,-0.56997150182724,-0.8459576964378357,-0.30898454785346985,0.9153609871864319,0.13851343095302582,3.022690534591675
396,98941,98942,-0.03600713610649109,-0.10205812007188797,0.9881762266159058,7.673866271972656,9.507089614868164,-10.635095596313477,-0.5669716596603394,-0.8339582681655884,-0.30898454785346985,0.8251847624778748,-0.022172652184963226,2.9476101398468018
397,98951,98952,-0.12976671755313873,0.022188352420926094,0.9913192391395569,8.22997760772705,12.835183143615723,-11.9430570602417,-0.5684715509414673,-0.8354582190513611,-0.31048446893692017,0.5297908782958984,0.11335505545139313,2.843515157699585
398,98961,98962,-0.5501735806465149,-0.31453877687454224,1.050304889678955,5.812790870666504,24.683927536010742,-14.165545463562012,-0.5849707126617432,-0.8489575386047363,-0.3059847056865692,0.19463324546813965,0.24026526510715485,2.714077949523926
399,98971,98972,-0.3695889711380005,-0.4338334798812866,1.023061752319336,7.193290710449219,35.18732833862305,-18.57420539855957,-0.5759711861610413,-0.851957380771637,-0.3059847056865692,-0.2901265025138855,0.27310264110565186,2.567979097366333
400,98981,98982,-0.054877378046512604,0.04580101743340492,1.0782536268234253,1.7170177698135376,31.0221004486084,-18.73291015625,-0.5729713439941406,-0.8489575386047363,-0.30898454785346985,-0.7559399604797363,0.3628001809120178,2.3869874477386475
401,98991,98992,-0.11337736248970032,-0.008443978615105152,1.0987180471420288,-1.050513744354248,26.949094772338867,-20.26150894165039,-0.5894705057144165,-0.8324583768844604,-0.3044847846031189,-1.0427696704864502,0.027474407106637955,2.2147603034973145
402,99001,99002,-0.5990852117538452,0.1467888206243515,1.0570076704025269,3.5687415599823,8.974356651306152,-19.12863540649414,-0.5939702987670898,-0.8399580121040344,-0.3059847056865692,-1.1794414520263672,0.0681406632065773,2.012140989303589
403,99011,99012,-0.4374609887599945,-0.4549398124217987,1.0672409534454346,0.5309472680091858,1.84280526638031,-19.171987533569336,-0.5894705057144165,-0.8414579033851624,-0.3164841830730438,-1.220505714416504,0.1407858282327652,1.8236079216003418
404,99021,99022,-0.5879588723182678,-0.8608139157295227,1.1296148300170898,5.655815124511719,-17.65976333618164,-18.075937271118164,-0.577471137046814,-0.8474575877189636,-0.29848507046699524,-1.0770092010498047,0.20863889157772064,1.6341549158096313
405,99031,99032,-0.8701466917991638,-0.23955968022346497,1.114065170288086,2.4173593521118164,-22.452138900756836,-19.071203231811523,-0.577471137046814,-0.8474575877189636,-0.3044847846031189,-0.7700368165969849,0.17260834574699402,1.4429268836975098
406,99041,99042,-0.5556484460830688,-0.157968208193779,1.1699227094650269,7.847444534301758,-29.77410316467285,-17.254514694213867,-0.5744712948799133,-0.8354582190513611,-0.3164841830730438,-0.4614540636539459,0.06598637998104095,1.250510573387146
407,99051,99052,-0.15687710046768188,-0.25614094734191895,1.1485780477523804,6.344512939453125,-16.505762100219727,-18.342187881469727,-0.5819708704948425,-0.8429578542709351,-0.3029848337173462,-0.025561498478055,0.23247644305229187,1.0735969543457031
408,99061,99062,-0.007338271010667086,-0.12213407456874847,1.1414295434951782,9.111136436462402,-16.71404457092285,-16.084897994995117,-0.5879706144332886,-0.836958110332489,-0.29998499155044556,-0.10295915603637695,0.3917258679866791,0.905960738658905
409,99071,99072,-0.16589729487895966,-0.2660377025604248,1.1530969142913818,5.361871719360352,-0.7735974788665771,-16.185949325561523,-0.5864706635475159,-0.8264586329460144,-0.30748462677001953,0.027257930487394333,0.4871511161327362,0.7445950508117676
410,99081,99082,-0.1806126832962036,0.07968307286500931,1.175949215888977,7.231862545013428,-0.7190325260162354,-13.050660133361816,-0.5789710283279419,-0.836958110332489,-0.30898454785346985,-0.08657369017601013,0.6117333173751831,0.5974687933921814
411,99091,99092,-0.10909530520439148,0.11649515479803085,1.1646013259887695,-2.5974626541137695,7.80790901184082,-12.700458526611328,-0.5864706635475159,-0.844457745552063,-0.28948551416397095,-0.09062894433736801,0.7016987800598145,0.4673515558242798
412,99101,99102,-0.030324509367346764,0.05924680456519127,1.0908236503601074,-5.511704444885254,4.622623920440674,-12.62925910949707,-0.5954701900482178,-0.8234587907791138,-0.29848507046699524,-0.11437635123729706,0.5822045207023621,0.3327406942844391
413,99111,99112,-0.11948012560606003,0.009719418361783028,1.0423262119293213,-11.527201652526855,3.2834012508392334,-13.86240291595459,-0.5984700918197632,-0.8144592642784119,-0.2954852283000946,-0.1673644334077835,0.48149949312210083,0.19152449071407318
414,99121,99122,-0.2568824589252472,0.012491987086832523,0.9493989944458008,-8.34778118133545,-7.935847282409668,-15.022576332092285,-0.5924703478813171,-0.8204589486122131,-0.2924853563308716,-0.16759322583675385,0.3323512375354767,0.04498092457652092
415,99131,99132,-0.26887649297714233,-0.2219662070274353,1.0196565389633179,-10.031062126159668,-7.577188491821289,-14.965615272521973,-0.5864706635475159,-0.8204589486122131,-0.29848507046699524,-0.13367405533790588,0.28360724449157715,-0.10265293717384338
416,99141,99142,-0.4154508709907532,-0.48773103952407837,1.0384790897369385,0.40194693207740784,-9.930597305297852,-13.79164981842041,-0.5894705057144165,-0.8114594221115112,-0.2834858298301697,-0.025782626122236252,0.17704357206821442,-0.24637340009212494
417,99151,99152,-0.4187279939651489,-0.4124015271663666,0.9402192831039429,3.597146511077881,2.913059711456299,-12.43250560760498,-0.5879706144332886,-0.8339582681655884,-0.29098543524742126,0.11068189144134521,0.19773031771183014,-0.3700750768184662
418,99161,99162,-0.727570116519928,-0.20867919921875,0.9188267588615417,10.43038272857666,-9.31817626953125,-10.165827751159668,-0.5894705057144165,-0.8264586329460144,-0.2864856719970703,0.08180758357048035,0.3260239362716675,-0.4843581020832062
419,99171,99172,-1.4168848991394043,-0.31878504157066345,1.0093642473220825,13.15979290008545,-16.063032150268555,-7.287496566772461,-0.5834708213806152,-0.8234587907791138,-0.2954852283000946,0.3861950635910034,0.5357233285903931,-0.5639395117759705
420,99181,99182,-0.9517120122909546,0.010603133589029312,1.0881428718566895,12.583528518676758,-16.64173126220703,-6.070611476898193,-0.5954701900482178,-0.8354582190513611,-0.2924853563308716,0.3724185526371002,0.54662024974823,-0.6432737112045288
421,99191,99192,-0.29605603218078613,0.10254041850566864,1.1821815967559814,6.197281360626221,-9.331697463989258,-4.669046401977539,-0.5834708213806152,-0.8354582190513611,-0.3014849126338959,0.6002050042152405,0.5397495031356812,-0.6973946690559387
422,99201,99202,-0.7389415502548218,-0.050510723143815994,1.0235803127288818,7.8591766357421875,-2.3652560710906982,-7.392973899841309,-0.577471137046814,-0.8264586329460144,-0.2924853563308716,0.6132523417472839,0.6138684749603271,-0.7646550536155701
423,99211,99212,-0.45798614621162415,-0.16296394169330597,0.8774980902671814,4.584676742553711,0.5042430758476257,-6.406641960144043,-0.5924703478813171,-0.8324583768844604,-0.2924853563308716,0.5331118702888489,0.7499246597290039,-0.840374767780304
424,99221,99222,-0.4761328399181366,-0.1473190188407898,0.925771176815033,8.03951358795166,7.744516849517822,-9.666464805603027,-0.5939702987670898,-0.836958110332489,-0.3029848337173462,0.44447049498558044,0.8409708738327026,-0.9172097444534302
425,99231,99232,-0.5616096258163452,-0.37208083271980286,0.8252512216567993,10.984033584594727,8.11640453338623,-5.980559825897217,-0.5999699831008911,-0.836958110332489,-0.28798559308052063,0.3964446783065796,0.9169243574142456,-0.9909253120422363
426,99241,99242,-0.7126578092575073,-0.1971030980348587,1.0086215734481812,7.962984085083008,2.932976722717285,-5.863606929779053,-0.5864706635475159,-0.8324583768844604,-0.2924853563308716,0.32659101486206055,1.0775169134140015,-1.0547980070114136
427,99251,99252,-0.12971819937229156,-0.18597844243049622,1.020265817642212,2.5144073963165283,-1.751573920249939,-5.487286567687988,-0.5714713931083679,-0.8384580612182617,-0.29848507046699524,0.4220603108406067,1.1204524040222168,-1.1030752658843994
428,99261,99262,-0.08061694353818893,-0.5980041027069092,1.2024656534194946,-0.6575524210929871,-9.170781135559082,-6.934475898742676,-0.5909704566001892,-0.8429578542709351,-0.29998499155044556,0.5011501908302307,1.1798537969589233,-1.1674007177352905
429,99271,99272,-0.8134839534759521,-0.3476785719394684,1.1952199935913086,0.07058578729629517,-12.326231002807617,-7.028782844543457,-0.5834708213806152,-0.850457489490509,-0.30748462677001953,0.6686280369758606,1.2299293279647827,-1.2406631708145142
430,99281,99282,-0.4205664098262787,-0.41026681661605835,1.0703654289245605,2.995581865310669,-12.822064399719238,-8.155555725097656,-0.6029698252677917,-0.8429578542709351,-0.2969851493835449,0.8543466329574585,1.248631238937378,-1.311821699142456
431,99291,99292,-0.4823663532733917,-1.0808521509170532,0.9879748821258545,7.216319561004639,-10.633085250854492,-7.349207401275635,-0.5894705057144165,-0.8384580612182617,-0.30748462677001953,0.8944187164306641,1.3017207384109497,-1.401383876800537
432,99301,99302,-0.37707969546318054,-0.8842669725418091,0.7994693517684937,2.6933391094207764,-8.667332649230957,-4.221261501312256,-0.5804709792137146,-0.844457745552063,-0.2924853563308716,1.0002166032791138,1.376808762550354,-1.4663139581680298
433,99311,99312,-0.2260700911283493,-0.21951285004615784,0.865482747554779,-3.064516544342041,1.7793980836868286,-5.616501331329346,-0.5834708213806152,-0.8354582190513611,-0.3044847846031189,0.9693569540977478,1.3753701448440552,-1.5226316452026367
434,99321,99322,-0.12066945433616638,0.0007758599822409451,0.9292727112770081,-12.092141151428223,-1.1474354267120361,-1.4703377485275269,-0.5849707126617432,-0.8339582681655884,-0.2939853072166443,0.996492326259613,1.250618577003479,-1.54599130153656
435,99331,99332,-0.09416957199573517,-0.027248861268162727,0.9914289116859436,-17.49488067626953,3.486116886138916,-0.31610172986984253,-0.5834708213806152,-0.8474575877189636,-0.3134843111038208,1.001266598701477,1.0775033235549927,-1.5533910989761353
436,99341,99342,0.1289570927619934,0.13071750104427338,0.9165740013122559,-21.88207244873047,11.197966575622559,0.25385698676109314,-0.5654717087745667,-0.8474575877189636,-0.3134843111038208,0.9155169129371643,0.8197876214981079,-1.5519744157791138
437,99351,99352,-0.04117906093597412,-0.31340470910072327,0.9461596012115479,-25.559053421020508,11.615792274475098,0.2763323187828064,-0.5654717087745667,-0.850457489490509,-0.30748462677001953,0.7451701164245605,0.575188398361206,-1.5615267753601074
438,99361,99362,-0.30130735039711,-0.2323760837316513,1.0189989805221558,-24.610992431640625,14.257111549377441,1.6992411613464355,-0.5834708213806152,-0.8624568581581116,-0.3164841830730438,0.5345155000686646,0.3658408224582672,-1.5705292224884033
439,99371,99372,-0.1535191386938095,-0.2110556662082672,1.0111801624298096,-20.00800132751465,13.873064994812012,2.978806734085083,-0.5804709792137146,-0.8354582190513611,-0.30748462677001953,0.5263815522193909,0.12610089778900146,-1.5208841562271118
440,99381,99382,-0.045106276869773865,-0.056256916373968124,1.0366300344467163,-13.073278427124023,9.847052574157715,3.256284475326538,-0.56997150182724,-0.8549572229385376,-0.3119843900203705,0.4603847563266754,-0.0965346023440361,-1.4744797945022583
441,99391,99392,-0.06002919375896454,-0.00012589938705787063,1.001295804977417,-3.81425142288208,4.913796901702881,3.169649839401245,-0.5729713439941406,-0.8549572229385376,-0.3119843900203705,0.33333590626716614,-0.24829599261283875,-1.4419031143188477
442,99401,99402,-0.24638645350933075,-0.11955658346414566,1.0797858238220215,2.3053150177001953,1.5873358249664307,3.956324338912964,-0.5759711861610413,-0.8579570651054382,-0.30898454785346985,0.2802391052246094,-0.20460550487041473,-1.4178940057754517
443,99411,99412,-0.3870822489261627,-0.1476922184228897,1.0328418016433716,9.282613754272461,0.3745723366737366,5.079367160797119,-0.5834708213806152,-0.8684565424919128,-0.3164841830730438,0.26665759086608887,-0.12253313511610031,-1.376395583152771
444,99421,99422,-0.2588077187538147,-0.283633291721344,1.0081274509429932,14.159268379211426,0.33365511894226074,4.684202194213867,-0.5759711861610413,-0.8669566512107849,-0.3119843900203705,0.33510345220565796,0.05913170427083969,-1.3289520740509033
445,99431,99432,-0.22354693710803986,-0.09281044453382492,1.0481373071670532,15.77664852142334,4.32132625579834,3.0040884017944336,-0.577471137046814,-0.8564571738243103,-0.3164841830730438,0.302044153213501,0.29037001729011536,-1.296857237815857
446,99441,99442,-0.07419047504663467,-0.044558849185705185,1.019717812538147,13.961538314819336,11.409794807434082,1.8070547580718994,-0.5894705057144165,-0.8654567003250122,-0.3224838674068451,0.18113476037979126,0.522591233253479,-1.2813924551010132
447,99451,99452,-0.04519133269786835,-0.17831483483314514,1.0640517473220825,12.040236473083496,14.469161987304688,1.095479965209961,-0.56997150182724,-0.8639568090438843,-0.3209839463233948,0.11079198867082596,0.7139354348182678,-1.2684890031814575
448,99461,99462,-0.04719025269150734,-0.317035049200058,1.0772299766540527,5.338253021240234,14.713717460632324,2.654367446899414,-0.5744712948799133,-0.8804559707641602,-0.3164841830730438,-0.13593611121177673,0.7753874063491821,-1.2547111511230469
449,99471,99472,-0.11929929256439209,-0.13410770893096924,1.0963181257247925,-0.7405344247817993,8.23835277557373,3.3076465129852295,-0.5849707126617432,-0.8789560198783875,-0.31798410415649414,-0.2539312541484833,0.6636378169059753,-1.2117788791656494
450,99481,99482,-0.010290361009538174,-0.01163884811103344,1.0321375131607056,-9.816000938415527,1.2898180484771729,4.0920729637146,-0.5744712948799133,-0.8474575877189636,-0.31048446893692017,-0.3438776433467865,0.5103230476379395,-1.1689677238464355
451,99491,99492,-0.12772607803344727,0.0001044191958499141,1.082175612449646,-20.633079528808594,-7.375672817230225,2.467803716659546,-0.5834708213806152,-0.850457489490509,-0.3164841830730438,-0.2946402430534363,0.4759696125984192,-1.1389541625976562
452,99501,99502,-0.16432787477970123,-0.014368941076099873,1.0152521133422852,-24.38825798034668,-11.168270111083984,0.76999431848526,-0.5654717087745667,-0.8594570159912109,-0.3134843111038208,-0.1383100152015686,0.07714170217514038,-1.1083251237869263
453,99511,99512,-0.22330421209335327,0.005003902595490217,1.0359219312667847,-25.695941925048828,-12.741662979125977,0.9786354899406433,-0.577471137046814,-0.8474575877189636,-0.3164841830730438,0.06459283828735352,-0.34749647974967957,-1.0854132175445557
454,99521,99522,-0.08596841245889664,0.005047064274549484,1.0976184606552124,-20.2232723236084,-10.126201629638672,-0.31529802083969116,-0.5849707126617432,-0.8399580121040344,-0.3119843900203705,0.25490978360176086,-0.3101278245449066,-1.0831087827682495
455,99531,99532,-0.09033157676458359,-0.22084926068782806,1.0592186450958252,-8.168919563293457,-11.29737377166748,0.37979820370674133,-0.5759711861610413,-0.8579570651054382,-0.2939853072166443,0.33200305700302124,-0.8653052449226379,-1.0786770582199097
456,99541,99542,-0.22619035840034485,-0.2894846200942993,1.0673625469207764,5.310718059539795,-5.303033828735352,1.6305490732192993,-0.5759711861610413,-0.8459576964378357,-0.31798410415649414,0.528735339641571,-0.48340681195259094,-1.078588604927063
457,99551,99552,-0.23179715871810913,-0.027690306305885315,1.0775253772735596,17.257854461669922,-0.2868459224700928,2.4251821041107178,-0.5834708213806152,-0.8534573316574097,-0.3014849126338959,0.5684524178504944,-0.11580837517976761,-1.0655114650726318
458,99561,99562,-0.21250902116298676,0.05989466980099678,1.0901193618774414,25.55217170715332,2.144035816192627,2.2509589195251465,-0.5879706144332886,-0.8489575386047363,-0.30898454785346985,0.5164453387260437,0.2556000053882599,-1.0490280389785767
459,99571,99572,-0.059323500841856,0.01775960624217987,1.0437978506088257,24.786832809448242,4.746497631072998,3.5983941555023193,-0.5924703478813171,-0.850457489490509,-0.3134843111038208,0.4432860016822815,0.2902519106864929,-1.0077004432678223
460,99581,99582,-0.20896588265895844,-0.2363109141588211,1.0439444780349731,19.327346801757812,7.6194748878479,4.096009731292725,-0.5939702987670898,-0.8399580121040344,-0.3059847056865692,0.3300461173057556,0.6288712620735168,-0.9741259217262268
461,99591,99592,-0.13827745616436005,-0.15897734463214874,1.0499122142791748,9.827705383300781,10.453592300415039,3.085529088973999,-0.5984700918197632,-0.8384580612182617,-0.31048446893692017,0.23567627370357513,0.8507189154624939,-0.9397280812263489
462,99601,99602,-0.6136160492897034,-0.05957385152578354,1.0231393575668335,0.3115285038948059,9.90507698059082,2.3836817741394043,-0.5864706635475159,-0.8474575877189636,-0.3044847846031189,0.18154220283031464,0.8283407092094421,-0.908071756362915
463,99611,99612,-0.3240015506744385,0.024997079744935036,1.0052205324172974,-10.662738800048828,9.806639671325684,1.5193274021148682,-0.5834708213806152,-0.8414579033851624,-0.2924853563308716,0.05577138066291809,0.6398241519927979,-0.8821344971656799
464,99621,99622,-0.02262982353568077,-0.036048438400030136,1.034989356994629,-17.978099822998047,5.793495178222656,-1.621452808380127,-0.5834708213806152,-0.8414579033851624,-0.2924853563308716,0.03135131299495697,0.45106127858161926,-0.8779280781745911
465,99631,99632,-0.05004073306918144,-0.028595004230737686,1.0309302806854248,-16.095727920532227,-0.6192042827606201,-2.839583158493042,-0.5834708213806152,-0.8414579033851624,-0.2924853563308716,-0.05809882655739784,0.2666487395763397,-0.899794340133667
466,99641,99642,-0.2172287106513977,-0.07030989229679108,0.9911481142044067,-13.416542053222656,-6.486085891723633,-3.5991413593292236,-0.5924703478813171,-0.8234587907791138,-0.28948551416397095,-0.03001117892563343,0.12880565226078033,-0.9327234029769897
467,99651,99652,-0.1382693499326706,-0.30791816115379333,1.0007798671722412,-7.689978122711182,-9.156140327453613,-2.6030995845794678,-0.5789710283279419,-0.8399580121040344,-0.3029848337173462,0.0723399966955185,0.058238591998815536,-0.9622883200645447
468,99661,99662,-0.14454391598701477,-0.3963364064693451,0.9977518916130066,-3.214299201965332,-4.7969207763671875,-2.305056095123291,-0.5849707126617432,-0.8309584259986877,-0.3119843900203705,0.3124520480632782,-0.07422982156276703,-0.9847683906555176
469,99671,99672,-0.2338901162147522,-0.21690158545970917,1.003125786781311,4.005862712860107,2.590308904647827,0.22290048003196716,-0.5879706144332886,-0.8279585838317871,-0.3029848337173462,0.16482114791870117,-0.10333579033613205,-0.9991428256034851
470,99681,99682,-0.5770590901374817,-0.2627947926521301,1.023241400718689,4.361195087432861,15.488407135009766,3.449434280395508,-0.5999699831008911,-0.8339582681655884,-0.3029848337173462,0.2971084713935852,0.22265590727329254,-0.9849409461021423
471,99691,99692,-1.3172200918197632,-0.4065617024898529,1.0209347009658813,0.0030515985563397408,30.04961395263672,4.625970840454102,-0.5894705057144165,-0.8414579033851624,-0.2954852283000946,0.18940703570842743,0.1497524529695511,-0.9405864477157593
472,99701,99702,-0.8073948621749878,-0.3184789717197418,1.0667500495910645,-6.874268531799316,40.697486877441406,5.680333137512207,-0.5969701409339905,-0.836958110332489,-0.29998499155044556,-0.2824402451515198,0.05951793119311333,-0.8866485953330994
473,99711,99712,-0.26811379194259644,-0.1580556184053421,1.0476882457733154,-10.76515007019043,45.15596389770508,8.227438926696777,-0.6074696183204651,-0.8414579033851624,-0.2924853563308716,-1.013010025024414,-0.05765092372894287,-0.8168541193008423
474,99721,99722,0.022084178403019905,-0.8878403902053833,0.9589565992355347,-13.146509170532227,39.072147369384766,10.722315788269043,-0.6059696674346924,-0.8279585838317871,-0.3029848337173462,-1.1738473176956177,-0.06901662051677704,-0.7228084206581116
475,99731,99732,-0.08480482548475266,-0.5653864145278931,0.9627436995506287,-11.654253959655762,31.13687515258789,11.82107925415039,-0.6209689378738403,-0.8279585838317871,-0.2969851493835449,-1.507153034210205,-0.33397695422172546,-0.6119371652603149
