,timestamp_start,timestamp_end,acc.x,acc.y,acc.z,gyro.x,gyro.y,gyro.z,mag.x,mag.y,mag.z,stabilizer.pitch,stabilizer.roll,stabilizer.yaw
0,11775,11776,-0.24360905587673187,-0.4300498068332672,1.0332220792770386,3.4341623783111572,-1.3508678674697876,14.165395736694336,-0.6089695692062378,-0.8489575386047363,-0.3239837884902954,0.13935586810112,-0.4247186779975891,-3.7940635681152344
1,11785,11786,-0.981380820274353,-0.7895621061325073,1.0273211002349854,1.5217362642288208,1.995642900466919,13.240777015686035,-0.6269686222076416,-0.8549572229385376,-0.3149842321872711,0.04357152432203293,-0.2538151443004608,-3.6428372859954834
2,11795,11796,-0.6041380763053894,-0.47284427285194397,0.9986514449119568,-0.6775696277618408,3.0509538650512695,12.269489288330078,-0.6044697761535645,-0.844457745552063,-0.3224838674068451,0.004302978049963713,-0.2407265156507492,-3.507739782333374
3,11805,11806,-0.3734191954135895,-0.01707267574965954,0.9663083553314209,-0.12005770206451416,2.378251791000366,13.092645645141602,-0.6194689869880676,-0.8414579033851624,-0.3044847846031189,0.043118711560964584,-0.25165078043937683,-3.374070882797241
4,11815,11816,-0.24614277482032776,-0.1776147037744522,1.0474648475646973,-1.3528797626495361,2.79154896736145,13.223773956298828,-0.6149692535400391,-0.8429578542709351,-0.3119843900203705,-0.6163262724876404,-0.012874615378677845,-3.265350580215454
5,11825,11826,-0.07963847368955612,-0.3150329887866974,1.053700566291809,-1.8466812372207642,-0.25944697856903076,12.698875427246094,-0.622468888759613,-0.844457745552063,-0.33448326587677,-0.6034939885139465,-0.01996263861656189,-3.127342462539673
6,11835,11836,0.04884300380945206,-0.17842142283916473,0.9866084456443787,-2.9197709560394287,-4.501845836639404,12.15504264831543,-0.6209689378738403,-0.8579570651054382,-0.31798410415649414,-0.6656020283699036,0.8206325769424438,-2.9098763465881348
7,11845,11846,-0.014983064495027065,0.0859353095293045,0.9745826721191406,-2.707728624343872,-12.527236938476562,11.623151779174805,-0.6299684643745422,-0.8549572229385376,-0.3209839463233948,-0.6765438914299011,0.756647527217865,-2.8012397289276123
8,11855,11856,-0.3574121594429016,0.20721271634101868,0.9557994604110718,-10.322049140930176,-20.865413665771484,11.100142478942871,-0.6089695692062378,-0.851957380771637,-0.3209839463233948,-0.5520126819610596,1.187197208404541,-2.6195247173309326
9,11865,11866,-0.10539288073778152,0.12085110694169998,0.9611637592315674,-16.36903953552246,-28.717470169067383,10.84959888458252,-0.6089695692062378,-0.8609569072723389,-0.3149842321872711,-0.4591815769672394,1.259643316268921,-2.496934652328491
10,11875,11876,-0.13206656277179718,-0.12603022158145905,1.0711374282836914,-22.335859298706055,-34.128936767578125,12.127155303955078,-0.6059696674346924,-0.8549572229385376,-0.3059847056865692,0.028595179319381714,1.2803164720535278,-2.3331520557403564
11,11885,11886,-0.08479458093643188,0.018497325479984283,1.0400763750076294,-29.036563873291016,-34.229488372802734,13.454744338989258,-0.6089695692062378,-0.8609569072723389,-0.3149842321872711,0.17201727628707886,1.238211989402771,-2.235409736633301
12,11895,11896,-0.025203226134181023,0.06502772122621536,0.937820315361023,-35.177940368652344,-29.91448211669922,15.52561092376709,-0.5984700918197632,-0.8474575877189636,-0.31948402523994446,0.5258764028549194,0.9409285187721252,-2.116626739501953
13,11905,11906,-0.05059460923075676,-0.12276347726583481,0.9725033640861511,-37.981048583984375,-21.7694149017334,15.761892318725586,-0.6149692535400391,-0.8339582681655884,-0.3059847056865692,0.9599907398223877,0.5071535706520081,-1.955755352973938
14,11915,11916,-0.3757738769054413,-0.06601694226264954,0.9663837552070618,-36.13254165649414,-13.239663124084473,16.747953414916992,-0.6059696674346924,-0.8249587416648865,-0.3029848337173462,1.0492970943450928,0.3719802796840668,-1.8260035514831543
15,11925,11926,-0.4912674129009247,-0.04345531016588211,0.9991177916526794,-32.64442443847656,-3.1836869716644287,18.165233612060547,-0.6059696674346924,-0.8339582681655884,-0.29998499155044556,1.1429705619812012,0.17186568677425385,-1.6769648790359497
16,11935,11936,-0.13231272995471954,-0.019941851496696472,1.0134724378585815,-34.065582275390625,4.444146633148193,19.5443172454834,-0.6089695692062378,-0.8219588994979858,-0.30898454785346985,1.0301214456558228,0.04453466460108757,-1.5387547016143799
17,11945,11946,0.017753243446350098,-0.07628434151411057,0.9798688888549805,-40.09215545654297,7.592705726623535,21.187448501586914,-0.6059696674346924,-0.8279585838317871,-0.2969851493835449,1.0800434350967407,-0.46196895837783813,-1.3230881690979004
18,11955,11956,-0.34868761897087097,-0.08522530645132065,0.977116048336029,-46.988040924072266,7.610808372497559,23.4985294342041,-0.5984700918197632,-0.80545973777771,-0.2954852283000946,1.0529497861862183,-0.7709670662879944,-1.1122139692306519
19,11965,11966,-1.6585630178451538,-1.057283639907837,0.9680508971214294,-48.58290100097656,4.150764465332031,23.539926528930664,-0.6119694113731384,-0.8099594712257385,-0.28798559308052063,0.8483299612998962,-1.430026650428772,-0.8883052468299866
20,11975,11976,-1.3105835914611816,-1.013968586921692,0.9329405426979065,-45.32188415527344,-1.760411262512207,23.45926856994629,-0.6014699339866638,-0.80545973777771,-0.2924853563308716,0.7443646192550659,-1.6930850744247437,-0.6750823855400085
21,11985,11986,-0.5412334203720093,-0.20952317118644714,0.97104811668396,-37.76893997192383,-6.560059070587158,21.84775733947754,-0.6074696183204651,-0.7964601516723633,-0.2924853563308716,0.6662265062332153,-1.7794815301895142,-0.47634878754615784
22,11995,11996,-0.08050373941659927,0.1228862777352333,0.9694039225578308,-28.69904899597168,-9.768016815185547,21.651290893554688,-0.6074696183204651,-0.7964601516723633,-0.2924853563308716,0.6746921539306641,-2.3139426708221436,-0.24128741025924683
23,12005,12006,-0.3386792838573456,0.04912838339805603,0.9338412284851074,-24.03812599182129,-12.074172973632812,20.76975440979004,-0.6074696183204651,-0.7964601516723633,-0.2924853563308716,0.7148326635360718,-2.3775291442871094,-0.03854552283883095
24,12015,12016,-0.14837278425693512,-0.1013878881931305,0.9540385603904724,-18.646747589111328,-10.095589637756348,20.46857261657715,-0.6059696674346924,-0.8159592151641846,-0.28798559308052063,0.7577788233757019,-2.835662841796875,0.1910310685634613
25,12025,12026,-0.06655039638280869,-0.022253327071666718,1.062762975692749,-13.425457954406738,-6.595892906188965,19.9334774017334,-0.5939702987670898,-0.8069596290588379,-0.29998499155044556,0.9976078867912292,-3.0571789741516113,0.38815566897392273
26,12035,12036,-0.08081945031881332,-0.10380135476589203,1.0031790733337402,-8.9197359085083,-4.479839324951172,19.714509963989258,-0.6074696183204651,-0.7994599938392639,-0.2864856719970703,0.8512536287307739,-3.052032947540283,0.6087503433227539
27,12045,12046,-0.1026255413889885,0.07109887152910233,1.041882872581482,-9.161346435546875,-4.7171149253845215,21.02305793762207,-0.5939702987670898,-0.8009599447250366,-0.28798559308052063,1.0284785032272339,-3.3338303565979004,0.8033137917518616
28,12055,12056,0.02549579180777073,0.06153055280447006,1.0330883264541626,-12.340928077697754,-8.965970993041992,22.50981903076172,-0.5939702987670898,-0.8009599447250366,-0.2759861946105957,1.0006163120269775,-3.3953001499176025,1.0221227407455444
29,12065,12066,-0.06814934313297272,0.009338079020380974,1.015816330909729,-19.871732711791992,-15.885318756103516,25.864187240600586,-0.5909704566001892,-0.8099594712257385,-0.27898603677749634,1.0391013622283936,-3.6544294357299805,1.268417239189148
30,12075,12076,0.013535426929593086,-0.15547767281532288,0.9251704216003418,-29.28626251220703,-24.512990951538086,28.05459213256836,-0.577471137046814,-0.7964601516723633,-0.28948551416397095,1.3801946640014648,-3.8715367317199707,1.4640707969665527
31,12085,12086,-0.11358361691236496,-0.19380012154579163,0.9322686195373535,-37.43035888671875,-33.38079071044922,28.6119384765625,-0.5939702987670898,-0.8009599447250366,-0.28498575091362,1.4942384958267212,-3.9526379108428955,1.747349739074707
32,12095,12096,-0.25435003638267517,0.03835252299904823,1.0687572956085205,-44.84349060058594,-38.047245025634766,28.183406829833984,-0.56997150182724,-0.7889605164527893,-0.28498575091362,1.9496372938156128,-4.445018768310547,2.0154058933258057
33,12105,12106,-0.15838931500911713,0.11558010429143906,0.9998133182525635,-48.501644134521484,-38.2076530456543,26.70631217956543,-0.5804709792137146,-0.790460467338562,-0.2864856719970703,2.188295841217041,-4.6808576583862305,2.3437416553497314
34,12115,12116,-0.17427445948123932,-0.006622912362217903,0.9352413415908813,-45.84544372558594,-33.462745666503906,25.794723510742188,-0.554972231388092,-0.782960832118988,-0.28498575091362,2.6167707443237305,-5.304173469543457,2.647324323654175
35,12125,12126,-0.7001269459724426,-0.5470005869865417,0.8892627954483032,-37.49580383300781,-25.04460906982422,22.71851348876953,-0.56997150182724,-0.7859606742858887,-0.28798559308052063,2.965318441390991,-5.923501491546631,2.9674363136291504
36,12135,12136,-0.28643402457237244,-0.4723706543445587,0.8849881291389465,-24.788658142089844,-11.309924125671387,19.778045654296875,-0.5669716596603394,-0.7739613056182861,-0.2669866383075714,3.0164239406585693,-6.110097885131836,3.2991385459899902
37,12145,12146,-0.09275177866220474,-0.03620118275284767,0.9004107117652893,-8.295077323913574,4.863812446594238,16.882184982299805,-0.5654717087745667,-0.7754611968994141,-0.2834858298301697,3.167450189590454,-6.436502933502197,3.5087027549743652
38,12155,12156,-0.23579582571983337,0.0040699150413274765,0.8859810829162598,8.659506797790527,17.587982177734375,14.876710891723633,-0.5654717087745667,-0.7754611968994141,-0.27148643136024475,3.0997300148010254,-6.481125831604004,3.7024827003479004
39,12165,12166,-0.23923209309577942,-0.3090304732322693,0.8719388842582703,22.208620071411133,26.6488094329834,11.587125778198242,-0.5654717087745667,-0.7814609408378601,-0.28048595786094666,2.7962687015533447,-6.481203079223633,3.9129254817962646
40,12175,12176,-0.26927313208580017,-0.3845158815383911,0.9457239508628845,26.389671325683594,29.91563606262207,7.971441268920898,-0.5744712948799133,-0.7994599938392639,-0.2864856719970703,2.418884515762329,-6.345186710357666,4.117701053619385
41,12185,12186,-0.32330790162086487,-0.016966523602604866,0.9068474173545837,27.43274688720703,26.16990852355957,4.271412372589111,-0.577471137046814,-0.7964601516723633,-0.28948551416397095,2.128100872039795,-6.103513240814209,4.1556806564331055
42,12195,12196,-0.3218863904476166,0.013335326686501503,0.9605697989463806,30.467905044555664,20.893739700317383,1.62998366355896,-0.5804709792137146,-0.790460467338562,-0.2744862735271454,1.7656177282333374,-5.748748302459717,4.212627410888672
43,12205,12206,-0.37123435735702515,0.025360772386193275,0.981670081615448,30.37502670288086,13.504194259643555,-0.06751184910535812,-0.5654717087745667,-0.7964601516723633,-0.29848507046699524,1.5818660259246826,-5.436211109161377,4.1788482666015625
44,12215,12216,-0.058050088584423065,0.04090629145503044,0.9753820300102234,28.523256301879883,7.181171894073486,0.03766971454024315,-0.5789710283279419,-0.8039597868919373,-0.29098543524742126,1.3568918704986572,-5.1181559562683105,4.215080738067627
45,12225,12226,-0.09496801346540451,-0.003816569223999977,0.9241039752960205,21.507633209228516,3.1131036281585693,-0.23433580994606018,-0.5714713931083679,-0.80545973777771,-0.28048595786094666,1.3017562627792358,-4.84181022644043,4.184824466705322
46,12235,12236,-0.05225690081715584,0.13014285266399384,1.011810064315796,9.312012672424316,-0.8810991048812866,-0.17309358716011047,-0.5759711861610413,-0.8189590573310852,-0.29098543524742126,1.2406611442565918,-4.6724534034729,4.211719512939453
47,12245,12246,-0.1665441244840622,-0.24351830780506134,0.9622939825057983,-0.44097456336021423,-3.362987995147705,0.12940645217895508,-0.5759711861610413,-0.8189590573310852,-0.28198590874671936,1.2904072999954224,-4.793676376342773,4.224502086639404
48,12255,12256,-0.26435157656669617,-0.17690308392047882,0.9584185481071472,-5.138789653778076,-3.109468698501587,0.17602717876434326,-0.5594720244407654,-0.8114594221115112,-0.2954852283000946,1.1799933910369873,-4.821055889129639,4.3445563316345215
49,12265,12266,-0.1947007179260254,-0.04759421572089195,0.9395943284034729,-5.53731107711792,0.9049668908119202,-0.7440356612205505,-0.5789710283279419,-0.8159592151641846,-0.28198590874671936,1.285048007965088,-4.96325159072876,4.345458984375
50,12275,12276,-0.2521022856235504,-0.03177178278565407,1.0142675638198853,-1.5467948913574219,0.887822687625885,-1.8371444940567017,-0.5654717087745667,-0.80545973777771,-0.2924853563308716,1.1823716163635254,-4.884905815124512,4.384737014770508
51,12285,12286,-0.050929006189107895,0.11597046256065369,0.975504994392395,6.5590057373046875,-2.8379950523376465,-2.320780038833618,-0.5669716596603394,-0.8039597868919373,-0.2939853072166443,1.2252247333526611,-4.88273286819458,4.3109917640686035
52,12295,12296,-0.4320976436138153,-0.19588236510753632,1.0147504806518555,17.235620498657227,-5.609655380249023,-2.7190279960632324,-0.5579720735549927,-0.8219588994979858,-0.3059847056865692,1.2605253458023071,-4.807448863983154,4.279415130615234
53,12305,12306,-0.4584963321685791,-0.47063302993774414,0.9956286549568176,27.704235076904297,-4.50776481628418,-1.442812442779541,-0.562471866607666,-0.8234587907791138,-0.28948551416397095,1.379065990447998,-4.758447170257568,4.232812404632568
54,12315,12316,-0.1382129043340683,-0.07523102313280106,1.0146251916885376,34.416648864746094,-2.5267417430877686,0.8602402806282043,-0.562471866607666,-0.8294585347175598,-0.2954852283000946,1.3369120359420776,-4.34289026260376,4.248347282409668
55,12325,12326,0.0576978474855423,0.024164820089936256,1.024417757987976,35.141357421875,-1.799803376197815,1.4302297830581665,-0.5594720244407654,-0.8204589486122131,-0.3044847846031189,1.4811097383499146,-4.117491722106934,4.193926811218262
56,12335,12336,-0.05562092363834381,-0.3494137227535248,1.0454779863357544,29.013925552368164,-2.9836790561676025,1.1222325563430786,-0.5534723401069641,-0.8324583768844604,-0.29848507046699524,1.385048270225525,-3.8911893367767334,4.282386779785156
57,12345,12346,-0.9177589416503906,-0.7221474647521973,1.0122970342636108,25.002843856811523,-5.291106700897217,1.1116268634796143,-0.5444727540016174,-0.8264586329460144,-0.30748462677001953,1.5295987129211426,-3.580787420272827,4.216678619384766
58,12355,12356,-1.621463418006897,-0.7690661549568176,1.0412991046905518,24.436914443969727,-4.6077189445495605,2.7949137687683105,-0.562471866607666,-0.8354582190513611,-0.28948551416397095,1.4208625555038452,-3.247572183609009,4.30548095703125
59,12365,12366,-0.807662844657898,-0.7234752774238586,1.026963233947754,27.076196670532227,-2.880202293395996,4.835288047790527,-0.5669716596603394,-0.8189590573310852,-0.29098543524742126,1.2440547943115234,-2.9200398921966553,4.431661605834961
60,12375,12376,-0.5002108812332153,-0.16324250400066376,1.0585384368896484,28.399303436279297,-0.840080976486206,7.458804130554199,-0.554972231388092,-0.8399580121040344,-0.3059847056865692,1.2614763975143433,-2.8414151668548584,4.49987268447876
61,12385,12386,-0.0761406272649765,0.07843542844057083,1.0342010259628296,25.330280303955078,5.863532066345215,10.30215835571289,-0.5609719157218933,-0.8399580121040344,-0.3059847056865692,1.3067082166671753,-2.457819938659668,4.5450310707092285
62,12395,12396,-0.015012729912996292,0.10578200221061707,1.0140399932861328,18.415971755981445,10.624839782714844,12.741263389587402,-0.5654717087745667,-0.8354582190513611,-0.28948551416397095,1.167317509651184,-2.272754192352295,4.678971290588379
63,12405,12406,-0.5538868308067322,0.06328197568655014,1.0234851837158203,4.444507598876953,8.197924613952637,12.772982597351074,-0.5654717087745667,-0.8234587907791138,-0.3014849126338959,1.0695661306381226,-2.1483187675476074,4.804879665374756
64,12415,12416,-0.993956983089447,-0.21509413421154022,0.9595966935157776,-11.410327911376953,1.908599853515625,11.15165901184082,-0.5504724383354187,-0.8264586329460144,-0.2954852283000946,1.02297842502594,-2.151486873626709,4.934688568115234
65,12425,12426,-0.5025447607040405,-0.8617503046989441,1.0032997131347656,-20.052562713623047,-6.413091659545898,10.207704544067383,-0.562471866607666,-0.8384580612182617,-0.29848507046699524,0.9713563919067383,-2.2930750846862793,5.058569431304932
66,12435,12436,-0.36432161927223206,-0.6631833910942078,1.012259602546692,-18.087926864624023,-11.559771537780762,9.896886825561523,-0.5564721822738647,-0.8264586329460144,-0.30748462677001953,1.040136456489563,-2.550813674926758,5.154321670532227
67,12445,12446,-0.4330829977989197,-0.20742446184158325,1.0088186264038086,-8.475582122802734,-12.6707763671875,9.247775077819824,-0.5609719157218933,-0.8219588994979858,-0.3029848337173462,1.2544986009597778,-2.610570192337036,5.218641757965088
68,12455,12456,-0.9605708718299866,-0.6201322078704834,1.03643798828125,5.3955512046813965,-10.00192642211914,8.822806358337402,-0.5729713439941406,-0.8159592151641846,-0.29098543524742126,1.3858970403671265,-2.7221996784210205,5.308228492736816
69,12465,12466,-0.3439411222934723,-0.423768550157547,0.9980883598327637,19.67418098449707,-3.762781858444214,8.522128105163574,-0.5609719157218933,-0.8189590573310852,-0.28498575091362,1.537909746170044,-2.685534715652466,5.391964912414551
70,12475,12476,-0.4608555734157562,-0.0980018898844719,0.9641870856285095,33.53948974609375,-1.3869155645370483,6.266013145446777,-0.5564721822738647,-0.8324583768844604,-0.3044847846031189,1.4766995906829834,-2.551783800125122,5.5009379386901855
71,12485,12486,-0.4601201117038727,-0.061389245092868805,0.9967527985572815,43.97442626953125,1.334342360496521,5.402446746826172,-0.5639718174934387,-0.8339582681655884,-0.28498575091362,1.527970552444458,-2.211031913757324,5.567267417907715
72,12495,12496,-0.03534466400742531,0.10462965816259384,0.9382964968681335,51.56839370727539,4.800124168395996,5.212245464324951,-0.5654717087745667,-0.8414579033851624,-0.30748462677001953,1.4845242500305176,-1.6435490846633911,5.604517936706543
73,12505,12506,-0.23024551570415497,0.14003895223140717,0.9757525324821472,50.29489517211914,14.78294849395752,4.581335067749023,-0.5714713931083679,-0.8294585347175598,-0.30748462677001953,1.4036873579025269,-1.3378574848175049,5.680279731750488
74,12515,12516,-0.172039195895195,0.032419413328170776,1.0151783227920532,40.91408157348633,21.25577163696289,3.0344796180725098,-0.5669716596603394,-0.8429578542709351,-0.2969851493835449,1.234785795211792,-0.7674396634101868,5.725712776184082
75,12525,12526,-0.2516447603702545,0.06116509810090065,0.9865077137947083,28.447526931762695,27.844675064086914,1.0323970317840576,-0.5684715509414673,-0.8384580612182617,-0.30748462677001953,1.1294537782669067,-0.48677149415016174,5.7718610763549805
76,12535,12536,-0.3134904205799103,-0.16140873730182648,0.9933611750602722,19.335704803466797,27.580102920532227,0.7415956258773804,-0.5804709792137146,-0.8474575877189636,-0.3044847846031189,0.7750309705734253,-0.09542371332645416,5.789292335510254
77,12545,12546,-0.2484365701675415,-0.1742984801530838,0.9344378113746643,16.442487716674805,19.815448760986328,2.3303020000457764,-0.5714713931083679,-0.8594570159912109,-0.29848507046699524,0.4489874243736267,0.15740707516670227,5.790258884429932
78,12555,12556,-0.8219942450523376,0.05655275285243988,0.9660868644714355,15.496415138244629,9.518961906433105,2.2193453311920166,-0.5834708213806152,-0.8474575877189636,-0.30748462677001953,0.3373761475086212,0.22684060037136078,5.81933069229126
79,12565,12566,-0.6828632354736328,0.008104912005364895,1.053769588470459,15.813484191894531,-1.747749924659729,2.439683437347412,-0.562471866607666,-0.844457745552063,-0.29848507046699524,0.21572990715503693,0.4311158359050751,5.842615127563477
80,12575,12576,-0.9658418297767639,-0.01273798756301403,1.0400114059448242,17.90941619873047,-8.169785499572754,4.169687271118164,-0.5714713931083679,-0.8354582190513611,-0.31048446893692017,0.40013277530670166,0.49634769558906555,5.892083644866943
81,12585,12586,-0.6845688819885254,-0.09294044971466064,1.022396206855774,18.796770095825195,-8.058822631835938,5.87030029296875,-0.5579720735549927,-0.836958110332489,-0.31798410415649414,0.3829030394554138,0.7244527339935303,5.914085865020752
82,12595,12596,-0.0926598384976387,-0.16752971708774567,0.9102625846862793,16.469371795654297,-3.1697661876678467,5.022883892059326,-0.5744712948799133,-0.8534573316574097,-0.3044847846031189,0.5003818273544312,0.617300271987915,5.970589637756348
83,12605,12606,0.0609319731593132,-0.13865534961223602,0.9042959213256836,11.624571800231934,1.0955767631530762,3.083552122116089,-0.5669716596603394,-0.851957380771637,-0.2969851493835449,0.5410389304161072,0.893685519695282,6.023770809173584
84,12615,12616,-0.09453534334897995,-0.18731535971164703,0.9525980949401855,10.933938026428223,6.980356693267822,1.4363330602645874,-0.5849707126617432,-0.8339582681655884,-0.29998499155044556,0.5804014205932617,1.1832249164581299,6.075854301452637
85,12625,12626,-0.1299392431974411,-0.16673296689987183,0.9791944026947021,13.611591339111328,11.820098876953125,0.9282646179199219,-0.5714713931083679,-0.8534573316574097,-0.3014849126338959,0.6466743350028992,1.1185275316238403,6.130289554595947
86,12635,12636,-0.6112689971923828,-0.01529297698289156,1.0233203172683716,15.330995559692383,15.71700668334961,2.0598299503326416,-0.577471137046814,-0.8594570159912109,-0.3254837095737457,0.4157778322696686,1.421250820159912,6.107079982757568
87,12645,12646,-0.5222657322883606,0.2014041543006897,1.0049083232879639,13.85010051727295,21.442317962646484,3.750839948654175,-0.5789710283279419,-0.851957380771637,-0.3239837884902954,0.22614699602127075,1.3906630277633667,6.095007419586182
88,12655,12656,-0.175540491938591,0.0802086740732193,1.0537505149841309,10.075541496276855,22.081653594970703,6.181422710418701,-0.5714713931083679,-0.8534573316574097,-0.30748462677001953,0.019771767780184746,1.624476671218872,6.134199619293213
89,12665,12666,-0.3311205208301544,-0.17851021885871887,1.001644253730774,3.508866548538208,16.157825469970703,8.093155860900879,-0.5744712948799133,-0.8534573316574097,-0.3134843111038208,-0.17334303259849548,1.696313500404358,6.20389986038208
90,12675,12676,-0.26960664987564087,-0.17046695947647095,0.9615171551704407,-6.07204008102417,9.281375885009766,9.480514526367188,-0.5669716596603394,-0.8609569072723389,-0.32698363065719604,-0.33901745080947876,1.8013008832931519,6.295588493347168
91,12685,12686,-0.2944985032081604,-0.15371400117874146,0.9680002331733704,-14.852337837219238,-0.06654225289821625,8.897528648376465,-0.56997150182724,-0.8489575386047363,-0.3209839463233948,-0.46614810824394226,1.6898137331008911,6.378028869628906
92,12695,12696,-0.1007610559463501,0.0017071006586775184,1.020787239074707,-19.463918685913086,-10.525291442871094,9.491637229919434,-0.56997150182724,-0.8429578542709351,-0.30898454785346985,-0.43496227264404297,1.5229239463806152,6.492142677307129
93,12705,12706,-0.0677959993481636,0.08998178690671921,0.992353081703186,-16.34700584411621,-19.326690673828125,10.08089828491211,-0.5654717087745667,-0.8474575877189636,-0.3134843111038208,-0.24832016229629517,1.3135900497436523,6.6344404220581055
94,12715,12716,-0.3051801323890686,-0.040701303631067276,1.0735597610473633,-9.980536460876465,-23.183605194091797,9.54818058013916,-0.5639718174934387,-0.8429578542709351,-0.3149842321872711,-0.09989933669567108,1.1516876220703125,6.72365140914917
95,12725,12726,-0.3958558440208435,0.004744602832943201,0.9184777736663818,1.025840163230896,-20.375728607177734,9.446419715881348,-0.562471866607666,-0.8414579033851624,-0.3134843111038208,0.26504769921302795,1.100950837135315,6.8849005699157715
96,12735,12736,-0.016983693465590477,-0.02618885412812233,0.9878720641136169,9.025444030761719,-19.07955551147461,8.276009559631348,-0.5594720244407654,-0.850457489490509,-0.31048446893692017,0.5185274481773376,1.1309846639633179,6.99875020980835
97,12745,12746,-0.020030876621603966,-0.005014712922275066,0.9332864284515381,14.381246566772461,-13.888405799865723,7.662915229797363,-0.5684715509414673,-0.8474575877189636,-0.3134843111038208,0.6535844802856445,1.2735662460327148,7.057140350341797
98,12755,12756,-0.12180195748806,-0.4144209623336792,1.019307017326355,16.95556640625,-4.134925365447998,7.718567848205566,-0.5684715509414673,-0.8564571738243103,-0.3224838674068451,0.8081790208816528,1.5627341270446777,7.155223846435547
99,12765,12766,-0.006785531062632799,-0.4173625409603119,1.050755262374878,14.748743057250977,3.992218017578125,8.175336837768555,-0.562471866607666,-0.8564571738243103,-0.3224838674068451,0.8952550292015076,1.4967626333236694,7.220019340515137
100,12775,12776,-0.23756049573421478,-0.1835821121931076,1.0910240411758423,6.60233736038208,11.78861141204834,8.073921203613281,-0.5594720244407654,-0.8564571738243103,-0.3044847846031189,0.7931370735168457,1.469260573387146,7.232637405395508
101,12785,12786,-0.1065274253487587,-0.35450315475463867,1.0336971282958984,-5.792247295379639,18.9718017578125,6.3943681716918945,-0.5729713439941406,-0.851957380771637,-0.30898454785346985,0.6274465918540955,1.5881673097610474,7.282681941986084
102,12795,12796,-0.09291157126426697,-0.11054941266775131,0.9765870571136475,-16.190099716186523,25.43644142150879,4.756627559661865,-0.5639718174934387,-0.851957380771637,-0.30898454785346985,0.574354887008667,1.4557276964187622,7.406673908233643
103,12805,12806,-0.07440846413373947,-0.10644645243883133,0.9504311680793762,-21.426353454589844,26.153663635253906,3.0604188442230225,-0.5639718174934387,-0.836958110332489,-0.3029848337173462,0.2226291447877884,1.2556816339492798,7.398849964141846
104,12815,12816,-0.11572758108377457,-0.03638520836830139,0.9692208766937256,-22.76336669921875,23.436138153076172,1.5562926530838013,-0.5714713931083679,-0.8354582190513611,-0.3044847846031189,-0.00016930056153796613,1.115640640258789,7.459774971008301
105,12825,12826,-0.4900578558444977,-0.22331953048706055,0.9481356739997864,-21.84823226928711,16.883943557739258,-1.9218496084213257,-0.5654717087745667,-0.8474575877189636,-0.3014849126338959,-0.173505038022995,0.8149046897888184,7.518579483032227
106,12835,12836,-0.2701590061187744,-0.0858333557844162,0.9487291574478149,-12.053967475891113,6.783944129943848,-3.451040267944336,-0.56997150182724,-0.8309584259986877,-0.3059847056865692,-0.4413713812828064,0.7833020687103271,7.492778778076172
107,12845,12846,-0.5367006659507751,0.008932871744036674,0.9749678373336792,4.438122749328613,-3.9380204677581787,-4.043072700500488,-0.56997150182724,-0.8309584259986877,-0.3059847056865692,-0.2862669825553894,0.569084644317627,7.589372158050537
108,12855,12856,-0.34603944420814514,0.0066751171834766865,0.9315357804298401,15.085227966308594,-12.62854290008545,-4.138965129852295,-0.56997150182724,-0.8309584259986877,-0.3059847056865692,-0.24627003073692322,0.7035525441169739,7.583877086639404
109,12865,12866,-0.5340628623962402,-0.01080729067325592,0.9822681546211243,27.10386848449707,-14.756094932556152,-3.258798599243164,-0.5654717087745667,-0.844457745552063,-0.30748462677001953,-0.10044205188751221,0.6900255084037781,7.54705810546875
110,12875,12876,-0.14128640294075012,0.02876032516360283,0.9914289712905884,31.45586395263672,-10.215632438659668,-1.8952442407608032,-0.5729713439941406,-0.8639568090438843,-0.30898454785346985,0.06833676248788834,1.1101869344711304,7.541788578033447
111,12885,12886,-0.5212688446044922,-0.11421632766723633,0.9681000113487244,27.68616485595703,-3.657330274581909,-1.592603325843811,-0.56997150182724,-0.8549572229385376,-0.3119843900203705,0.0874355211853981,1.419603943824768,7.472418785095215
112,12895,12896,-1.152241587638855,-0.4562726318836212,0.965933084487915,19.388118743896484,6.100269794464111,-0.6506189703941345,-0.5789710283279419,-0.8699564933776855,-0.3209839463233948,0.13327361643314362,1.4551093578338623,7.415547847747803
113,12905,12906,-0.3990829288959503,-0.2786288857460022,0.9969578385353088,8.083719253540039,13.674551963806152,-0.18177983164787292,-0.5789710283279419,-0.8549572229385376,-0.3239837884902954,-0.027739452198147774,1.6502714157104492,7.345046043395996
114,12915,12916,-0.05878937989473343,-0.07560141384601593,0.9835609793663025,-6.315918922424316,17.505952835083008,-1.9449635744094849,-0.5744712948799133,-0.8594570159912109,-0.3254837095737457,-0.00876956433057785,1.6558784246444702,7.39406681060791
115,12925,12926,0.07385793328285217,0.008398219011723995,0.9760578870773315,-16.146039962768555,17.314313888549805,-2.910489320755005,-0.5729713439941406,-0.8489575386047363,-0.30898454785346985,-0.2561677396297455,1.5975890159606934,7.345034122467041
116,12935,12936,-0.5509254336357117,-0.524044930934906,0.9794214367866516,-21.782798767089844,15.8565092086792,-2.637361764907837,-0.5684715509414673,-0.8594570159912109,-0.31048446893692017,-0.49656951427459717,1.4553022384643555,7.292334079742432
117,12945,12946,-0.3672157824039459,-0.584200918674469,1.0470614433288574,-17.825288772583008,12.499733924865723,-2.0246429443359375,-0.562471866607666,-0.8594570159912109,-0.31048446893692017,-0.6943116784095764,1.2709883451461792,7.254362106323242
118,12955,12956,-0.36884912848472595,-0.08748949319124222,1.0235482454299927,-6.6660332679748535,8.101551055908203,-1.6726659536361694,-0.5714713931083679,-0.850457489490509,-0.3044847846031189,-0.905537486076355,1.1492232084274292,7.213825225830078
119,12965,12966,-0.4281558394432068,-0.0950300469994545,1.0069656372070312,2.9330286979675293,5.969301700592041,-1.7315503358840942,-0.5759711861610413,-0.8549572229385376,-0.3119843900203705,-0.8486739993095398,1.1142817735671997,7.276071071624756
120,12975,12976,-0.6424289345741272,-0.15417245030403137,0.9815482497215271,9.640432357788086,5.547173976898193,-2.4537642002105713,-0.577471137046814,-0.850457489490509,-0.31948402523994446,-0.9780825972557068,1.2188267707824707,7.250366687774658
121,12985,12986,-0.3441438674926758,-0.05996418371796608,1.0561089515686035,11.725054740905762,3.4187490940093994,-3.5563268661499023,-0.5864706635475159,-0.8594570159912109,-0.30748462677001953,-1.0850894451141357,1.2575551271438599,7.203368186950684
122,12995,12996,-0.22921328246593475,-0.006312612444162369,1.012710690498352,10.01021671295166,1.3788270950317383,-4.639906883239746,-0.5654717087745667,-0.8534573316574097,-0.3044847846031189,-0.939741849899292,1.3984836339950562,7.255908489227295
123,13005,13006,-0.11893381923437119,-0.06072269007563591,0.9892160892486572,4.82874870300293,0.21116693317890167,-5.906556129455566,-0.5744712948799133,-0.850457489490509,-0.3134843111038208,-1.059282898902893,1.6383213996887207,7.196590900421143
124,13015,13016,-0.2651044428348541,-0.012503907084465027,0.9811007976531982,-2.073862075805664,-1.2762266397476196,-7.386423587799072,-0.5759711861610413,-0.851957380771637,-0.30898454785346985,-1.0818371772766113,1.7059812545776367,7.135316848754883
125,13025,13026,-0.1259300708770752,-0.13080929219722748,0.9685842990875244,-9.531587600708008,-0.773768424987793,-7.724538803100586,-0.5759711861610413,-0.8609569072723389,-0.3209839463233948,-1.025329828262329,1.5301830768585205,7.056704044342041
126,13035,13036,-0.052146606147289276,0.020155977457761765,0.9751086235046387,-14.909984588623047,0.5039536356925964,-7.282918453216553,-0.5834708213806152,-0.8534573316574097,-0.31948402523994446,-0.9003023505210876,1.4605004787445068,7.026155948638916
127,13045,13046,-0.0934043899178505,-0.1248975470662117,1.018031358718872,-15.886137962341309,7.857053279876709,-7.2237935066223145,-0.5759711861610413,-0.8579570651054382,-0.31798410415649414,-0.9067559242248535,1.243532657623291,6.932040214538574
128,13055,13056,-0.012639377266168594,0.019597716629505157,0.9839593172073364,-14.078873634338379,13.60944938659668,-6.748537063598633,-0.577471137046814,-0.8564571738243103,-0.31948402523994446,-1.0811246633529663,1.0888389348983765,6.817446708679199
129,13065,13066,-0.22796140611171722,-0.041522081941366196,0.9761992692947388,-10.716277122497559,14.399225234985352,-6.702211380004883,-0.56997150182724,-0.8579570651054382,-0.30898454785346985,-1.1760269403457642,1.1007076501846313,6.803175449371338
130,13075,13076,-0.09654569625854492,-0.23269261419773102,0.960686981678009,-8.762121200561523,11.718496322631836,-8.167320251464844,-0.5729713439941406,-0.8549572229385376,-0.3029848337173462,-1.3448150157928467,1.0015283823013306,6.734933853149414
131,13085,13086,-0.19664911925792694,-0.11436424404382706,1.0131932497024536,-6.883594512939453,4.434454917907715,-9.655237197875977,-0.5759711861610413,-0.8579570651054382,-0.3149842321872711,-1.525054931640625,0.8694566488265991,6.632256507873535
132,13095,13096,-0.1404385268688202,-0.12819649279117584,1.032588005065918,-4.668886661529541,-4.444893836975098,-11.003558158874512,-0.577471137046814,-0.8594570159912109,-0.3224838674068451,-1.585046410560608,0.7686290144920349,6.538592338562012
133,13105,13106,0.004590135533362627,-0.0022113940212875605,0.9961104393005371,-0.9898331761360168,-15.038677215576172,-11.106244087219238,-0.5759711861610413,-0.8669566512107849,-0.3239837884902954,-1.5778650045394897,0.7138895988464355,6.4301862716674805
134,13115,13116,-0.04807585850358009,-0.01609347015619278,1.0121217966079712,0.5373354554176331,-21.831308364868164,-10.788237571716309,-0.577471137046814,-0.8594570159912109,-0.3164841830730438,-1.3319694995880127,0.7730755805969238,6.38262414932251
135,13125,13126,-0.0610007643699646,-0.10315405577421188,1.045510172843933,-2.2161264419555664,-21.47244644165039,-10.495879173278809,-0.5834708213806152,-0.8714563846588135,-0.31948402523994446,-1.1532589197158813,0.7643448710441589,6.263577461242676
136,13135,13136,-0.014492267742753029,-0.061709996312856674,1.010327935218811,-5.616920471191406,-17.470890045166016,-10.90600872039795,-0.577471137046814,-0.8594570159912109,-0.3134843111038208,-0.976159393787384,0.716250479221344,6.1360249519348145
137,13145,13146,-0.06787097454071045,-0.05171079933643341,0.9805705547332764,-7.6273956298828125,-10.042363166809082,-12.354127883911133,-0.5729713439941406,-0.8669566512107849,-0.30898454785346985,-0.8553733229637146,0.6935223340988159,6.013464450836182
138,13155,13156,-0.2874923646450043,-0.0338229201734066,1.1021255254745483,-6.905303001403809,-6.060586929321289,-13.665635108947754,-0.56997150182724,-0.8459576964378357,-0.3059847056865692,-0.6711866855621338,0.6458077430725098,5.917695045471191
139,13165,13166,-0.07162895798683167,-0.2691994905471802,1.0057576894760132,-3.5997438430786133,-0.05016814544796944,-15.206462860107422,-0.577471137046814,-0.850457489490509,-0.3134843111038208,-0.5733522772789001,0.6064949631690979,5.792960166931152
140,13175,13176,-0.04141772538423538,-0.15950970351696014,1.0121707916259766,0.655866265296936,4.282945156097412,-16.120088577270508,-0.5714713931083679,-0.8474575877189636,-0.3134843111038208,-0.6799326539039612,0.5522409081459045,5.613199234008789
141,13185,13186,-0.08107373863458633,-0.05728283151984215,1.0374372005462646,2.6062285900115967,4.809450626373291,-16.61409568786621,-0.5804709792137146,-0.8534573316574097,-0.3014849126338959,-0.7286767959594727,0.5516683459281921,5.451297283172607
142,13195,13196,0.004385137930512428,0.01921957917511463,1.0001646280288696,4.011773109436035,2.7393605709075928,-16.70762825012207,-0.5864706635475159,-0.8474575877189636,-0.3134843111038208,-0.7889671921730042,0.5831971168518066,5.2885847091674805
143,13205,13206,-0.10799986124038696,-0.06579147279262543,1.0625584125518799,5.418183326721191,0.3399244248867035,-16.807153701782227,-0.577471137046814,-0.850457489490509,-0.31048446893692017,-0.8165106773376465,0.703010082244873,5.1482133865356445
144,13215,13216,-0.03533308207988739,-0.1581897735595703,1.073408603668213,5.866473197937012,-0.9812095761299133,-16.06174659729004,-0.56997150182724,-0.8639568090438843,-0.2969851493835449,-0.8031690716743469,0.7000085711479187,4.973544120788574
145,13225,13226,-0.03685838356614113,-0.06407035887241364,1.0131617784500122,3.6703455448150635,-0.06686713546514511,-16.309783935546875,-0.5789710283279419,-0.851957380771637,-0.3119843900203705,-0.7922865152359009,0.7629290819168091,4.811844825744629
146,13235,13236,-0.09288816899061203,-0.08123351633548737,0.9712364673614502,0.6998353600502014,-0.1393156796693802,-15.473125457763672,-0.5804709792137146,-0.850457489490509,-0.30748462677001953,-0.775728702545166,0.7909760475158691,4.648261070251465
147,13245,13246,-0.11016865819692612,-0.36279019713401794,0.9193299412727356,-3.029465675354004,-2.91023325920105,-14.700596809387207,-0.5789710283279419,-0.8549572229385376,-0.3149842321872711,-0.7337658405303955,0.7632489204406738,4.489036560058594
148,13255,13256,-0.6415727138519287,-0.46490219235420227,1.0649950504302979,-6.452702045440674,-5.013827800750732,-14.418457984924316,-0.5894705057144165,-0.8474575877189636,-0.30748462677001953,-0.6510528326034546,0.7539594173431396,4.34835958480835
149,13265,13266,-0.8841720819473267,-0.2303200215101242,1.045851230621338,-7.95454740524292,-6.305386543273926,-13.284212112426758,-0.6044697761535645,-0.8384580612182617,-0.29848507046699524,-0.5662853121757507,0.6357488036155701,4.196589469909668
150,13275,13276,-0.564460039138794,0.01724429987370968,1.0586004257202148,-5.320402145385742,-7.154876708984375,-13.450526237487793,-0.5729713439941406,-0.8609569072723389,-0.30898454785346985,-0.4611717760562897,0.5072227716445923,4.058826446533203
151,13285,13286,-0.08076474070549011,0.020694674924016,1.0105869770050049,-2.2648212909698486,-8.342222213745117,-12.377212524414062,-0.5894705057144165,-0.850457489490509,-0.3164841830730438,-0.34094294905662537,0.41836032271385193,3.9284918308258057
152,13295,13296,0.019374530762434006,0.03248485177755356,1.0501372814178467,0.35118240118026733,-7.281012058258057,-11.41944408416748,-0.5939702987670898,-0.851957380771637,-0.31798410415649414,-0.6931160092353821,0.6536697745323181,3.782726287841797
153,13305,13306,-0.06435810029506683,-0.12084871530532837,0.994277834892273,-0.14448821544647217,-4.279293537139893,-10.660794258117676,-0.5879706144332886,-0.8459576964378357,-0.2969851493835449,-0.6147422790527344,0.6158484220504761,3.6581482887268066
154,13315,13316,-0.09272468090057373,-0.1938660591840744,1.0480629205703735,-0.9383828043937683,-3.339127779006958,-9.223607063293457,-0.5864706635475159,-0.850457489490509,-0.30748462677001953,-0.5022010207176208,0.5773048996925354,3.5511720180511475
155,13325,13326,-0.12797583639621735,0.0018226210959255695,1.0584707260131836,-0.8845734000205994,-1.9849796295166016,-7.988585948944092,-0.5849707126617432,-0.836958110332489,-0.30898454785346985,-0.4898596405982971,0.537477433681488,3.443737745285034
156,13335,13336,0.004153596702963114,0.0025041750632226467,1.0036396980285645,-0.2147473692893982,0.32499533891677856,-7.0235443115234375,-0.5849707126617432,-0.851957380771637,-0.2969851493835449,-0.5678315162658691,0.5657440423965454,3.352433919906616
157,13345,13346,0.009897961281239986,0.02452237345278263,1.031042218208313,2.6880016326904297,0.8570922017097473,-6.49854040145874,-0.5804709792137146,-0.8474575877189636,-0.3014849126338959,-0.594643771648407,0.5434638261795044,3.2709920406341553
158,13355,13356,-0.039585500955581665,-0.03253774344921112,1.0340118408203125,2.202119827270508,-0.007220726925879717,-5.629762649536133,-0.5849707126617432,-0.8639568090438843,-0.3239837884902954,-0.5601644515991211,0.544494092464447,3.2091617584228516
159,13365,13366,-0.07805934548377991,0.02911161072552204,1.0735512971878052,-3.0466880798339844,-2.8689448833465576,-4.297246932983398,-0.5864706635475159,-0.8474575877189636,-0.3014849126338959,-0.5082271099090576,0.5278024673461914,3.1492726802825928
160,13375,13376,0.022859374061226845,-0.1883876621723175,0.9737722873687744,-9.814435005187988,-5.37746524810791,-3.1568727493286133,-0.5924703478813171,-0.8594570159912109,-0.30748462677001953,-0.421340674161911,0.4357168972492218,3.098804473876953
161,13385,13386,-0.37341856956481934,-0.05866073817014694,1.072846531867981,-14.365488052368164,-7.376068115234375,-2.0210702419281006,-0.5819708704948425,-0.8429578542709351,-0.3059847056865692,-0.49919256567955017,0.5315118432044983,3.0739738941192627
162,13395,13396,-0.4440784454345703,-0.0975407212972641,1.0795022249221802,-14.177750587463379,-9.083019256591797,-0.29299867153167725,-0.5804709792137146,-0.8474575877189636,-0.3134843111038208,-0.3260560929775238,0.3503114879131317,3.052215099334717
163,13405,13406,-0.20659908652305603,-0.24881838262081146,1.0152839422225952,-11.320942878723145,-11.22687816619873,1.8579460382461548,-0.5849707126617432,-0.8489575386047363,-0.3029848337173462,-0.26984745264053345,0.10537169128656387,3.027420997619629
164,13415,13416,-0.17186643183231354,-0.11020684987306595,0.989759624004364,-8.415019035339355,-10.794700622558594,3.2738685607910156,-0.5759711861610413,-0.8399580121040344,-0.3119843900203705,-0.0547790564596653,-0.09116169810295105,3.0387163162231445
165,13425,13426,-0.023658253252506256,0.07481711357831955,1.029879093170166,-7.979576587677002,-9.365084648132324,3.8209359645843506,-0.5849707126617432,-0.8399580121040344,-0.2939853072166443,-0.2626875042915344,-0.11165294796228409,3.0486879348754883
166,13435,13436,-0.31898918747901917,0.05408297851681709,1.0438495874404907,-6.7478837966918945,-7.337601184844971,3.5218286514282227,-0.5759711861610413,-0.8309584259986877,-0.30898454785346985,-0.12846243381500244,-0.19080856442451477,3.0894415378570557
167,13445,13446,-0.6900028586387634,-0.4123738408088684,1.0062922239303589,-5.371153354644775,-6.291392803192139,2.5373473167419434,-0.5894705057144165,-0.8264586329460144,-0.28948551416397095,-0.024451451376080513,-0.3169313669204712,3.1218903064727783
168,13455,13456,-0.632291853427887,-0.44175684452056885,1.012465476989746,-2.504547119140625,-5.565403461456299,1.3065370321273804,-0.5894705057144165,-0.8354582190513611,-0.3134843111038208,-0.0754832923412323,-0.40773069858551025,3.1457338333129883
169,13465,13466,-0.22794680297374725,-0.0428997203707695,0.9819391369819641,1.556042194366455,-4.970525741577148,0.5827288031578064,-0.5864706635475159,-0.8234587907791138,-0.30748462677001953,0.0779847651720047,-0.31149837374687195,3.1740386486053467
170,13475,13476,-0.1846732348203659,0.06159945949912071,1.0228161811828613,5.052456855773926,-4.5977678298950195,0.16733567416667938,-0.5819708704948425,-0.8339582681655884,-0.29098543524742126,0.0774267315864563,-0.16598708927631378,3.190585136413574
171,13485,13486,-0.03970625251531601,0.044020410627126694,0.976201057434082,4.277292728424072,-3.1559348106384277,-0.6411657929420471,-0.5999699831008911,-0.8309584259986877,-0.29998499155044556,0.20614613592624664,-0.06650130450725555,3.19643497467041
172,13495,13496,-0.12136966735124588,-0.008720130659639835,1.0291653871536255,0.8679044842720032,-2.9273862838745117,-0.9614875912666321,-0.5804709792137146,-0.8294585347175598,-0.3044847846031189,0.25011688470840454,-0.05259250849485397,3.191239356994629
173,13505,13506,-0.09124277532100677,-0.07029259949922562,0.9223573207855225,-5.068634986877441,-6.2733354568481445,-0.9962570667266846,-0.577471137046814,-0.8234587907791138,-0.2954852283000946,0.30500486493110657,-0.09374090284109116,3.181307792663574
174,13515,13516,-0.2195572406053543,0.011644991114735603,1.008281946182251,-11.32289981842041,-10.92534351348877,-1.686134934425354,-0.5819708704948425,-0.8309584259986877,-0.29098543524742126,0.26407405734062195,-0.1511613428592682,3.1723039150238037
175,13525,13526,-0.02893279679119587,0.04907248541712761,0.965134859085083,-14.008569717407227,-13.536178588867188,-3.4972894191741943,-0.5759711861610413,-0.8219588994979858,-0.29998499155044556,0.2236369252204895,-0.15101025998592377,3.1614224910736084
176,13535,13536,-0.014370787888765335,-0.018606558442115784,0.9816713929176331,-9.73278522491455,-12.941092491149902,-5.203704833984375,-0.5864706635475159,-0.8234587907791138,-0.29848507046699524,0.3647160530090332,-0.3145952820777893,3.131302833557129
177,13545,13546,-0.02732052654027939,0.0689718946814537,0.9752376079559326,-4.574537754058838,-10.28735637664795,-5.729851245880127,-0.5804709792137146,-0.8234587907791138,-0.29848507046699524,0.5603591203689575,-0.42460548877716064,3.0847692489624023
178,13555,13556,-0.06132431700825691,-0.09446773678064346,0.9799498915672302,2.1651852130889893,-6.060539245605469,-6.525056838989258,-0.5894705057144165,-0.8114594221115112,-0.3044847846031189,0.6300346255302429,-0.37813836336135864,3.0283732414245605
179,13565,13566,-0.08554429560899734,-0.06915386766195297,0.97373366355896,7.502031326293945,-1.3602230548858643,-7.556204319000244,-0.5864706635475159,-0.8174591064453125,-0.2924853563308716,0.7005500197410583,-0.37913864850997925,2.9664433002471924
180,13575,13576,-0.2734312117099762,-0.19856081902980804,0.9837630987167358,10.91021728515625,3.125601053237915,-8.898215293884277,-0.5804709792137146,-0.8234587907791138,-0.3014849126338959,0.7754995226860046,-0.3014609217643738,2.8903706073760986
181,13585,13586,-0.21729589998722076,-0.033570900559425354,0.9533697962760925,12.450654983520508,3.5528206825256348,-9.516843795776367,-0.5804709792137146,-0.8354582190513611,-0.29848507046699524,0.7977645397186279,-0.16939078271389008,2.801379919052124
182,13595,13596,-0.11426933109760284,-0.001878560520708561,0.988941490650177,11.120100021362305,0.6789611577987671,-9.470827102661133,-0.5924703478813171,-0.8414579033851624,-0.29848507046699524,0.8082978129386902,-0.026032423600554466,2.7042758464813232
183,13605,13606,0.009541300125420094,0.03929530829191208,0.9467966556549072,5.039572715759277,-2.5550918579101562,-9.677252769470215,-0.5909704566001892,-0.836958110332489,-0.29998499155044556,0.8500471115112305,-0.05755188316106796,2.618445634841919
184,13615,13616,-0.011989383026957512,-0.014064189046621323,0.9679646492004395,-0.9838562607765198,-7.303454399108887,-9.912771224975586,-0.5819708704948425,-0.836958110332489,-0.2939853072166443,0.8095402717590332,0.11673171818256378,2.5154504776000977
185,13625,13626,-0.05072057992219925,0.031545523554086685,0.9825179576873779,-5.579859256744385,-8.548783302307129,-10.741912841796875,-0.5924703478813171,-0.8264586329460144,-0.3044847846031189,0.7608268857002258,0.05300687253475189,2.4284284114837646
186,13635,13636,0.011851318180561066,0.01656538061797619,0.9498480558395386,-8.800996780395508,-8.086872100830078,-9.720165252685547,-0.5789710283279419,-0.8459576964378357,-0.2969851493835449,0.887737512588501,-0.008343307301402092,2.3225998878479004
187,13645,13646,-0.10753505676984787,-0.06478593498468399,0.9914094805717468,-9.22542953491211,-6.394139289855957,-8.35506534576416,-0.5789710283279419,-0.8309584259986877,-0.29998499155044556,0.8635527491569519,-0.0385470949113369,2.222813129425049
188,13655,13656,-0.36662209033966064,-0.2249704748392105,1.0138381719589233,-6.808333873748779,-5.593657970428467,-7.576966285705566,-0.5864706635475159,-0.8354582190513611,-0.29848507046699524,1.030598521232605,-0.14627395570278168,2.1315929889678955
189,13665,13666,-0.6618371605873108,-0.3802105188369751,1.049950122833252,-6.309081554412842,-5.887846946716309,-6.5887274742126465,-0.5864706635475159,-0.8234587907791138,-0.29848507046699524,1.100507140159607,-0.2983657717704773,2.0641427040100098
190,13675,13676,-0.18029548227787018,-0.10303585231304169,1.0114095211029053,-7.557984352111816,-7.281057834625244,-7.406334400177002,-0.5819708704948425,-0.8309584259986877,-0.29998499155044556,1.1080570220947266,-0.1585988700389862,1.9692074060440063
191,13685,13686,-0.03154788166284561,0.047959163784980774,1.1121829748153687,-9.158343315124512,-7.222485542297363,-8.724334716796875,-0.5879706144332886,-0.8309584259986877,-0.2969851493835449,1.2679411172866821,-0.330335795879364,1.909908413887024
192,13695,13696,-0.0032722498290240765,-0.03555665910243988,0.9758508801460266,-11.833816528320312,-4.355279445648193,-9.726702690124512,-0.5744712948799133,-0.8324583768844604,-0.2954852283000946,1.204585313796997,-0.4530417323112488,1.8404840230941772
193,13705,13706,-0.0818776935338974,0.038169197738170624,1.0488263368606567,-11.414682388305664,0.8822256326675415,-9.84155559539795,-0.5654717087745667,-0.8204589486122131,-0.3014849126338959,1.307126522064209,-0.6620982885360718,1.7614459991455078
194,13715,13716,-0.06816267967224121,-0.02344011701643467,0.9938589334487915,-5.393857002258301,4.628500461578369,-9.111680030822754,-0.5654717087745667,-0.8204589486122131,-0.3014849126338959,1.2648911476135254,-0.6313023567199707,1.6404531002044678
195,13725,13726,-0.5312983393669128,-0.1415645331144333,1.0529463291168213,1.1319276094436646,5.744534015655518,-6.621279716491699,-0.5654717087745667,-0.8204589486122131,-0.3014849126338959,1.3074418306350708,-0.6761241555213928,1.5349254608154297
196,13735,13736,-0.27381429076194763,-0.06543758511543274,1.0088653564453125,10.229110717773438,8.323088645935059,-3.806488037109375,-0.5834708213806152,-0.8264586329460144,-0.2924853563308716,1.242052435874939,-0.6033853888511658,1.4390636682510376
197,13745,13746,-0.007872355170547962,0.038124941289424896,0.9508715867996216,15.429975509643555,11.176981925964355,-2.426339626312256,-0.5849707126617432,-0.8249587416648865,-0.28798559308052063,1.1434253454208374,-0.41130608320236206,1.3667272329330444
198,13755,13756,-0.08775236457586288,-0.04739602282643318,0.9978889226913452,14.092968940734863,13.449764251708984,-0.901713490486145,-0.5924703478813171,-0.8234587907791138,-0.2864856719970703,0.9985664486885071,-0.4384550452232361,1.3742623329162598
199,13765,13766,-0.08809945732355118,-0.08115290850400925,0.9815118908882141,7.954016208648682,14.7459716796875,1.1141325235366821,-0.6014699339866638,-0.8264586329460144,-0.2924853563308716,0.8933387398719788,-0.27069175243377686,1.353797197341919
200,13775,13776,-0.024842366576194763,-0.0211101695895195,0.932113528251648,-4.4158453941345215,14.6360445022583,2.503561019897461,-0.5954701900482178,-0.8234587907791138,-0.29848507046699524,0.6983186602592468,-0.22723259031772614,1.3731151819229126
201,13785,13786,-0.1343308538198471,-0.0768628939986229,0.9815506935119629,-13.07559585571289,12.207143783569336,2.4560399055480957,-0.5879706144332886,-0.8399580121040344,-0.3029848337173462,0.5893416404724121,-0.2596063017845154,1.3961602449417114
202,13795,13796,-0.015457401983439922,0.012686382047832012,0.9434898495674133,-19.426462173461914,10.141365051269531,1.422937273979187,-0.5849707126617432,-0.8189590573310852,-0.29998499155044556,0.5052210688591003,-0.2346070110797882,1.393823504447937
203,13805,13806,-0.13821622729301453,-0.050974246114492416,1.0198521614074707,-17.654664993286133,6.968576908111572,-0.841718316078186,-0.5849707126617432,-0.8309584259986877,-0.3029848337173462,0.4582745134830475,-0.42283934354782104,1.4120433330535889
204,13815,13816,-0.27834615111351013,-0.12213107943534851,0.9758197069168091,-8.620920181274414,1.2273974418640137,-1.96760094165802,-0.5879706144332886,-0.8279585838317871,-0.29998499155044556,0.394423246383667,-0.5766586065292358,1.4043619632720947
205,13825,13826,-0.2797810137271881,-0.14597156643867493,0.9932446479797363,3.1018259525299072,-4.8435959815979,-1.4849244356155396,-0.5849707126617432,-0.8249587416648865,-0.2969851493835449,0.4136568605899811,-0.7236571311950684,1.3883984088897705
206,13835,13836,-0.037028588354587555,0.0035022797528654337,0.964211106300354,15.197284698486328,-7.691582679748535,-0.19476008415222168,-0.5849707126617432,-0.8249587416648865,-0.3029848337173462,0.440245121717453,-0.6154760122299194,1.3551489114761353
207,13845,13846,-0.04138496518135071,0.00789236556738615,0.981262743473053,23.559473037719727,-7.242848873138428,1.0536882877349854,-0.577471137046814,-0.8354582190513611,-0.28948551416397095,0.5738285779953003,-0.5482460260391235,1.3492562770843506
208,13855,13856,-0.16420452296733856,0.019190648570656776,1.0049008131027222,23.102672576904297,-7.583682060241699,2.0868992805480957,-0.5894705057144165,-0.8354582190513611,-0.3014849126338959,0.7054263353347778,-0.23831656575202942,1.3348084688186646
209,13865,13866,-0.09294729679822922,-0.10818707197904587,0.9752849340438843,14.350303649902344,-8.668123245239258,2.810370922088623,-0.5849707126617432,-0.8339582681655884,-0.3029848337173462,0.7677029371261597,0.04613153263926506,1.3467280864715576
210,13875,13876,-0.0811338946223259,-0.10030228644609451,0.9203896522521973,-2.136174201965332,-8.108003616333008,1.5549577474594116,-0.5729713439941406,-0.836958110332489,-0.3029848337173462,0.9021021127700806,-0.03522799164056778,1.4029597043991089
211,13885,13886,-0.006749656051397324,0.022227467969059944,0.9692961573600769,-19.184309005737305,-4.978537559509277,-1.7070889472961426,-0.5789710283279419,-0.8309584259986877,-0.3149842321872711,0.8809725046157837,-0.1366225928068161,1.4504988193511963
212,13895,13896,-0.12253332138061523,-0.014141096733510494,0.991849422454834,-31.604955673217773,-0.9471206068992615,-5.48028564453125,-0.5729713439941406,-0.8279585838317871,-0.28798559308052063,0.9642161726951599,-0.13491778075695038,1.4252924919128418
213,13905,13906,-0.02785499580204487,0.0017589773051440716,0.9418751001358032,-34.63497543334961,-1.0720648765563965,-8.010334014892578,-0.5714713931083679,-0.8294585347175598,-0.30748462677001953,1.0017759799957275,-0.5865737795829773,1.408512830734253
214,13915,13916,-0.09579306840896606,0.02151528000831604,1.0354654788970947,-25.338623046875,-5.422640323638916,-10.982882499694824,-0.5909704566001892,-0.8339582681655884,-0.3029848337173462,1.0448601245880127,-0.8284208178520203,1.3200618028640747
215,13925,13926,-0.04006419703364372,-0.042115360498428345,0.9800616502761841,-10.203323364257812,-5.033409595489502,-13.00043773651123,-0.5729713439941406,-0.8309584259986877,-0.28498575091362,1.0447518825531006,-1.0082734823226929,1.209806203842163
216,13935,13936,-0.011343942023813725,0.05546044185757637,0.9986838698387146,6.1543121337890625,-1.6954119205474854,-13.995585441589355,-0.5729713439941406,-0.8279585838317871,-0.28498575091362,1.1075780391693115,-1.1017067432403564,1.0769948959350586
217,13945,13946,-0.16690558195114136,-0.28620538115501404,1.037322998046875,19.138456344604492,-1.4061013460159302,-13.206402778625488,-0.5864706635475159,-0.8264586329460144,-0.3044847846031189,1.2085940837860107,-1.019504189491272,0.9217309951782227
218,13955,13956,-0.17239786684513092,-0.06741490215063095,1.0122897624969482,27.848613739013672,3.233180522918701,-11.599055290222168,-0.6014699339866638,-0.8324583768844604,-0.2954852283000946,1.1991546154022217,-0.7381847500801086,0.764870822429657
219,13965,13966,-0.06287002563476562,0.037380121648311615,0.9717587232589722,26.966142654418945,9.428389549255371,-11.340535163879395,-0.5924703478813171,-0.8264586329460144,-0.31048446893692017,1.1965545415878296,-0.5746747255325317,0.6568739414215088
220,13975,13976,-0.4337891936302185,-0.0626167505979538,0.9415033459663391,21.98610496520996,13.577131271362305,-10.8499755859375,-0.5804709792137146,-0.8354582190513611,-0.2834858298301697,1.0423184633255005,-0.2659666836261749,0.5464207530021667
221,13985,13986,-0.6101669073104858,-0.08281432837247849,1.0239596366882324,15.585491180419922,16.299558639526367,-9.015131950378418,-0.5954701900482178,-0.8384580612182617,-0.2924853563308716,0.9602040648460388,-0.03830638900399208,0.4345499575138092
222,13995,13996,-0.3374546766281128,-0.14685125648975372,1.0053880214691162,5.784910202026367,18.56597137451172,-6.072166442871094,-0.5864706635475159,-0.8414579033851624,-0.3044847846031189,0.6868907809257507,0.14217236638069153,0.3489771783351898
223,14005,14006,-0.14380501210689545,-0.08657936751842499,1.0307214260101318,-3.139904260635376,15.993324279785156,-3.804084539413452,-0.5894705057144165,-0.8354582190513611,-0.30748462677001953,0.5476581454277039,0.17805753648281097,0.2842026352882385
224,14015,14016,-0.055140115320682526,-0.323058545589447,0.9600929021835327,-13.779330253601074,11.50680923461914,-1.677538514137268,-0.5999699831008911,-0.8339582681655884,-0.2939853072166443,0.3795749545097351,0.12965087592601776,0.24883009493350983
225,14025,14026,-0.7009700536727905,-0.8901883959770203,0.998036801815033,-23.433685302734375,8.068962097167969,-0.16123056411743164,-0.5849707126617432,-0.836958110332489,-0.29098543524742126,0.2776355743408203,-0.14256592094898224,0.24774625897407532
226,14035,14036,-0.6490233540534973,-0.501253068447113,0.9749963283538818,-30.507131576538086,6.80219841003418,1.3820077180862427,-0.5894705057144165,-0.8204589486122131,-0.3014849126338959,0.3648706078529358,-0.13577935099601746,0.20624004304409027
227,14045,14046,-0.3122999668121338,-0.8005361557006836,0.9565510153770447,-31.23017692565918,5.176609516143799,2.3051276206970215,-0.5819708704948425,-0.8339582681655884,-0.28498575091362,0.25651657581329346,-0.5083411931991577,0.22872568666934967
228,14055,14056,-0.8713380694389343,-0.5802244544029236,1.0427874326705933,-28.182092666625977,6.161207675933838,2.937235116958618,-0.5864706635475159,-0.8384580612182617,-0.28948551416397095,0.15794622898101807,-0.888874351978302,0.25670182704925537
229,14065,14066,-1.7210789918899536,-0.5889168381690979,1.0142747163772583,-18.586671829223633,6.036252975463867,2.823876142501831,-0.5879706144332886,-0.8249587416648865,-0.28798559308052063,0.05832767114043236,-1.2594273090362549,0.2946247160434723
230,14075,14076,-0.9313242435455322,-0.7564562559127808,0.9909889101982117,-3.9958817958831787,3.5382089614868164,2.9381234645843506,-0.5909704566001892,-0.8309584259986877,-0.2939853072166443,0.11058975756168365,-1.3928247690200806,0.30794757604599
231,14085,14086,0.008849573321640491,-0.20920129120349884,0.983445942401886,14.16250228881836,2.792232036590576,2.797384023666382,-0.5939702987670898,-0.8339582681655884,-0.2759861946105957,0.17304855585098267,-1.2926772832870483,0.3143259882926941
232,14095,14096,-0.012597529217600822,-0.044106487184762955,1.0752334594726562,29.820005416870117,1.9638478755950928,2.811668634414673,-0.5939702987670898,-0.8309584259986877,-0.29998499155044556,0.10027453303337097,-1.1396187543869019,0.34280213713645935
233,14105,14106,-0.11713890731334686,-0.2661198675632477,1.0170738697052002,37.02610397338867,-1.04403817653656,5.616268157958984,-0.5939702987670898,-0.8399580121040344,-0.2969851493835449,0.05246877297759056,-0.8367692232131958,0.3679248094558716
234,14115,14116,-0.13827410340309143,-0.28587618470191956,1.0054528713226318,34.45755386352539,-3.7613027095794678,8.5236177444458,-0.5969701409339905,-0.8579570651054382,-0.2939853072166443,0.044468384236097336,-0.37505945563316345,0.4088405966758728
235,14125,14126,-0.19759123027324677,-0.30840229988098145,1.008559226989746,21.3101749420166,-5.853513717651367,10.932350158691406,-0.5969701409339905,-0.8489575386047363,-0.30898454785346985,0.08037300407886505,0.005808629095554352,0.48166799545288086
236,14135,14136,-0.3162287175655365,-0.04875675588846207,0.9996178150177002,3.631096601486206,-7.871055603027344,13.085942268371582,-0.5939702987670898,-0.8309584259986877,-0.3149842321872711,0.1516672521829605,0.045883551239967346,0.5841841697692871
237,14145,14146,-0.605027973651886,-0.313626766204834,0.9865561127662659,-14.382229804992676,-7.834240436553955,15.850541114807129,-0.5759711861610413,-0.851957380771637,-0.2939853072166443,0.2426627278327942,0.17375729978084564,0.7055572867393494
238,14155,14156,-0.4507238268852234,-0.5319542288780212,1.058240532875061,-26.93282699584961,-6.872110843658447,17.619436264038086,-0.5894705057144165,-0.844457745552063,-0.30748462677001953,0.34019309282302856,-0.10445192456245422,0.8549622297286987
239,14165,14166,-0.31500038504600525,-0.25970664620399475,1.0301569700241089,-33.9068717956543,-3.7951407432556152,19.01702308654785,-0.5729713439941406,-0.836958110332489,-0.3029848337173462,0.4120040833950043,-0.42414432764053345,1.0268765687942505
240,14175,14176,-0.20333507657051086,-0.03071318380534649,1.0604171752929688,-37.796573638916016,-1.4879060983657837,19.802331924438477,-0.5744712948799133,-0.8534573316574097,-0.29848507046699524,0.442701131105423,-0.7106334567070007,1.2136715650558472
241,14185,14186,-0.029001476243138313,0.011682676151394844,1.0145760774612427,-37.499122619628906,1.9443947076797485,19.22663116455078,-0.5759711861610413,-0.836958110332489,-0.29998499155044556,0.42568710446357727,-0.9764476418495178,1.4110803604125977
242,14195,14196,-0.023308485746383667,0.0419112965464592,1.0353690385818481,-34.339195251464844,6.97442102432251,17.984188079833984,-0.5954701900482178,-0.8234587907791138,-0.2864856719970703,0.35607481002807617,-1.5226894617080688,1.613886833190918
243,14205,14206,-0.38921695947647095,-0.015622780658304691,1.059338092803955,-27.002716064453125,13.287055015563965,17.799419403076172,-0.5834708213806152,-0.8114594221115112,-0.3014849126338959,0.34316790103912354,-1.6455299854278564,1.7897086143493652
244,14215,14216,-0.2930794060230255,0.00980070885270834,1.0135583877563477,-14.967653274536133,18.738740921020508,18.070390701293945,-0.5819708704948425,-0.8159592151641846,-0.2969851493835449,0.08881346881389618,-1.8636138439178467,1.9781584739685059
245,14225,14226,-0.04601786658167839,0.014057994820177555,0.9840100407600403,-1.1582692861557007,21.5255184173584,19.15563201904297,-0.5954701900482178,-0.8084595799446106,-0.2834858298301697,-0.09492161124944687,-2.1007094383239746,2.152219533920288
246,14235,14236,-0.041435182094573975,-0.01527074258774519,0.9789825677871704,2.557786703109741,20.061664581298828,19.300172805786133,-0.5879706144332886,-0.8279585838317871,-0.29098543524742126,-0.3124530017375946,-2.1553566455841064,2.331214427947998
247,14245,14246,-0.20638112723827362,-0.04381221905350685,0.9841417670249939,6.005215644836426,13.63654613494873,18.850433349609375,-0.5984700918197632,-0.8114594221115112,-0.277486115694046,-0.5543754696846008,-2.046386957168579,2.5213141441345215
248,14255,14256,-0.2263234406709671,-0.17852097749710083,0.950611412525177,7.751640319824219,5.560749530792236,18.504981994628906,-0.5969701409339905,-0.8159592151641846,-0.3029848337173462,-0.559691846370697,-1.9728660583496094,2.6823832988739014
249,14265,14266,-0.16295640170574188,-0.03587319329380989,0.9641667604446411,10.535703659057617,-2.04317045211792,18.47188377380371,-0.5909704566001892,-0.8189590573310852,-0.28498575091362,-0.733144998550415,-1.9299501180648804,2.8814568519592285
250,14275,14276,-0.06013842672109604,-0.010182742960751057,0.9096631407737732,11.957934379577637,-10.314995765686035,16.70977020263672,-0.5954701900482178,-0.8144592642784119,-0.2954852283000946,-0.6991069912910461,-1.839388370513916,3.056757926940918
251,14285,14286,-0.04236377775669098,0.05239967629313469,0.9775594472885132,12.60571575164795,-18.109785079956055,16.718021392822266,-0.5954701900482178,-0.8264586329460144,-0.28948551416397095,-0.6131466627120972,-1.7973041534423828,3.2228434085845947
252,14295,14296,-0.11969365179538727,-0.13856017589569092,0.9835001230239868,12.987948417663574,-22.36273956298828,16.5997257232666,-0.5939702987670898,-0.8069596290588379,-0.2939853072166443,-0.3456520438194275,-1.5973713397979736,3.3766531944274902
253,14305,14306,-0.022673042491078377,-0.17119081318378448,0.9061944484710693,13.325019836425781,-23.202600479125977,15.937373161315918,-0.5819708704948425,-0.8309584259986877,-0.29098543524742126,-0.08592389523983002,-1.5272274017333984,3.5315563678741455
254,14315,14316,-0.24803274869918823,-0.07654345035552979,0.9363899827003479,10.598923683166504,-22.056720733642578,15.443135261535645,-0.577471137046814,-0.8264586329460144,-0.2924853563308716,0.20457930862903595,-1.3209855556488037,3.700131893157959
255,14325,14326,-0.13936735689640045,-0.02281123585999012,0.9740356206893921,6.7399678230285645,-14.640974998474121,13.934232711791992,-0.5654717087745667,-0.8234587907791138,-0.29848507046699524,0.42871055006980896,-1.165500521659851,3.86584210395813
256,14335,14336,-0.018027102574706078,-0.13804328441619873,0.9601724147796631,0.014178209938108921,-1.6411311626434326,11.595300674438477,-0.5804709792137146,-0.8354582190513611,-0.2954852283000946,0.5966219902038574,-1.1546655893325806,4.011693000793457
257,14345,14346,-0.0559055395424366,-0.11489561200141907,0.9888918399810791,-9.91685962677002,11.656609535217285,9.033573150634766,-0.577471137046814,-0.8264586329460144,-0.31048446893692017,0.5662956237792969,-1.2587336301803589,4.150189399719238
258,14355,14356,-0.06317589432001114,-0.23671314120292664,0.9491350650787354,-18.579702377319336,25.037202835083008,6.556824684143066,-0.5789710283279419,-0.8339582681655884,-0.3209839463233948,0.46952328085899353,-1.4243924617767334,4.247887134552002
259,14365,14366,-0.28198114037513733,0.04842207208275795,0.9415323734283447,-21.261890411376953,34.164459228515625,4.409739971160889,-0.5729713439941406,-0.8189590573310852,-0.29998499155044556,0.09728390723466873,-1.5568886995315552,4.349942684173584
260,14375,14376,-0.09553515166044235,0.05315779894590378,0.9595842957496643,-16.086570739746094,34.95613479614258,2.643256425857544,-0.56997150182724,-0.8339582681655884,-0.29998499155044556,-0.23907160758972168,-1.8504334688186646,4.394413948059082
261,14385,14386,-0.7479881644248962,-0.44606247544288635,0.9665624499320984,-8.642817497253418,31.14291763305664,1.740887999534607,-0.5579720735549927,-0.836958110332489,-0.3059847056865692,-0.5221211314201355,-2.0602915287017822,4.399167537689209
262,14395,14396,-0.6865599155426025,-0.12488958984613419,0.9789438843727112,2.820701837539673,24.75035285949707,0.2344084084033966,-0.5909704566001892,-0.836958110332489,-0.3119843900203705,-0.7454927563667297,-2.0625998973846436,4.394664287567139
263,14405,14406,-0.24012987315654755,0.0535547137260437,0.9929515719413757,15.816880226135254,17.833118438720703,-1.7967644929885864,-0.5879706144332886,-0.8309584259986877,-0.31798410415649414,-0.8757711052894592,-2.0225677490234375,4.367814064025879
264,14415,14416,-0.036430563777685165,0.010174375027418137,1.0011628866195679,26.332998275756836,7.192861557006836,-3.6899945735931396,-0.5804709792137146,-0.850457489490509,-0.3164841830730438,-1.170087218284607,-1.7936724424362183,4.38037633895874
265,14425,14426,-0.5404553413391113,0.015703411772847176,1.0010426044464111,34.654483795166016,-2.402559518814087,-3.566106081008911,-0.5864706635475159,-0.8594570159912109,-0.30748462677001953,-1.22749662399292,-1.6812750101089478,4.321079730987549
266,14435,14436,-0.3793022632598877,-0.06504148989915848,1.002186894416809,40.3270149230957,-9.951407432556152,-4.405170917510986,-0.5744712948799133,-0.8474575877189636,-0.3164841830730438,-1.2048044204711914,-1.2220122814178467,4.295165061950684
267,14445,14446,-0.28553542494773865,-0.10944844037294388,0.9847310185432434,46.141300201416016,-13.481257438659668,-5.9995503425598145,-0.5714713931083679,-0.8654567003250122,-0.3164841830730438,-1.0749895572662354,-0.7392284274101257,4.258730411529541
268,14455,14456,-0.6148464679718018,-0.16154325008392334,1.0128720998764038,45.33173370361328,-15.424025535583496,-7.36101770401001,-0.5714713931083679,-0.8594570159912109,-0.3254837095737457,-0.8837164044380188,-0.41665545105934143,4.174559116363525
269,14465,14466,-0.21910934150218964,-0.007672276813536882,1.0318045616149902,40.80145263671875,-13.690435409545898,-7.682900428771973,-0.5789710283279419,-0.8609569072723389,-0.31798410415649414,-0.6185970306396484,0.11126536130905151,4.095771312713623
270,14475,14476,-0.20088206231594086,-0.07411817461252213,1.0613716840744019,29.033109664916992,-7.246820449829102,-7.921215534210205,-0.577471137046814,-0.8654567003250122,-0.3164841830730438,-0.4726448357105255,0.18401826918125153,3.9574947357177734
271,14485,14486,-0.11699092388153076,-0.2355729341506958,1.0532492399215698,16.284639358520508,-1.794933557510376,-7.65059232711792,-0.5669716596603394,-0.8549572229385376,-0.3119843900203705,-0.4738519787788391,0.4692986309528351,3.883899450302124
272,14495,14496,0.011461053043603897,-0.10469817370176315,0.9913939833641052,2.703596830368042,2.432704448699951,-6.905710220336914,-0.5804709792137146,-0.844457745552063,-0.3134843111038208,-0.48286712169647217,0.6813817024230957,3.812178134918213
273,14505,14506,-0.44758233428001404,-0.36723366379737854,0.9771552681922913,-9.787625312805176,3.875098943710327,-5.690709114074707,-0.5639718174934387,-0.8429578542709351,-0.31798410415649414,-0.4799814820289612,0.746936559677124,3.7385051250457764
274,14515,14516,-1.0620309114456177,-0.8334512710571289,1.0643521547317505,-13.847132682800293,4.010441303253174,-5.34411096572876,-0.5789710283279419,-0.8459576964378357,-0.3239837884902954,-0.5683481693267822,0.6469219326972961,3.671130418777466
275,14525,14526,-1.1144840717315674,-1.4761892557144165,1.1367055177688599,-13.296987533569336,2.6435093879699707,-4.2223663330078125,-0.5759711861610413,-0.8549572229385376,-0.3149842321872711,-0.655682384967804,0.4872461259365082,3.612633228302002
276,14535,14536,-0.33990076184272766,-0.7180177569389343,1.0605093240737915,-9.154111862182617,-1.5810191631317139,-4.383179664611816,-0.5684715509414673,-0.850457489490509,-0.32848358154296875,-0.70652836561203,0.34590592980384827,3.568484306335449
277,14545,14546,-0.04617865011096001,-0.11855610460042953,1.0365160703659058,-4.149628162384033,-4.896634101867676,-1.8598501682281494,-0.5714713931083679,-0.8564571738243103,-0.31948402523994446,-0.6989668607711792,0.2596222758293152,3.5237903594970703
278,14555,14556,-0.17241650819778442,0.06029894948005676,1.0292389392852783,0.8304181694984436,-7.380667209625244,0.7910282611846924,-0.5759711861610413,-0.8489575386047363,-0.3119843900203705,-0.6900596022605896,0.2595974802970886,3.5000760555267334
279,14565,14566,-0.6878502368927002,-0.36583635210990906,1.0506200790405273,5.467641353607178,-11.062541007995605,3.0287363529205322,-0.56997150182724,-0.8459576964378357,-0.30898454785346985,-0.5680437088012695,0.33193373680114746,3.5139307975769043
280,14575,14576,-0.6569461822509766,-0.3113388121128082,1.0386574268341064,9.023977279663086,-14.326346397399902,4.0574846267700195,-0.5849707126617432,-0.8489575386047363,-0.3029848337173462,-0.39927080273628235,0.3973071873188019,3.5447561740875244
281,14585,14586,-0.24290788173675537,0.08669529110193253,1.0379830598831177,11.641228675842285,-13.335948944091797,4.666619777679443,-0.5849707126617432,-0.8489575386047363,-0.3029848337173462,-0.3457927703857422,0.5840625166893005,3.5935821533203125
282,14595,14596,-0.0016818864969536662,0.0014881666284054518,1.0308042764663696,13.063116073608398,-8.36384391784668,2.91212797164917,-0.5849707126617432,-0.8489575386047363,-0.3029848337173462,-0.3077142536640167,0.6009585857391357,3.615661144256592
283,14605,14606,-0.032023265957832336,-0.1909802258014679,0.9455747008323669,15.915875434875488,-3.7314183712005615,0.6549999117851257,-0.5684715509414673,-0.844457745552063,-0.3014849126338959,-0.12150748819112778,0.7878537774085999,3.6644864082336426
284,14615,14616,-0.15591870248317719,-0.10949604213237762,0.9758393168449402,14.725797653198242,-0.17330078780651093,-1.5482085943222046,-0.5729713439941406,-0.8489575386047363,-0.3059847056865692,-0.07525715231895447,0.7823271751403809,3.6533608436584473
285,14625,14626,-0.14617964625358582,-0.02246467024087906,1.0841253995895386,8.388883590698242,1.0351579189300537,-2.9042060375213623,-0.577471137046814,-0.8474575877189636,-0.31948402523994446,-0.10151118785142899,0.6841293573379517,3.607288122177124
286,14635,14636,-0.11427577584981918,-0.025964422151446342,1.068954348564148,7.605463027954102,4.554693222045898,-4.391799449920654,-0.5744712948799133,-0.8384580612182617,-0.3014849126338959,-0.09499414265155792,0.9602066278457642,3.6045377254486084
287,14645,14646,-0.2788598835468292,-0.04953402653336525,1.0284833908081055,8.829427719116211,8.641290664672852,-5.769049644470215,-0.5744712948799133,-0.850457489490509,-0.3044847846031189,-0.11333826929330826,1.0576684474945068,3.571564197540283
288,14655,14656,-0.24155400693416595,-0.5767829418182373,0.9932673573493958,10.064170837402344,8.295732498168945,-8.983014106750488,-0.5864706635475159,-0.8354582190513611,-0.3164841830730438,-0.25358787178993225,1.2477362155914307,3.524676561355591
289,14665,14666,-0.32535430788993835,-0.31045782566070557,0.9686779379844666,9.053239822387695,5.093301773071289,-11.969197273254395,-0.5789710283279419,-0.836958110332489,-0.3059847056865692,-0.3201603889465332,1.3599008321762085,3.4460909366607666
290,14675,14676,-0.19786711037158966,0.10662935674190521,1.105963945388794,7.651458263397217,-0.1568763703107834,-14.467066764831543,-0.5834708213806152,-0.8324583768844604,-0.3044847846031189,-0.3210233151912689,1.3208914995193481,3.3304998874664307
291,14685,14686,-0.03591327369213104,0.17124097049236298,1.100333333015442,4.452407360076904,-4.824312210083008,-16.189311981201172,-0.5864706635475159,-0.8204589486122131,-0.31048446893692017,-0.2449115663766861,1.4641647338867188,3.2204833030700684
292,14695,14696,-0.026787426322698593,-0.09063785523176193,0.9776461720466614,3.042518377304077,-7.64562463760376,-18.232378005981445,-0.5744712948799133,-0.8534573316574097,-0.3164841830730438,-0.18663054704666138,1.4238675832748413,3.059640407562256
293,14705,14706,-0.06155531480908394,-0.13240252435207367,0.9820470809936523,-1.7109978199005127,-8.513859748840332,-19.258651733398438,-0.5789710283279419,-0.8429578542709351,-0.3149842321872711,-0.1668955683708191,1.4086660146713257,2.8629813194274902
294,14715,14716,-0.09679646044969559,-0.018955634906888008,0.93626868724823,-7.127416133880615,-8.166332244873047,-19.553918838500977,-0.5864706635475159,-0.8534573316574097,-0.29848507046699524,-0.13098327815532684,1.394518256187439,2.6571896076202393
295,14725,14726,-0.518160879611969,-0.213302344083786,1.0755189657211304,-11.205818176269531,-2.8237688541412354,-19.495988845825195,-0.5834708213806152,-0.8414579033851624,-0.29848507046699524,-0.04190116748213768,1.4438401460647583,2.469935894012451
296,14735,14736,-0.32969051599502563,-0.08562374114990234,1.006967306137085,-11.010146141052246,4.869069576263428,-20.33296012878418,-0.5924703478813171,-0.8474575877189636,-0.3014849126338959,-0.044183362275362015,1.5070104598999023,2.280651807785034
297,14745,14746,-0.7204012274742126,-0.5529733300209045,0.9723067879676819,-6.266210079193115,6.595567226409912,-20.991958618164062,-0.5729713439941406,-0.836958110332489,-0.3059847056865692,-0.08201667666435242,1.3627315759658813,2.0874311923980713
298,14755,14756,-0.9241452217102051,-0.4443661570549011,0.942081868648529,0.3954436779022217,7.630876541137695,-21.12795639038086,-0.5849707126617432,-0.8399580121040344,-0.2939853072166443,-0.242238387465477,1.3615666627883911,1.8685851097106934
299,14765,14766,-0.8460758924484253,-0.22932924330234528,0.9394934773445129,8.308372497558594,6.248805522918701,-20.65459442138672,-0.5849707126617432,-0.8429578542709351,-0.3029848337173462,-0.38565725088119507,1.395177960395813,1.6459928750991821
300,14775,14776,-0.39234912395477295,-0.2991993725299835,0.9939419031143188,18.54595947265625,2.5080745220184326,-21.33812713623047,-0.5909704566001892,-0.8489575386047363,-0.2969851493835449,-0.3992965519428253,1.2875304222106934,1.4448425769805908
301,14785,14786,-0.25832638144493103,-0.38156798481941223,1.0167557001113892,22.79792022705078,-3.8205924034118652,-21.223188400268555,-0.5909704566001892,-0.8459576964378357,-0.3029848337173462,-0.40974974632263184,1.524831771850586,1.2490276098251343
302,14795,14796,-0.1793012022972107,-0.1549776792526245,1.0122543573379517,18.814247131347656,-11.070849418640137,-20.276399612426758,-0.5984700918197632,-0.850457489490509,-0.30748462677001953,-0.33030956983566284,1.72226881980896,1.0528017282485962
303,14805,14806,-0.039149682968854904,-0.06939491629600525,0.9704678654670715,1.707176923751831,-15.156005859375,-17.99919319152832,-0.5954701900482178,-0.8564571738243103,-0.31048446893692017,-0.1422874480485916,1.9531733989715576,0.8775574564933777
304,14815,14816,-0.036328792572021484,-0.04470129683613777,0.9856642484664917,-11.302129745483398,-15.257715225219727,-18.00643539428711,-0.5834708213806152,-0.8624568581581116,-0.3164841830730438,-0.05266735702753067,2.1649169921875,0.6783873438835144
305,14825,14826,-0.304535448551178,-0.0497598797082901,1.1270077228546143,-28.162118911743164,-8.083793640136719,-18.684673309326172,-0.5939702987670898,-0.8579570651054382,-0.3149842321872711,-0.000809726188890636,2.1772825717926025,0.4696744680404663
306,14835,14836,-0.08458961546421051,-0.04479597508907318,1.049961805343628,-38.47760009765625,-1.0270131826400757,-19.031837463378906,-0.5804709792137146,-0.844457745552063,-0.31948402523994446,0.15922453999519348,1.6694852113723755,0.2864837646484375
307,14845,14846,-0.055773720145225525,-0.3000413179397583,1.0401184558868408,-45.21295928955078,12.151104927062988,-19.49907684326172,-0.5819708704948425,-0.8399580121040344,-0.2969851493835449,0.23787863552570343,1.2342519760131836,0.11194778233766556
308,14855,14856,-0.29114267230033875,-0.27944833040237427,1.0029654502868652,-43.741966247558594,19.47261619567871,-20.08359146118164,-0.5909704566001892,-0.8399580121040344,-0.3059847056865692,-0.05472993478178978,0.9373643398284912,-0.1407017558813095
309,14865,14866,-0.41155892610549927,-0.24295711517333984,0.9647880792617798,-33.51042938232422,24.056198120117188,-20.89341163635254,-0.5969701409339905,-0.8339582681655884,-0.3119843900203705,-0.31667640805244446,0.33915209770202637,-0.3742494285106659
310,14875,14876,-0.20825345814228058,-0.24769781529903412,0.9560847878456116,-19.13790512084961,23.496963500976562,-20.39603042602539,-0.5954701900482178,-0.8294585347175598,-0.2864856719970703,-0.6301106214523315,0.12659147381782532,-0.5963151454925537
311,14885,14886,-0.11007347702980042,-0.26559796929359436,0.913425087928772,-2.0154569149017334,19.582157135009766,-19.758493423461914,-0.6104694604873657,-0.8234587907791138,-0.3014849126338959,-0.9027009010314941,-0.27951279282569885,-0.8199896216392517
312,14895,14896,-0.03909732773900032,-0.062371402978897095,0.9299596548080444,10.829834938049316,12.805426597595215,-18.750112533569336,-0.6089695692062378,-0.8219588994979858,-0.29098543524742126,-1.2378644943237305,-0.34905940294265747,-1.0555224418640137
313,14905,14906,-0.3894992768764496,-0.01484130322933197,0.9867090582847595,20.727487564086914,3.63612961769104,-17.47785186767578,-0.6044697761535645,-0.8294585347175598,-0.2954852283000946,-1.3036383390426636,-0.00782364048063755,-1.2024174928665161
314,14915,14916,-0.5691666603088379,-0.09369843453168869,0.9924898743629456,23.54931640625,-6.921234607696533,-16.794160842895508,-0.6014699339866638,-0.8354582190513611,-0.3014849126338959,-1.3082952499389648,0.14959169924259186,-1.3687442541122437
315,14925,14926,-0.49436894059181213,-0.5101683139801025,1.0428673028945923,21.37480354309082,-16.021760940551758,-15.489019393920898,-0.6104694604873657,-0.8414579033851624,-0.3044847846031189,-1.1458079814910889,0.4864758849143982,-1.500035285949707
316,14935,14936,-0.9138553142547607,-0.24909138679504395,1.006219506263733,18.45003318786621,-24.52499008178711,-12.619338989257812,-0.6149692535400391,-0.836958110332489,-0.29998499155044556,-0.8953959345817566,0.780856192111969,-1.632973074913025
317,14945,14946,-0.7521101832389832,-0.010932913050055504,0.9285344481468201,17.034879684448242,-26.579374313354492,-10.778946876525879,-0.5954701900482178,-0.850457489490509,-0.31948402523994446,-0.5471183657646179,1.0400335788726807,-1.7478444576263428
318,14955,14956,-0.9739115238189697,-0.10329972952604294,0.9710533618927002,10.989405632019043,-24.588483810424805,-8.675179481506348,-0.5969701409339905,-0.8579570651054382,-0.3149842321872711,-0.28297606110572815,1.2301746606826782,-1.8605355024337769
319,14965,14966,-0.6515209078788757,-0.12668342888355255,0.9383261799812317,5.3213934898376465,-18.287797927856445,-7.058264255523682,-0.5939702987670898,-0.8489575386047363,-0.3119843900203705,0.008100111968815327,1.3366652727127075,-1.9521687030792236
320,14975,14976,-0.12865830957889557,-0.28719523549079895,0.8629829287528992,-2.2865381240844727,-10.306260108947754,-6.226138114929199,-0.5849707126617432,-0.8459576964378357,-0.3119843900203705,-0.014969434589147568,1.341532826423645,-2.078626871109009
321,14985,14986,9.3635062512476e-05,-0.16755124926567078,0.8920322060585022,-7.001866340637207,-3.9459774494171143,-4.729467391967773,-0.5999699831008911,-0.851957380771637,-0.3059847056865692,0.15225337445735931,1.7379018068313599,-2.103618621826172
322,14995,14996,-0.07230370491743088,0.005100633949041367,0.9266063570976257,-13.818682670593262,4.099826335906982,-2.597099781036377,-0.5954701900482178,-0.844457745552063,-0.2954852283000946,0.26747000217437744,1.7276443243026733,-2.1489248275756836
323,15005,15006,-0.24624499678611755,0.07324320077896118,1.0577272176742554,-21.68505096435547,10.58993911743164,-0.7598387598991394,-0.6029698252677917,-0.8399580121040344,-0.29098543524742126,0.19926951825618744,1.4636873006820679,-2.2039761543273926
324,15015,15016,-0.11051110923290253,-0.06156907603144646,0.9634023308753967,-28.802265167236328,15.044898986816406,0.7594044208526611,-0.5924703478813171,-0.850457489490509,-0.29848507046699524,0.17014150321483612,1.3616292476654053,-2.194363832473755
325,15025,15026,-0.1742314100265503,-0.4298003613948822,0.9556612372398376,-30.91313934326172,12.75842571258545,2.5551705360412598,-0.6014699339866638,-0.850457489490509,-0.31048446893692017,-0.06199008598923683,0.8857902884483337,-2.2200841903686523
326,15035,15036,-0.645160973072052,-1.0662058591842651,0.9202361702919006,-32.130611419677734,5.678142547607422,3.7854807376861572,-0.5909704566001892,-0.8489575386047363,-0.3059847056865692,-0.15568220615386963,0.8733681440353394,-2.1745412349700928
327,15045,15046,-0.41313856840133667,-0.5247801542282104,0.9035448431968689,-33.76630401611328,-0.540583074092865,4.411181449890137,-0.5894705057144165,-0.8414579033851624,-0.30748462677001953,-0.23210641741752625,0.6003048419952393,-2.136716842651367
328,15055,15056,-0.15121303498744965,-0.018062548711895943,0.9420432448387146,-34.18260955810547,-4.544193744659424,3.691190242767334,-0.5834708213806152,-0.8354582190513611,-0.3164841830730438,-0.22760362923145294,-0.043188225477933884,-2.105140447616577
329,15065,15066,-0.3095237910747528,-0.17977313697338104,0.9300979971885681,-33.07455825805664,-6.290426731109619,3.025465250015259,-0.577471137046814,-0.8384580612182617,-0.3044847846031189,-0.14982861280441284,-0.17710541188716888,-2.052037477493286
330,15075,15076,-0.5420135259628296,-0.265374094247818,0.9414061307907104,-28.68899917602539,-6.175264835357666,2.183177947998047,-0.577471137046814,-0.8594570159912109,-0.31948402523994446,0.021859632804989815,-0.5723658204078674,-2.0015833377838135
331,15085,15086,-0.16993115842342377,-0.12591838836669922,0.9474936723709106,-23.766395568847656,-2.748138904571533,2.0510497093200684,-0.577471137046814,-0.8534573316574097,-0.3014849126338959,0.10083435475826263,-0.7484663724899292,-1.9708622694015503
332,15095,15096,-0.05463657155632973,0.15544426441192627,1.0770608186721802,-19.501230239868164,4.188802719116211,1.81900155544281,-0.5849707126617432,-0.851957380771637,-0.30898454785346985,0.044871438294649124,-1.142639398574829,-1.9594953060150146
333,15105,15106,-0.05669694021344185,0.04850706830620766,1.0871076583862305,-14.705403327941895,11.861088752746582,1.8413245677947998,-0.5909704566001892,-0.851957380771637,-0.31798410415649414,-0.05875294283032417,-1.3105204105377197,-1.9475113153457642
334,15115,15116,-0.0445697195827961,-0.058578573167324066,1.0181804895401,-7.874441623687744,10.464198112487793,1.8918687105178833,-0.5879706144332886,-0.8579570651054382,-0.3059847056865692,-0.07950945198535919,-1.3914573192596436,-1.9215950965881348
335,15125,15126,-0.16107210516929626,-0.014467247761785984,1.0577763319015503,5.207135200500488,2.6597189903259277,2.812727212905884,-0.5759711861610413,-0.8669566512107849,-0.3059847056865692,-0.13680969178676605,-1.5492140054702759,-1.9065626859664917
336,15135,15136,-0.06456732004880905,-0.2772538363933563,1.021593451499939,17.02509880065918,-3.913999080657959,3.974477529525757,-0.5819708704948425,-0.851957380771637,-0.31798410415649414,-0.16239707171916962,-1.5077452659606934,-1.8827667236328125
337,15145,15146,-0.09321341663599014,-0.23663248121738434,1.0546598434448242,24.05462646484375,-10.530610084533691,3.364539623260498,-0.5834708213806152,-0.8684565424919128,-0.3164841830730438,-0.10104727745056152,-1.3114664554595947,-1.8469043970108032
338,15155,15156,-0.3336200416088104,-0.01653403602540493,1.037214994430542,25.177942276000977,-11.148683547973633,2.9420905113220215,-0.5819708704948425,-0.8729563355445862,-0.3209839463233948,-0.015525035560131073,-1.0199272632598877,-1.8152601718902588
339,15165,15166,-0.14196498692035675,0.10279339551925659,1.1075546741485596,19.873445510864258,-11.220548629760742,2.343606472015381,-0.5834708213806152,-0.8564571738243103,-0.31948402523994446,0.02956855483353138,-0.8703234791755676,-1.774625301361084
340,15175,15176,0.046056199818849564,-0.023998809978365898,1.062667965888977,4.414720058441162,-3.7717478275299072,3.150116443634033,-0.577471137046814,-0.8564571738243103,-0.31048446893692017,0.1541556715965271,-0.6873853206634521,-1.7534116506576538
341,15185,15186,-0.09258190542459488,-0.11764420568943024,1.0752828121185303,-7.1626787185668945,2.7894508838653564,4.277783393859863,-0.5834708213806152,-0.8534573316574097,-0.3224838674068451,0.11864128708839417,-0.8421251177787781,-1.7138639688491821
342,15195,15196,-0.31084710359573364,-0.4316025972366333,1.0434626340866089,-18.70548439025879,10.457479476928711,6.512463569641113,-0.5849707126617432,-0.8399580121040344,-0.31798410415649414,0.048510123044252396,-0.7716183066368103,-1.668731927871704
343,15205,15206,-0.22939027845859528,-0.090475894510746,1.0827053785324097,-23.722110748291016,19.05860710144043,8.686928749084473,-0.5789710283279419,-0.8489575386047363,-0.3119843900203705,-0.06885270029306412,-1.135502576828003,-1.602562665939331
344,15215,15216,-0.09100676327943802,0.1438421756029129,1.0970425605773926,-25.332942962646484,26.353065490722656,10.080759048461914,-0.5789710283279419,-0.8429578542709351,-0.30898454785346985,-0.3168826103210449,-1.2068448066711426,-1.5091711282730103
345,15225,15226,-0.06217791512608528,0.00981675460934639,1.1303105354309082,-21.815614700317383,27.024822235107422,13.09380054473877,-0.5909704566001892,-0.8549572229385376,-0.3029848337173462,-0.5867197513580322,-1.371675729751587,-1.417693853378296
346,15235,15236,-0.10189823061227798,-0.23067215085029602,1.043906807899475,-16.982349395751953,22.766897201538086,16.242136001586914,-0.5879706144332886,-0.8459576964378357,-0.3029848337173462,-0.78654944896698,-1.623923420906067,-1.3200305700302124
347,15245,15246,-0.4701547920703888,-0.28710001707077026,1.054593801498413,-8.586310386657715,11.818374633789062,19.621614456176758,-0.6014699339866638,-0.8384580612182617,-0.3014849126338959,-1.0993645191192627,-1.8468482494354248,-1.1664402484893799
348,15255,15256,-0.3875651955604553,-0.085774727165699,1.0421128273010254,0.6758989691734314,1.18857741355896,21.780725479125977,-0.5819708704948425,-0.8219588994979858,-0.2939853072166443,-1.2404354810714722,-1.9279193878173828,-0.983056366443634
349,15265,15266,-0.2571125626564026,0.021734198555350304,1.1307765245437622,1.2578521966934204,-6.122127056121826,24.189083099365234,-0.6014699339866638,-0.8204589486122131,-0.30748462677001953,-1.2236584424972534,-1.8414922952651978,-0.7752267122268677
350,15275,15276,-0.9888904690742493,-0.6549878120422363,1.0895148515701294,-1.6081210374832153,-14.37536334991455,25.97709083557129,-0.5984700918197632,-0.8264586329460144,-0.2954852283000946,-1.0791960954666138,-1.869383454322815,-0.5717718005180359
351,15285,15286,-1.3878751993179321,-0.7640680074691772,1.0633199214935303,-3.9361495971679688,-24.1016902923584,27.401845932006836,-0.5939702987670898,-0.8309584259986877,-0.2939853072166443,-0.8716245293617249,-1.935845136642456,-0.3424069583415985
352,15295,15296,-0.49026399850845337,-0.1554042398929596,1.0356569290161133,-4.738495349884033,-34.06641387939453,28.908628463745117,-0.5924703478813171,-0.8174591064453125,-0.2954852283000946,-0.6793171167373657,-2.0354208946228027,-0.07502121478319168
353,15305,15306,-0.2630431354045868,-0.06621914356946945,1.0448813438415527,-1.4469636678695679,-32.264461517333984,30.277856826782227,-0.5909704566001892,-0.8219588994979858,-0.2969851493835449,-0.43875810503959656,-1.8466194868087769,0.2589336633682251
354,15315,15316,-0.4073053300380707,-0.06617943197488785,0.9940271973609924,0.6629519462585449,-29.532968521118164,31.65369987487793,-0.5864706635475159,-0.8174591064453125,-0.3014849126338959,-0.05558289587497711,-1.9118812084197998,0.5518648028373718
355,15325,15326,-0.45714861154556274,0.03430267795920372,1.0147866010665894,1.8117057085037231,-21.341047286987305,33.0096321105957,-0.5849707126617432,-0.8099594712257385,-0.29098543524742126,0.2556065320968628,-1.9481096267700195,0.8718221783638
356,15335,15336,-0.44652989506721497,-0.09199176728725433,1.054987907409668,6.70897912979126,-16.94618797302246,33.818763732910156,-0.5804709792137146,-0.8114594221115112,-0.29848507046699524,0.35914117097854614,-1.935590147972107,1.2359901666641235
357,15345,15346,-0.05391243100166321,0.02312609553337097,1.0043487548828125,3.946385145187378,-3.8783209323883057,34.21651840209961,-0.5819708704948425,-0.8189590573310852,-0.29998499155044556,0.5651780962944031,-1.8958555459976196,1.5640432834625244
358,15355,15356,-0.09084399044513702,-0.5525861382484436,0.977998673915863,-2.859921455383301,3.6540627479553223,33.18794631958008,-0.5834708213806152,-0.8234587907791138,-0.29848507046699524,0.6226056218147278,-1.8892953395843506,1.9131367206573486
359,15365,15366,-0.1319006085395813,-0.3737025260925293,1.0228599309921265,-6.210200309753418,3.5253536701202393,32.78622817993164,-0.5744712948799133,-0.8114594221115112,-0.2924853563308716,0.5569207072257996,-1.8270063400268555,2.2548439502716064
360,15375,15376,-0.3282354772090912,-0.06761201471090317,0.9839416742324829,-6.451021194458008,9.552446365356445,31.960567474365234,-0.56997150182724,-0.8129593133926392,-0.2939853072166443,0.474046528339386,-1.816871166229248,2.5937907695770264
361,15385,15386,-1.0194193124771118,-0.21847327053546906,1.0157444477081299,-5.8425984382629395,15.887020111083984,31.748868942260742,-0.56997150182724,-0.8189590573310852,-0.29998499155044556,0.3166542053222656,-1.9495506286621094,2.9406023025512695
362,15395,15396,-0.7269318103790283,-0.7809509634971619,0.9933726787567139,-4.0376715660095215,19.571781158447266,30.930402755737305,-0.5819708704948425,-0.8099594712257385,-0.29098543524742126,0.1261368691921234,-2.0664565563201904,3.262239933013916
363,15405,15406,-0.09793383628129959,-0.30589553713798523,1.0308945178985596,-5.311672210693359,18.817914962768555,27.882204055786133,-0.5834708213806152,-0.7994599938392639,-0.2954852283000946,-0.026813775300979614,-2.1592984199523926,3.5503792762756348
364,15415,15416,-0.0012389179319143295,0.14057478308677673,1.0567758083343506,-5.630954742431641,10.819064140319824,25.23173713684082,-0.577471137046814,-0.8144592642784119,-0.28048595786094666,-0.2849971055984497,-2.176597833633423,3.8551228046417236
365,15425,15426,-0.005701479967683554,0.1761166900396347,1.0637235641479492,-6.225644111633301,2.417790651321411,22.86680030822754,-0.5639718174934387,-0.797960102558136,-0.2969851493835449,-0.36369380354881287,-2.4146790504455566,4.08430290222168
366,15435,15436,-0.13267122209072113,0.09203621000051498,0.9754218459129333,-9.873662948608398,-6.3292694091796875,17.27482032775879,-0.577471137046814,-0.80545973777771,-0.2924853563308716,-0.3790263533592224,-2.3147530555725098,4.30517053604126
367,15445,15446,-0.08002108335494995,0.04703297093510628,0.9838055372238159,-10.699872970581055,-16.343673706054688,14.113747596740723,-0.5879706144332886,-0.797960102558136,-0.29098543524742126,-0.18931743502616882,-2.4620361328125,4.44258451461792
368,15455,15456,-0.09609004855155945,0.03802860900759697,0.9846336245536804,-7.469134330749512,-18.2617244720459,11.536460876464844,-0.5744712948799133,-0.7994599938392639,-0.2954852283000946,-0.028095727786421776,-2.4767327308654785,4.58449125289917
369,15465,15466,-0.14504021406173706,-0.022086409851908684,0.951293408870697,-1.5289345979690552,-15.939756393432617,10.371033668518066,-0.5654717087745667,-0.8024598360061646,-0.3044847846031189,0.2542847692966461,-2.4429357051849365,4.68066930770874
370,15475,15476,-0.1588725745677948,-0.19469529390335083,0.8991493582725525,7.515825271606445,-13.073968887329102,8.436562538146973,-0.5654717087745667,-0.8024598360061646,-0.3044847846031189,0.412387490272522,-2.30450701713562,4.800467491149902
371,15485,15486,-1.025691032409668,-0.28453487157821655,0.8926893472671509,19.493980407714844,-1.6464948654174805,5.189706325531006,-0.5654717087745667,-0.8024598360061646,-0.3044847846031189,-0.06364516913890839,-2.454160690307617,5.125737190246582
372,15495,15496,-0.6871764063835144,-0.2771146893501282,0.8984740972518921,26.936201095581055,6.603261947631836,-0.34759166836738586,-0.5654717087745667,-0.8024598360061646,-0.3044847846031189,0.00015008040645625442,-2.3367981910705566,5.191713333129883
373,15505,15506,-0.15820340812206268,-0.21454817056655884,0.9086745381355286,33.33758544921875,12.695298194885254,-3.721892833709717,-0.5834708213806152,-0.80545973777771,-0.2864856719970703,-0.08938262611627579,-2.0842180252075195,5.2191267013549805
374,15515,15516,0.026455536484718323,-0.07685429602861404,0.9512501955032349,35.366947174072266,14.665454864501953,-7.040290832519531,-0.5804709792137146,-0.8084595799446106,-0.2954852283000946,-0.09934257715940475,-1.7504632472991943,5.147211074829102
375,15525,15526,0.05093837156891823,-0.07417725026607513,0.9077566862106323,30.21295166015625,11.385542869567871,-9.260239601135254,-0.5834708213806152,-0.8264586329460144,-0.28948551416397095,-0.2085229456424713,-1.6793670654296875,5.073106288909912
376,15535,15536,-0.3303625285625458,-0.11986252665519714,0.887844443321228,20.909303665161133,6.736893653869629,-11.357233047485352,-0.5789710283279419,-0.8189590573310852,-0.28198590874671936,-0.21736173331737518,-1.322596788406372,4.9367451667785645
377,15545,15546,-0.6251257658004761,-0.10641409456729889,0.8961207270622253,9.871408462524414,-2.221134662628174,-12.58112621307373,-0.5849707126617432,-0.8249587416648865,-0.28498575091362,-0.27735716104507446,-1.1830377578735352,4.816619873046875
378,15555,15556,-0.4662972688674927,-0.0652032271027565,1.0544267892837524,3.397799015045166,-13.51889705657959,-14.49373722076416,-0.5729713439941406,-0.8219588994979858,-0.29098543524742126,-0.26241397857666016,-1.0502712726593018,4.68721342086792
379,15565,15566,-0.19253796339035034,0.13482876121997833,0.9942906498908997,-0.6863002777099609,-21.26604461669922,-16.065916061401367,-0.5804709792137146,-0.8264586329460144,-0.2924853563308716,-0.014039644971489906,-0.9535233974456787,4.505903244018555
380,15575,15576,-0.04922466352581978,0.10143851488828659,0.9674668312072754,-3.5150740146636963,-26.90035629272461,-16.957544326782227,-0.5639718174934387,-0.8219588994979858,-0.3029848337173462,0.07776420563459396,-1.0610079765319824,4.3850226402282715
381,15585,15586,-0.0994781032204628,-0.12607257068157196,0.8833925724029541,-0.03249197080731392,-28.59134292602539,-19.233985900878906,-0.5744712948799133,-0.8204589486122131,-0.2954852283000946,0.3907066583633423,-1.037736415863037,4.207390308380127
382,15595,15596,-0.017216810956597328,-0.020059926435351372,0.9195570349693298,5.826903820037842,-26.245174407958984,-19.755495071411133,-0.5609719157218933,-0.8129593133926392,-0.2969851493835449,0.8558598756790161,-0.9696173071861267,3.983381986618042
383,15605,15606,-0.04025942087173462,-0.060646407306194305,0.952275276184082,12.661569595336914,-16.806255340576172,-21.30076026916504,-0.56997150182724,-0.8099594712257385,-0.28798559308052063,1.1069978475570679,-1.0854742527008057,3.80045485496521
384,15615,15616,-0.11754680424928665,-0.11798997223377228,0.9969063401222229,19.615089416503906,-6.2295966148376465,-21.019075393676758,-0.5819708704948425,-0.8189590573310852,-0.2939853072166443,1.2841649055480957,-1.0044232606887817,3.604902744293213
385,15625,15626,-0.15728357434272766,-0.12132463604211807,0.9762253761291504,27.26581382751465,6.285494327545166,-21.15521240234375,-0.5729713439941406,-0.8219588994979858,-0.2969851493835449,1.2638734579086304,-0.9527111053466797,3.4266653060913086
386,15635,15636,-0.7725480794906616,-0.25660455226898193,1.002014398574829,31.54541015625,17.60104751586914,-20.811748504638672,-0.5804709792137146,-0.8114594221115112,-0.30748462677001953,1.1382825374603271,-0.4356854259967804,3.2097489833831787
387,15645,15646,-0.524224042892456,-0.0184666495770216,1.0177035331726074,31.224172592163086,25.321195602416992,-22.035629272460938,-0.5894705057144165,-0.8294585347175598,-0.2924853563308716,1.0709288120269775,-0.2862386107444763,3.0054008960723877
388,15655,15656,-0.051655612885951996,0.008999393321573734,1.0062586069107056,24.225385665893555,29.95839500427246,-24.109256744384766,-0.5819708704948425,-0.8279585838317871,-0.2969851493835449,0.6643388271331787,-0.08458036929368973,2.835214376449585
389,15665,15666,0.10039496421813965,-0.01166039053350687,0.9265897870063782,15.659907341003418,30.544248580932617,-24.941146850585938,-0.5879706144332886,-0.8219588994979858,-0.29098543524742126,0.34382152557373047,0.15923431515693665,2.607173204421997
390,15675,15676,-0.015650883316993713,0.032859884202480316,0.9612247347831726,6.10917854309082,26.5108642578125,-25.267295837402344,-0.5729713439941406,-0.8309584259986877,-0.29998499155044556,0.09026923030614853,0.3240780234336853,2.3553450107574463
391,15685,15686,-0.07031606882810593,-0.025982458144426346,0.9455200433731079,2.252415180206299,22.77118682861328,-26.487571716308594,-0.5849707126617432,-0.8279585838317871,-0.3059847056865692,-0.18438023328781128,0.44384637475013733,2.099076986312866
392,15695,15696,-0.07735247910022736,-0.2590782642364502,0.9623562097549438,3.2680318355560303,10.391040802001953,-27.756437301635742,-0.5879706144332886,-0.8399580121040344,-0.2939853072166443,-0.35293853282928467,0.4379720985889435,1.8387824296951294
393,15705,15706,-0.06820782274007797,-0.20389172434806824,0.9777257442474365,9.464850425720215,-1.8002469539642334,-28.977420806884766,-0.5864706635475159,-0.844457745552063,-0.29848507046699524,-0.5089741349220276,0.4513002336025238,1.565637230873108
394,15715,15716,-0.2135758250951767,-0.38684794306755066,0.9175302982330322,19.378061294555664,-17.49307632446289,-29.178926467895508,-0.577471137046814,-0.8264586329460144,-0.29848507046699524,-0.42095786333084106,0.7098606824874878,1.2671736478805542
395,15725,15726,-0.10619375854730606,-0.6262109279632568,0.8943254351615906,31.702564239501953,-33.78089141845703,-28.52190589904785,-0.5894705057144165,-0.8414579033851624,-0.29848507046699524,-0.08935334533452988,0.7049063444137573,0.9860126972198486
396,15735,15736,-0.026480980217456818,-0.5296956896781921,0.9211158156394958,38.41778564453125,-47.93756866455078,-25.65282440185547,-0.5819708704948425,-0.851957380771637,-0.30898454785346985,0.25133994221687317,1.0211031436920166,0.6931432485580444
397,15745,15746,-0.830595850944519,-0.44549405574798584,0.9141629934310913,37.07535934448242,-50.089202880859375,-24.515621185302734,-0.5729713439941406,-0.8609569072723389,-0.3119843900203705,0.7693434357643127,1.4185001850128174,0.4215811789035797
398,15755,15756,-0.7027926445007324,-0.3690032958984375,0.9102233648300171,29.18900489807129,-44.3825569152832,-23.463314056396484,-0.5804709792137146,-0.8654567003250122,-0.31948402523994446,1.1813784837722778,1.919848084449768,0.14493221044540405
399,15765,15766,-0.2868102192878723,-0.5183555483818054,0.9244327545166016,18.948997497558594,-28.96126937866211,-22.377639770507812,-0.56997150182724,-0.8729563355445862,-0.3119843900203705,1.591513991355896,2.152655839920044,-0.1054912880063057
400,15775,15776,-0.11843861639499664,-0.22105862200260162,0.9796296954154968,5.798553466796875,-6.400428771972656,-21.66981315612793,-0.577471137046814,-0.8654567003250122,-0.3134843111038208,1.8703882694244385,2.2772042751312256,-0.34388768672943115
401,15785,15786,-0.102415531873703,-0.2601747214794159,0.964008092880249,-8.503959655761719,20.45218276977539,-21.750991821289062,-0.5789710283279419,-0.8579570651054382,-0.3149842321872711,1.8466992378234863,2.4044671058654785,-0.5993339419364929
402,15795,15796,-0.427418977022171,-0.6379807591438293,0.9951772093772888,-22.598066329956055,49.09364700317383,-22.169057846069336,-0.5789710283279419,-0.8669566512107849,-0.3119843900203705,1.6282005310058594,2.2985680103302,-0.8248063325881958
403,15805,15806,-0.7343895435333252,-0.8728436827659607,1.0161594152450562,-27.89940071105957,67.23776245117188,-20.681591033935547,-0.5684715509414673,-0.8684565424919128,-0.3164841830730438,0.9400500059127808,2.0908079147338867,-1.1007554531097412
404,15815,15816,-0.27433234453201294,-0.8064349889755249,0.9998558759689331,-29.84619903564453,69.38463592529297,-18.40498924255371,-0.5669716596603394,-0.8729563355445862,-0.30898454785346985,0.583372950553894,1.8439825773239136,-1.2155777215957642
405,15825,15826,-0.3035162091255188,-0.21744407713413239,1.091958999633789,-25.74568748474121,60.17313766479492,-16.86503791809082,-0.5849707126617432,-0.8579570651054382,-0.3209839463233948,-0.15550179779529572,1.6623066663742065,-1.4180388450622559
406,15835,15836,-0.9191127419471741,-0.09652122110128403,1.0356169939041138,-18.912839889526367,44.59541320800781,-13.989725112915039,-0.5954701900482178,-0.844457745552063,-0.30748462677001953,-1.0334482192993164,1.3183939456939697,-1.64385187625885
407,15845,15846,-0.7760259509086609,-0.2665209472179413,1.027815818786621,-7.685999870300293,26.415090560913086,-12.320475578308105,-0.5984700918197632,-0.8564571738243103,-0.30748462677001953,-1.1485120058059692,1.158910870552063,-1.6519273519515991
408,15855,15856,-0.4621376693248749,-0.2216709703207016,0.9168643355369568,2.7393338680267334,4.019535064697266,-10.35336685180664,-0.6014699339866638,-0.844457745552063,-0.31048446893692017,-1.3714383840560913,1.0947917699813843,-1.741292953491211
409,15865,15866,-0.218418151140213,-0.5040069818496704,0.9610299468040466,16.93092918395996,-19.40053367614746,-6.974800109863281,-0.6089695692062378,-0.8549572229385376,-0.3059847056865692,-1.3878835439682007,1.2328267097473145,-1.8200792074203491
410,15875,15876,-0.33235055208206177,-0.32037127017974854,0.9101773500442505,26.90610694885254,-29.750097274780273,-4.6997857093811035,-0.5969701409339905,-0.8549572229385376,-0.3149842321872711,-1.1684539318084717,1.4113935232162476,-1.8690543174743652
411,15885,15886,-0.27730369567871094,-0.28258779644966125,0.9871947765350342,32.71072769165039,-35.68381881713867,-0.030422940850257874,-0.6014699339866638,-0.8624568581581116,-0.3134843111038208,-0.8328844308853149,1.8053629398345947,-1.9057502746582031
412,15895,15896,-0.06060584634542465,-0.46619197726249695,1.006246566772461,31.961732864379883,-24.075956344604492,1.3109840154647827,-0.5939702987670898,-0.8699564933776855,-0.30898454785346985,-0.5062210559844971,2.1163203716278076,-1.9344409704208374
413,15905,15906,-0.3940317928791046,-0.3438037037849426,0.9686595797538757,25.087602615356445,-14.212322235107422,2.723083257675171,-0.5984700918197632,-0.8654567003250122,-0.3254837095737457,-0.3524332642555237,2.4772748947143555,-1.9869275093078613
414,15915,15916,-0.5403910875320435,0.006549532525241375,1.115241527557373,12.834006309509277,-3.1757047176361084,4.158357620239258,-0.6029698252677917,-0.8609569072723389,-0.3209839463233948,-0.18307536840438843,2.5651097297668457,-1.9768370389938354
415,15925,15926,-0.22058500349521637,-0.4801118075847626,1.1065772771835327,-1.9380719661712646,4.258515357971191,2.6465330123901367,-0.5864706635475159,-0.8384580612182617,-0.3164841830730438,-0.0794946625828743,2.6795709133148193,-1.9326283931732178
416,15935,15936,0.0100459149107337,-0.4379115700721741,1.0782461166381836,-14.101314544677734,7.760743141174316,0.661745011806488,-0.5999699831008911,-0.8609569072723389,-0.3119843900203705,-0.16463212668895721,2.575242757797241,-1.9322755336761475
417,15945,15946,-0.011219962500035763,-0.13670524954795837,1.0224871635437012,-22.327905654907227,11.176471710205078,-1.0739268064498901,-0.5804709792137146,-0.8474575877189636,-0.30748462677001953,-0.2680782675743103,2.424161195755005,-1.9312576055526733
418,15955,15956,-0.7405796051025391,-0.5987840294837952,0.9820469617843628,-25.6279296875,15.891794204711914,-2.5446643829345703,-0.6089695692062378,-0.8459576964378357,-0.2969851493835449,-0.43094494938850403,2.3685169219970703,-1.9490232467651367
419,15965,15966,-0.3458110988140106,-0.556544840335846,1.0607359409332275,-25.427614212036133,19.490005493164062,-2.839256525039673,-0.5939702987670898,-0.8399580121040344,-0.30898454785346985,-0.5686767101287842,1.9705363512039185,-1.96978759765625
420,15975,15976,-0.0377139151096344,-0.15588031709194183,1.0482008457183838,-24.163225173950195,15.257888793945312,-2.0733790397644043,-0.5924703478813171,-0.844457745552063,-0.29848507046699524,-0.7924813032150269,1.7926404476165771,-2.004866123199463
421,15985,15986,-0.12954065203666687,-0.20689359307289124,1.0840955972671509,-23.130512237548828,12.564911842346191,-2.097228527069092,-0.6104694604873657,-0.8474575877189636,-0.3044847846031189,-1.0475220680236816,1.48824942111969,-2.0716304779052734
422,15995,15996,-0.0684090107679367,0.03263210505247116,1.0716228485107422,-19.595815658569336,5.863297939300537,-1.1211785078048706,-0.6044697761535645,-0.8414579033851624,-0.30748462677001953,-1.0141569375991821,1.4232233762741089,-1.9958467483520508
423,16005,16006,-0.38139718770980835,-0.04332151263952255,1.0583570003509521,-17.98798179626465,-1.1645662784576416,-0.5899550318717957,-0.5969701409339905,-0.8309584259986877,-0.3029848337173462,-1.0418858528137207,1.2397798299789429,-1.9812240600585938
424,16015,16016,-0.19394034147262573,0.0442061685025692,1.0756131410598755,-12.982215881347656,-10.203445434570312,-1.1927169561386108,-0.6029698252677917,-0.8279585838317871,-0.3029848337173462,-1.0791622400283813,1.1055089235305786,-1.9937278032302856
425,16025,16026,-0.0355246476829052,0.05215630307793617,1.0403203964233398,-4.484870910644531,-19.4941463470459,-0.571151852607727,-0.6074696183204651,-0.8354582190513611,-0.2954852283000946,-0.9120496511459351,0.9124950766563416,-1.9681761264801025
426,16035,16036,-0.04303598031401634,0.005604755599051714,1.0589234828948975,3.9433488845825195,-24.302942276000977,-1.5472993850708008,-0.6044697761535645,-0.8234587907791138,-0.28948551416397095,-0.8189365267753601,0.9234648942947388,-1.9994869232177734
427,16045,16046,0.02491103485226631,-0.02241358533501625,1.0491291284561157,9.43018913269043,-24.079803466796875,-2.807039499282837,-0.6059696674346924,-0.8279585838317871,-0.29098543524742126,-0.510319709777832,0.9787999987602234,-1.9793514013290405
428,16055,16056,-0.5845279693603516,-0.5664326548576355,1.006195306777954,10.066805839538574,-23.19259262084961,-2.892771005630493,-0.5984700918197632,-0.8234587907791138,-0.2924853563308716,-0.1360703557729721,1.0969176292419434,-1.9539594650268555
429,16065,16066,-0.5410803556442261,-0.28335094451904297,0.9458277821540833,9.03087329864502,-18.682897567749023,-4.370203495025635,-0.6059696674346924,-0.836958110332489,-0.2969851493835449,0.19853906333446503,1.1696200370788574,-1.9556130170822144
430,16075,16076,-0.523134171962738,-0.6577004194259644,0.9084442257881165,6.09097146987915,-11.635085105895996,-6.469794750213623,-0.6014699339866638,-0.8204589486122131,-0.3014849126338959,0.22280170023441315,1.2847262620925903,-2.0579898357391357
431,16085,16086,-1.0644768476486206,-0.5382872819900513,0.8917561173439026,-0.800277590751648,-1.0987217426300049,-7.734227180480957,-0.5999699831008911,-0.8189590573310852,-0.28798559308052063,0.3294064998626709,1.3258676528930664,-2.125347852706909
432,16095,16096,-0.7041343450546265,0.09796249121427536,0.9866932034492493,-9.276473045349121,8.690967559814453,-8.919931411743164,-0.6074696183204651,-0.8234587907791138,-0.29848507046699524,0.29591551423072815,1.2809429168701172,-2.2312827110290527
433,16105,16106,-0.4403327703475952,0.12153138220310211,0.9551998972892761,-16.103614807128906,19.682186126708984,-8.603143692016602,-0.5909704566001892,-0.8219588994979858,-0.28498575091362,0.2503056824207306,1.1719754934310913,-2.316568374633789
434,16115,16116,-0.8398072719573975,-0.1683211624622345,0.9977978467941284,-18.573410034179688,19.7207088470459,-6.673917770385742,-0.5984700918197632,-0.8144592642784119,-0.28948551416397095,-0.0014654268743470311,1.1033141613006592,-2.4268386363983154
435,16125,16126,-0.4970477521419525,-0.2385251820087433,1.024834156036377,-17.387418746948242,21.97879981994629,-5.396550178527832,-0.5969701409339905,-0.8249587416648865,-0.2939853072166443,-0.2962677478790283,0.8582698702812195,-2.528726100921631
436,16135,16136,-0.16200044751167297,-0.36050692200660706,0.9392780065536499,-16.203060150146484,20.219573974609375,-4.595646381378174,-0.6059696674346924,-0.8249587416648865,-0.28798559308052063,-0.3684585988521576,0.8988732099533081,-2.5258116722106934
437,16145,16146,-0.42912936210632324,-0.8781629800796509,0.9322142004966736,-16.23676109313965,13.12186050415039,-4.154265880584717,-0.6119694113731384,-0.8309584259986877,-0.2939853072166443,-0.6883977651596069,0.5843563675880432,-2.613288640975952
438,16155,16156,-0.45377206802368164,-0.6691200137138367,0.82033371925354,-16.78392791748047,5.971033573150635,-3.2433502674102783,-0.6059696674346924,-0.8189590573310852,-0.2759861946105957,-0.8081266283988953,0.3533402383327484,-2.6554417610168457
439,16165,16166,-0.2607371211051941,-0.6691230535507202,0.8322546482086182,-14.073650360107422,-3.213461399078369,-2.7162654399871826,-0.6059696674346924,-0.8219588994979858,-0.29098543524742126,-0.7838358879089355,0.3438314199447632,-2.652442455291748
440,16175,16176,0.018063096329569817,-0.4026012122631073,0.9043563604354858,-9.019054412841797,-12.384564399719238,-1.577035665512085,-0.6089695692062378,-0.8249587416648865,-0.29098543524742126,-0.7133703827857971,0.23078303039073944,-2.660586357116699
441,16185,16186,-0.21900753676891327,-0.16563327610492706,0.9704442620277405,-3.9932444095611572,-16.812925338745117,0.3389805257320404,-0.5999699831008911,-0.8339582681655884,-0.2939853072166443,-0.6045970916748047,0.13035354018211365,-2.6793081760406494
442,16195,16196,-0.3400171399116516,-0.08423242717981339,1.0056654214859009,-0.28849706053733826,-15.420540809631348,2.6123363971710205,-0.5999699831008911,-0.8309584259986877,-0.2939853072166443,-0.37212634086608887,0.11090367287397385,-2.666891098022461
443,16205,16206,-0.2088136374950409,0.01772397570312023,1.1446235179901123,3.929577589035034,-13.023072242736816,5.0028300285339355,-0.5969701409339905,-0.8309584259986877,-0.3059847056865692,-0.16321666538715363,0.07332180440425873,-2.641245126724243
444,16215,16216,-0.2707109749317169,-0.07259616255760193,1.1208055019378662,5.164309024810791,-7.622353553771973,7.563131332397461,-0.5939702987670898,-0.8339582681655884,-0.3029848337173462,-0.1598309725522995,0.0816570445895195,-2.62186336517334
445,16225,16226,-0.37328407168388367,-0.08122806996107101,1.0804247856140137,2.102982521057129,4.199662685394287,7.6878132820129395,-0.5954701900482178,-0.8354582190513611,-0.30748462677001953,-0.17666512727737427,0.1107659712433815,-2.5733985900878906
446,16235,16236,-0.5252858400344849,-0.03900255635380745,1.0022574663162231,-4.7083024978637695,16.49531364440918,7.849968433380127,-0.6104694604873657,-0.8204589486122131,-0.2954852283000946,-0.14181049168109894,0.07945674657821655,-2.49537992477417
447,16245,16246,-0.05208858475089073,-0.0005622474709525704,0.9973576068878174,-12.36318302154541,21.568153381347656,8.073831558227539,-0.6044697761535645,-0.8144592642784119,-0.29848507046699524,-0.34892359375953674,-0.05221603810787201,-2.4351041316986084
448,16255,16256,-0.07231967896223068,-0.2772713005542755,1.0293809175491333,-22.457382202148438,23.763797760009766,9.67031192779541,-0.5969701409339905,-0.8279585838317871,-0.29998499155044556,-0.5155898928642273,-0.03196951746940613,-2.340785503387451
449,16265,16266,-0.039026662707328796,-0.07750522345304489,1.0026782751083374,-27.9968318939209,22.431804656982422,10.59073257446289,-0.5969701409339905,-0.8189590573310852,-0.2939853072166443,-0.9086998701095581,-0.29291418194770813,-2.2691092491149902
450,16275,16276,-0.030816713348031044,-0.055560849606990814,0.9424313902854919,-27.55437660217285,14.393948554992676,11.164827346801758,-0.6044697761535645,-0.8294585347175598,-0.29848507046699524,-1.0973039865493774,-0.5540431141853333,-2.1634039878845215
451,16285,16286,-0.09593436866998672,-0.07754682004451752,1.004590630531311,-18.981334686279297,-1.4896255731582642,13.227519035339355,-0.6074696183204651,-0.8174591064453125,-0.31048446893692017,-1.1436139345169067,-0.7113351225852966,-2.0332701206207275
452,16295,16296,-0.02683049440383911,0.017920460551977158,0.9717662334442139,-6.74442195892334,-17.054113388061523,13.829822540283203,-0.5954701900482178,-0.8144592642784119,-0.28948551416397095,-1.0952955484390259,-0.9501660466194153,-1.9079794883728027
453,16305,16306,-0.11590495705604553,-0.03172561526298523,1.0084599256515503,2.501915693283081,-29.41447639465332,16.177473068237305,-0.5984700918197632,-0.8384580612182617,-0.29848507046699524,-0.9451392292976379,-1.0124566555023193,-1.7591948509216309
454,16315,16316,-0.10696368664503098,-0.08005968481302261,1.0189114809036255,11.402253150939941,-40.36759567260742,19.24839973449707,-0.5999699831008911,-0.836958110332489,-0.30898454785346985,-0.5951152443885803,-0.9818276762962341,-1.5988013744354248
455,16325,16326,-0.04859520494937897,-0.19879794120788574,0.9473568201065063,16.60251808166504,-43.556732177734375,22.683490753173828,-0.5834708213806152,-0.8384580612182617,-0.30748462677001953,-0.052181605249643326,-0.8306232690811157,-1.4113564491271973
456,16335,16336,-0.09521713852882385,-0.09322331100702286,0.952969491481781,15.34591007232666,-37.44962692260742,25.88555908203125,-0.5744712948799133,-0.844457745552063,-0.3164841830730438,0.3746737539768219,-0.6249341368675232,-1.1876157522201538
457,16345,16346,-0.5462539792060852,-0.35501861572265625,0.9552075266838074,13.173371315002441,-30.160879135131836,27.789386749267578,-0.5864706635475159,-0.8474575877189636,-0.31048446893692017,0.5773115754127502,-0.502633273601532,-0.9218409061431885
458,16355,16356,-0.4225904941558838,-0.5946914553642273,0.9686021208763123,10.025029182434082,-18.242334365844727,27.708879470825195,-0.5864706635475159,-0.8474575877189636,-0.31048446893692017,0.7912591099739075,-0.41966181993484497,-0.6417168974876404
459,16365,16366,-0.22869275510311127,-0.17379549145698547,1.0604842901229858,2.9578685760498047,-0.6198567748069763,26.30977439880371,-0.5864706635475159,-0.8474575877189636,-0.31048446893692017,0.9548413753509521,-0.32673877477645874,-0.35855621099472046
460,16375,16376,-0.16922129690647125,0.006600090768188238,1.0306581258773804,-9.780548095703125,16.116243362426758,24.625398635864258,-0.5654717087745667,-0.844457745552063,-0.3134843111038208,0.9236852526664734,-0.3627437353134155,-0.08291517943143845
461,16385,16386,-0.1201583668589592,-0.0551346018910408,0.9850316047668457,-22.598522186279297,28.73921012878418,23.01760482788086,-0.5729713439941406,-0.836958110332489,-0.3119843900203705,0.7615286707878113,-0.5118386149406433,0.17273446917533875
462,16395,16396,-0.16522042453289032,-0.08051306009292603,1.0155407190322876,-33.72822570800781,35.156368255615234,21.80160903930664,-0.5834708213806152,-0.8474575877189636,-0.31048446893692017,0.49250996112823486,-0.9309311509132385,0.4050934612751007
463,16405,16406,-0.7016109228134155,0.01354387030005455,0.9782622456550598,-39.86112976074219,34.58582305908203,20.450054168701172,-0.5669716596603394,-0.8399580121040344,-0.30898454785346985,0.07188644260168076,-1.0726983547210693,0.6261156797409058
464,16415,16416,-0.3883451223373413,-0.03327786549925804,0.9665987491607666,-39.692108154296875,27.567607879638672,19.246150970458984,-0.5744712948799133,-0.8354582190513611,-0.31048446893692017,-0.25099611282348633,-1.5046414136886597,0.8245751857757568
465,16425,16426,-0.07818273454904556,-0.058475397527217865,1.0091136693954468,-33.678680419921875,18.061208724975586,16.472917556762695,-0.577471137046814,-0.8414579033851624,-0.3134843111038208,-0.6012867093086243,-2.0587897300720215,1.0184520483016968
466,16435,16436,-0.008499966003000736,-0.00745562557131052,1.0738905668258667,-22.535982131958008,9.596029281616211,13.710524559020996,-0.56997150182724,-0.8309584259986877,-0.3029848337173462,-0.5849018096923828,-2.138615608215332,1.145998239517212
467,16445,16446,-0.03622843325138092,-0.06896054744720459,1.034125804901123,-5.594772815704346,-1.6432907581329346,12.605681419372559,-0.5819708704948425,-0.8339582681655884,-0.29998499155044556,-0.7352311015129089,-2.391125202178955,1.2947076559066772
468,16455,16456,-0.3203241527080536,-0.0810059905052185,1.0565365552902222,14.113580703735352,-1.9547367095947266,12.028812408447266,-0.5759711861610413,-0.8279585838317871,-0.3029848337173462,-0.7639411687850952,-2.512471914291382,1.418809413909912
469,16465,16466,-0.20626291632652283,-0.020222287625074387,1.0139285326004028,30.894018173217773,2.248934268951416,10.972225189208984,-0.5879706144332886,-0.8459576964378357,-0.30898454785346985,-0.7474113702774048,-2.2550439834594727,1.5525628328323364
470,16475,16476,-0.0012794709764420986,-0.037795715034008026,1.0180774927139282,41.195308685302734,4.188776016235352,11.1013765335083,-0.5789710283279419,-0.8489575386047363,-0.30898454785346985,-0.7938385605812073,-2.1091291904449463,1.6723264455795288
471,16485,16486,-0.11658187955617905,0.018318282440304756,1.0654844045639038,43.746734619140625,10.566978454589844,11.162555694580078,-0.5894705057144165,-0.844457745552063,-0.30748462677001953,-0.837003767490387,-1.594357967376709,1.787379503250122
472,16495,16496,-0.092977374792099,-0.03852437436580658,1.0713095664978027,40.50931167602539,13.571587562561035,10.437215805053711,-0.5909704566001892,-0.8609569072723389,-0.32698363065719604,-0.7891932129859924,-1.1213916540145874,1.856771469116211
473,16505,16506,-0.39357703924179077,-0.1162780299782753,1.0829015970230103,28.853307723999023,9.499067306518555,12.445634841918945,-0.5849707126617432,-0.8489575386047363,-0.3209839463233948,-0.9933841228485107,-0.8796920776367188,1.973447561264038
474,16515,16516,-0.5970427989959717,-0.1822226494550705,1.065967321395874,17.54007911682129,6.314969539642334,12.898653984069824,-0.5879706144332886,-0.8579570651054382,-0.3149842321872711,-1.092843770980835,-0.5668653845787048,2.07468318939209
475,16525,16526,-1.1452882289886475,-0.5220675468444824,1.0508149862289429,5.130000114440918,-2.5747218132019043,13.424642562866211,-0.5939702987670898,-0.8489575386047363,-0.3149842321872711,-1.1036545038223267,-0.5227727293968201,2.163419723510742
476,16535,16536,-0.8747330904006958,-0.5023493766784668,1.0416141748428345,-2.99289870262146,-6.845441818237305,13.179473876953125,-0.5789710283279419,-0.851957380771637,-0.3149842321872711,-1.078719139099121,-0.43282079696655273,2.2878029346466064
