,timestamp_start,timestamp_end,acc.x,acc.y,acc.z,gyro.x,gyro.y,gyro.z,mag.x,mag.y,mag.z,stabilizer.pitch,stabilizer.roll,stabilizer.yaw
0,147226,147227,-0.05501879006624222,-0.021741284057497978,0.9519734382629395,6.08461856842041,-9.429235458374023,2.4944610595703125,-0.050997450947761536,-3.008849620819092,0.32998350262641907,1.0073978900909424,-0.33782172203063965,0.10444440692663193
1,147236,147237,-0.00283240363933146,0.02402772195637226,1.0072091817855835,13.952614784240723,-10.164241790771484,-0.00655181473121047,-0.05549722537398338,-3.0163490772247314,0.3224838674068451,1.6672965288162231,0.13028573989868164,-0.021741019561886787
2,147246,147247,-0.04252072796225548,0.15942737460136414,1.0284894704818726,21.083040237426758,-7.563696384429932,-0.9676029682159424,-0.04949752241373062,-3.0133492946624756,0.3164841830730438,1.7966538667678833,0.3484468162059784,-0.0426606684923172
3,147256,147257,-0.1656794250011444,0.08606819063425064,0.9481679797172546,22.751718521118164,3.332266330718994,-1.696893572807312,-0.04199789837002754,-3.0388479232788086,0.29998499155044556,1.868161916732788,0.43691232800483704,-0.014782303012907505
4,147266,147267,-0.05944705009460449,0.056136809289455414,0.9966717958450317,18.020870208740234,16.99046516418457,-2.5299882888793945,-0.06149692460894585,-3.034348249435425,0.31048446893692017,1.6635174751281738,0.6374372839927673,-0.015605553984642029
5,147276,147277,-0.012428821064531803,-0.09905902296304703,0.8594492077827454,9.05849838256836,31.928024291992188,-3.9821274280548096,-0.056997150182724,-3.0208489894866943,0.32698363065719604,1.43975031375885,0.7937737107276917,-0.04177866503596306
6,147286,147287,-0.032337430864572525,-0.09115563333034515,0.8928163647651672,-6.181933879852295,44.654762268066406,-4.895687103271484,-0.06149692460894585,-3.0163490772247314,0.30748462677001953,0.9198758602142334,0.6712412238121033,-0.02233041450381279
7,147296,147297,-0.020996345207095146,0.18763095140457153,1.0871100425720215,-20.149436950683594,49.7968635559082,-6.348697185516357,-0.07049647718667984,-3.0163490772247314,0.33448326587677,0.4874839782714844,0.4710615277290344,-0.04867440462112427
8,147306,147307,-0.18437346816062927,0.022917835041880608,0.9900030493736267,-29.11310386657715,47.07612991333008,-6.871951580047607,-0.058497074991464615,-3.0103495121002197,0.3254837095737457,0.040028009563684464,0.23737315833568573,-0.10911942273378372
9,147316,147317,0.02964484505355358,-0.022897306829690933,0.9246726036071777,-30.508983612060547,40.87993621826172,-8.271211624145508,-0.05999699980020523,-3.0178489685058594,0.31798410415649414,-0.3510880172252655,0.055881645530462265,-0.21516184508800507
10,147326,147327,-0.0039459578692913055,0.003473968943580985,0.9858601689338684,-27.161697387695312,27.09510040283203,-9.696432113647461,-0.06899654865264893,-3.0178489685058594,0.3209839463233948,-0.37358084321022034,-0.31464195251464844,-0.3011358082294464
11,147336,147337,-0.0077724033035337925,0.050070833414793015,0.969021201133728,-19.25901222229004,13.709582328796387,-12.293681144714355,-0.07349632680416107,-3.004349708557129,0.3134843111038208,-0.8116840720176697,-0.5822466611862183,-0.3959158658981323
12,147346,147347,-0.02344530262053013,0.06858526915311813,1.0050259828567505,-8.959250450134277,3.6687378883361816,-14.561159133911133,-0.07349632680416107,-3.0133492946624756,0.31948402523994446,-0.965461790561676,-0.6349661946296692,-0.5433797836303711
13,147356,147357,0.04650373384356499,0.04197051748633385,1.0263055562973022,4.770263671875,-2.80707049369812,-14.489646911621094,-0.08849557489156723,-3.0103495121002197,0.3134843111038208,-0.9847754240036011,-0.7024949789047241,-0.6908093094825745
14,147366,147367,-0.04145030304789543,-0.039790891110897064,0.9766131639480591,16.082368850708008,-5.615229606628418,-14.58717155456543,-0.07949602603912354,-3.0193488597869873,0.3254837095737457,-0.9245099425315857,-0.5614782571792603,-0.840401291847229
15,147376,147377,0.06020139530301094,0.06454446911811829,0.9365615248680115,21.38967514038086,-4.959521293640137,-15.077634811401367,-0.08099594712257385,-3.0118494033813477,0.3239837884902954,-0.7287886738777161,-0.3061509430408478,-1.0095380544662476
16,147386,147387,-0.022105330601334572,0.06530389189720154,0.8644657135009766,20.691864013671875,-2.1708590984344482,-14.49296760559082,-0.09149542450904846,-3.0103495121002197,0.31948402523994446,-0.6930574774742126,-0.019746288657188416,-1.1594167947769165
17,147396,147397,-0.04061536863446236,-0.0981845110654831,0.9394886493682861,12.725515365600586,6.313297748565674,-14.053434371948242,-0.0764961764216423,-3.0133492946624756,0.32848358154296875,-0.7465359568595886,0.17916937172412872,-1.2962027788162231
18,147406,147407,0.0963662639260292,-0.16367389261722565,0.9428800344467163,2.138166904449463,15.698161125183105,-13.56558609008789,-0.08099594712257385,-3.0208489894866943,0.32698363065719604,-0.9499577283859253,0.22108420729637146,-1.4188777208328247
19,147416,147417,-0.04885387048125267,-0.13275472819805145,0.9515244960784912,-8.682852745056152,20.800405502319336,-11.623568534851074,-0.08099594712257385,-3.0208489894866943,0.33898305892944336,-1.360525369644165,0.23654094338417053,-1.5180165767669678
20,147426,147427,-0.1715761423110962,-0.15883229672908783,1.0031983852386475,-20.264657974243164,25.706798553466797,-7.941032886505127,-0.08849557489156723,-3.0103495121002197,0.3254837095737457,-1.1171650886535645,0.12024804949760437,-1.6672585010528564
21,147436,147437,-0.08748398721218109,-0.07355011999607086,0.9713116884231567,-26.87989616394043,25.46967124938965,-4.870999336242676,-0.085495725274086,-3.0133492946624756,0.3224838674068451,-1.4173747301101685,-0.20418491959571838,-1.738778829574585
22,147446,147447,-0.09492693841457367,-0.05828160420060158,0.9041603207588196,-23.813100814819336,21.101037979125977,-3.270231246948242,-0.09149542450904846,-3.001349925994873,0.3224838674068451,-1.6539087295532227,-0.4664038121700287,-1.7818248271942139
23,147456,147457,-0.09239165484905243,-0.0347389280796051,0.9262010455131531,-16.561290740966797,17.290679931640625,-3.0908830165863037,-0.09299534559249878,-3.002849817276001,0.32698363065719604,-1.9595322608947754,-0.7019351124763489,-1.8086299896240234
24,147466,147467,-0.00363439810462296,0.04305595904588699,0.9780031442642212,-4.63140344619751,11.228025436401367,-4.654926776885986,-0.09149542450904846,-3.0103495121002197,0.32848358154296875,-1.7704650163650513,-0.6526060700416565,-1.8549559116363525
25,147476,147477,-0.049531981348991394,0.017130425199866295,0.9304491877555847,9.180235862731934,5.686551570892334,-7.201704978942871,-0.09299534559249878,-3.002849817276001,0.33598318696022034,-1.9803153276443481,-0.6722503304481506,-1.898172378540039
26,147486,147487,-0.07595183700323105,-0.19043879210948944,0.8838379979133606,21.367992401123047,4.9650797843933105,-8.419227600097656,-0.09299534559249878,-3.002849817276001,0.33598318696022034,-2.0607924461364746,-0.47793376445770264,-1.9595187902450562
27,147496,147497,-0.1461820751428604,-0.22396495938301086,0.923523485660553,28.617368698120117,5.738314151763916,-8.760622024536133,-0.09299534559249878,-3.002849817276001,0.33598318696022034,-2.010821580886841,-0.20329029858112335,-2.0533008575439453
28,147506,147507,-0.10977659374475479,-0.14203712344169617,0.9496850967407227,26.294775009155273,4.905882358551025,-8.250365257263184,-0.09299534559249878,-3.002849817276001,0.33598318696022034,-1.9095147848129272,0.026657337322831154,-2.168551206588745
29,147516,147517,-0.0005896613001823425,0.00023606029571965337,0.9611229300498962,14.594120979309082,1.235105037689209,-8.334981918334961,-0.0944952741265297,-3.0193488597869873,0.3254837095737457,-1.839686632156372,0.14505413174629211,-2.2881338596343994
30,147526,147527,-0.04672425985336304,0.005749065894633532,0.9567548036575317,-2.3812787532806396,0.8291489481925964,-7.487668514251709,-0.10799460113048553,-3.0208489894866943,0.32698363065719604,-1.9455803632736206,0.15995801985263824,-2.375441789627075
31,147536,147537,-0.05761762335896492,0.03093627654016018,0.9877206087112427,-16.482107162475586,2.500037431716919,-6.149313926696777,-0.08249587565660477,-3.0193488597869873,0.31948402523994446,-2.1144309043884277,0.003997275605797768,-2.449585199356079
32,147546,147547,0.04930590093135834,0.06663237512111664,0.9927624464035034,-29.09005355834961,5.094323635101318,-4.088819980621338,-0.08249587565660477,-3.0193488597869873,0.3134843111038208,-1.9016882181167603,-0.09072889387607574,-2.502486228942871
33,147556,147557,-0.04479307681322098,0.015344928950071335,0.986208438873291,-34.578731536865234,7.615525245666504,-1.223584532737732,-0.10949452221393585,-3.0163490772247314,0.31948402523994446,-2.1456663608551025,-0.5996382832527161,-2.5697250366210938
34,147566,147567,0.036239176988601685,-0.10501351952552795,0.8784158229827881,-30.923376083374023,13.66020393371582,0.40311741828918457,-0.09149542450904846,-3.0133492946624756,0.3254837095737457,-2.241659641265869,-1.1556713581085205,-2.6310653686523438
35,147576,147577,-0.05025090277194977,-0.09148562699556351,0.9135527014732361,-20.8428897857666,17.86652374267578,2.678285598754883,-0.1049947515130043,-3.008849620819092,0.32998350262641907,-2.4932217597961426,-1.435233473777771,-2.613668918609619
36,147586,147587,-0.009229503571987152,0.05097354203462601,0.9978852272033691,-5.755101203918457,16.163528442382812,4.176230430603027,-0.09149542450904846,-3.0073494911193848,0.32848358154296875,-2.597820281982422,-1.4371775388717651,-2.5469915866851807
37,147596,147597,-0.05515642091631889,0.003891203785315156,0.9699329733848572,10.444151878356934,12.679287910461426,5.120347023010254,-0.09599519520998001,-2.9938502311706543,0.33598318696022034,-2.722710609436035,-1.3935495615005493,-2.4952309131622314
38,147606,147607,0.06984861195087433,0.023035457357764244,0.8686442971229553,21.982736587524414,9.837119102478027,6.114096641540527,-0.10349482297897339,-3.0163490772247314,0.3404829800128937,-2.8800816535949707,-1.1399142742156982,-2.4037208557128906
39,147616,147617,-0.018473340198397636,0.010219846852123737,0.926764965057373,28.30310821533203,3.8242204189300537,6.980378150939941,-0.10199490189552307,-2.999850034713745,0.3329833447933197,-2.940992593765259,-0.8165626525878906,-2.3162789344787598
40,147626,147627,-0.07695616036653519,-0.01723490096628666,0.9490658044815063,24.04207992553711,2.3190267086029053,7.965335845947266,-0.1049947515130043,-3.005849599838257,0.31798410415649414,-2.9449002742767334,-0.4257543385028839,-2.208282232284546
41,147636,147637,-0.005972565617412329,-0.19554948806762695,0.9836837649345398,12.029723167419434,0.3811819851398468,8.645723342895508,-0.10649467259645462,-3.001349925994873,0.32848358154296875,-2.928184747695923,-0.2564114034175873,-2.1466009616851807
42,147646,147647,-0.05343626067042351,-0.08516788482666016,0.9188750982284546,-2.0647780895233154,-4.372503280639648,8.100412368774414,-0.1049947515130043,-3.0118494033813477,0.32998350262641907,-2.9068779945373535,-0.3639211654663086,-2.132101058959961
43,147656,147657,-0.19045396149158478,0.046655554324388504,0.9571064710617065,-16.71986198425293,-6.647172927856445,7.281525611877441,-0.11699414998292923,-3.002849817276001,0.33898305892944336,-2.8282065391540527,-0.4799729585647583,-2.0750467777252197
44,147666,147667,-0.07614484429359436,0.023731654509902,0.9771642088890076,-26.719064712524414,-3.5676445960998535,3.9295413494110107,-0.11249437183141708,-3.0073494911193848,0.3224838674068451,-2.8340275287628174,-0.591353714466095,-1.9694390296936035
45,147676,147677,-0.08728180080652237,-0.0007912393775768578,1.0135911703109741,-30.523046493530273,0.6077802777290344,1.3883559703826904,-0.1049947515130043,-3.0118494033813477,0.33598318696022034,-2.7511260509490967,-0.9475561380386353,-1.9746769666671753
46,147686,147687,-0.025974102318286896,0.11474724858999252,1.0213018655776978,-22.548208236694336,4.272399425506592,0.20192816853523254,-0.10049497336149216,-2.9953501224517822,0.32848358154296875,-2.8723318576812744,-1.248149037361145,-1.957223892211914
47,147696,147697,-0.020150072872638702,0.028149012476205826,0.9751068353652954,-9.669672966003418,2.138441324234009,-0.801224946975708,-0.0944952741265297,-3.004349708557129,0.3314834237098694,-2.976011037826538,-1.435403823852539,-1.947830080986023
48,147706,147707,-0.025072962045669556,0.04293772950768471,0.9859902262687683,5.218114376068115,-0.4694330096244812,-0.8868339657783508,-0.10949452221393585,-2.9893505573272705,0.32848358154296875,-2.966426372528076,-1.5273501873016357,-1.9796168804168701
49,147716,147717,-0.03060016594827175,0.04349963739514351,0.9961476922035217,18.041051864624023,-4.128857612609863,0.5032889246940613,-0.1049947515130043,-3.002849817276001,0.32698363065719604,-2.8348050117492676,-1.3233318328857422,-1.9637025594711304
50,147726,147727,-0.07105115056037903,0.035603128373622894,0.9832992553710938,26.165355682373047,-8.228132247924805,2.3318471908569336,-0.11549422144889832,-2.9953501224517822,0.3314834237098694,-2.778808355331421,-0.9618204832077026,-1.8917795419692993
51,147736,147737,-0.12851764261722565,-0.1948789358139038,0.8979491591453552,28.003190994262695,-13.377947807312012,3.9224143028259277,-0.10949452221393585,-2.998350143432617,0.32848358154296875,-2.639578342437744,-0.6783860921859741,-1.86405611038208
52,147746,147747,-0.044327348470687866,-0.011942830868065357,0.946578860282898,24.69686508178711,-15.158462524414062,5.745386123657227,-0.11699414998292923,-2.9938502311706543,0.33598318696022034,-2.580335855484009,-0.6154128909111023,-1.8819829225540161
53,147756,147757,-0.04121965542435646,0.025243861600756645,0.9455462098121643,16.890270233154297,-17.382474899291992,6.76064395904541,-0.10949452221393585,-3.004349708557129,0.3254837095737457,-2.3478939533233643,-0.419301837682724,-1.844545602798462
54,147766,147767,-0.04123105853796005,0.004138883203268051,0.9221989512443542,3.7009074687957764,-20.068897247314453,7.038747310638428,-0.10799460113048553,-3.02384877204895,0.33598318696022034,-2.0818302631378174,-0.26922720670700073,-1.777870535850525
55,147776,147777,-0.057607803493738174,-0.0017104760045185685,0.901858925819397,-6.788662433624268,-20.82244110107422,6.679303169250488,-0.10349482297897339,-3.0133492946624756,0.3404829800128937,-1.789765477180481,-0.2404869943857193,-1.7105518579483032
56,147786,147787,-0.0014856898924335837,0.05122463032603264,0.9527239203453064,-13.14559268951416,-15.445080757141113,7.568939208984375,-0.09749512374401093,-3.004349708557129,0.3314834237098694,-1.6792857646942139,-0.6147338151931763,-1.721675992012024
57,147796,147797,-0.11233636736869812,0.1336420327425003,0.8925063610076904,-15.893280982971191,-10.319903373718262,9.69759464263916,-0.10049497336149216,-3.0073494911193848,0.3314834237098694,-1.5026112794876099,-0.8301205635070801,-1.6658341884613037
58,147806,147807,-0.08318955451250076,0.06430205702781677,0.9324992895126343,-4.0172553062438965,1.4117671251296997,10.905722618103027,-0.09749512374401093,-3.0073494911193848,0.31948402523994446,-1.7579283714294434,-0.9442106485366821,-1.5177419185638428
59,147816,147817,-0.040317658334970474,0.045809075236320496,0.9537628293037415,10.587080955505371,7.110950946807861,10.572550773620605,-0.08999549597501755,-3.005849599838257,0.32698363065719604,-1.4377249479293823,0.524851381778717,-1.0472385883331299
60,147826,147827,-0.13399751484394073,0.20265144109725952,0.9035579562187195,23.654956817626953,8.313666343688965,7.590584754943848,-0.09149542450904846,-3.0103495121002197,0.32848358154296875,-1.5264489650726318,0.657905638217926,-0.9509292840957642
61,147836,147837,-0.036835212260484695,0.27848178148269653,1.0463263988494873,23.09783172607422,9.109776496887207,3.994385004043579,-0.08849557489156723,-3.0103495121002197,0.3254837095737457,-1.560829997062683,0.8152937293052673,-0.9138419032096863
62,147846,147847,0.05358361080288887,-0.036030322313308716,0.9158254861831665,12.613849639892578,10.108312606811523,2.7326531410217285,-0.0944952741265297,-3.0193488597869873,0.32848358154296875,-1.6826180219650269,0.9477609395980835,-0.8930538892745972
63,147856,147857,-0.027379870414733887,-0.024861609563231468,0.9269807934761047,-8.617962837219238,7.525003433227539,1.8062690496444702,-0.0944952741265297,-3.0223488807678223,0.3404829800128937,-1.7814321517944336,0.7996359467506409,-0.9110493063926697
64,147866,147867,-0.1351737231016159,0.14705772697925568,0.8566314578056335,-30.159900665283203,3.433732271194458,1.7704668045043945,-0.0944952741265297,-3.025348663330078,0.3254837095737457,-1.7510939836502075,0.3991696834564209,-0.9511524438858032
65,147876,147877,-0.020136743783950806,0.31767359375953674,1.0329716205596924,-49.38676071166992,1.5877933502197266,2.156714677810669,-0.10949452221393585,-3.0163490772247314,0.3254837095737457,-1.82164466381073,-0.042549677193164825,-0.9475576281547546
66,147886,147887,-0.047933656722307205,0.09017723798751831,0.9802700877189636,-53.5970573425293,-1.786845088005066,3.890838861465454,-0.08999549597501755,-3.008849620819092,0.3239837884902954,-1.7716177701950073,-0.5849595069885254,-0.9218615293502808
67,147896,147897,-0.031197626143693924,-0.016024013981223106,1.0024172067642212,-45.71343231201172,-0.2899071276187897,3.405989646911621,-0.08699564635753632,-3.0178489685058594,0.3239837884902954,-1.785834550857544,-1.211920976638794,-0.9059816598892212
68,147906,147907,0.02498176135122776,-0.21264468133449554,0.979793131351471,-31.065580368041992,-1.091571569442749,2.8123867511749268,-0.08699564635753632,-3.002849817276001,0.32698363065719604,-1.800162672996521,-1.6347187757492065,-0.8739070892333984
69,147916,147917,-0.06435420364141464,-0.21894821524620056,0.959589421749115,-11.409442901611328,-3.547992467880249,1.470766305923462,-0.09899504482746124,-2.999850034713745,0.341982901096344,-1.8451287746429443,-1.7732759714126587,-0.8249431848526001
70,147926,147927,-0.05779394507408142,-0.0425485335290432,0.9642454981803894,13.000487327575684,-3.4657375812530518,-0.5711262226104736,-0.085495725274086,-2.9893505573272705,0.3224838674068451,-1.7962877750396729,-1.7493574619293213,-0.8089094758033752
71,147936,147937,-0.001977965934202075,0.0644579529762268,1.0072115659713745,31.996044158935547,-3.0445852279663086,-1.0606426000595093,-0.08699564635753632,-2.9878506660461426,0.3209839463233948,-1.7588201761245728,-1.5276482105255127,-0.8117501139640808
72,147946,147947,-0.025006674230098724,0.27777591347694397,1.0477179288864136,38.6250114440918,-2.497077465057373,-2.1447691917419434,-0.10199490189552307,-3.005849599838257,0.32698363065719604,-1.718814492225647,-1.2446837425231934,-0.8367878198623657
73,147956,147957,-0.10008455067873001,0.26853927969932556,0.9294258952140808,34.994850158691406,-2.1039416790008545,-2.9997642040252686,-0.09599519520998001,-3.005849599838257,0.32998350262641907,-1.6808894872665405,-1.0163066387176514,-0.8862921595573425
74,147966,147967,0.01835019886493683,0.2278531789779663,0.995870053768158,26.146480560302734,1.3393720388412476,-3.1998291015625,-0.09149542450904846,-3.0133492946624756,0.3254837095737457,-1.6813685894012451,-0.679323136806488,-0.9152567982673645
75,147976,147977,0.017527731135487556,0.01270095445215702,0.9670858979225159,15.555069923400879,1.465407133102417,-2.0632288455963135,-0.09149542450904846,-3.025348663330078,0.32848358154296875,-1.7032793760299683,-0.5787844061851501,-0.9569669961929321
76,147986,147987,0.10924714058637619,-0.05117940157651901,0.923692524433136,6.921816825866699,0.395800918340683,-2.2048873901367188,-0.09749512374401093,-3.0073494911193848,0.32848358154296875,-1.727220892906189,-0.5439600944519043,-0.9908239841461182
77,147996,147997,0.07487916201353073,0.07448790222406387,0.8958099484443665,0.6720307469367981,-8.671392440795898,-2.6968138217926025,-0.10049497336149216,-3.0163490772247314,0.31948402523994446,-1.6451438665390015,-0.4810396432876587,-1.016933798789978
78,148006,148007,-0.08155693113803864,0.22875575721263885,0.9318962693214417,-2.9194741249084473,-19.180234909057617,-3.104527711868286,-0.0764961764216423,-3.001349925994873,0.3254837095737457,-1.3985685110092163,-0.5637175440788269,-1.068161129951477
79,148016,148017,-0.08084916323423386,0.04389292374253273,0.9274190068244934,-4.850221633911133,-25.036165237426758,-2.5031070709228516,-0.10049497336149216,-3.0073494911193848,0.3254837095737457,-1.1820664405822754,-0.5441852807998657,-1.0899029970169067
80,148026,148027,-0.0652223527431488,-0.0026676279958337545,0.9578892588615417,-5.481059551239014,-27.975645065307617,-0.9590775370597839,-0.08849557489156723,-3.0133492946624756,0.31948402523994446,-0.9614550471305847,-0.6099390387535095,-1.105072021484375
81,148036,148037,-0.043069254606962204,-0.018465733155608177,0.9382357597351074,-5.7633056640625,-27.87104606628418,0.8011908531188965,-0.09749512374401093,-2.998350143432617,0.32848358154296875,-0.7149122953414917,-0.6891129016876221,-1.1037163734436035
82,148046,148047,0.015264109708368778,-0.18131966888904572,0.8808076977729797,-6.388487339019775,-23.14459800720215,1.6478663682937622,-0.08249587565660477,-3.0133492946624756,0.33448326587677,-0.4382525682449341,-0.7636398673057556,-1.0901497602462769
83,148056,148057,-0.0825132206082344,-0.11340637505054474,0.926443874835968,-5.290501594543457,-13.02139949798584,1.8595508337020874,-0.09749512374401093,-3.0223488807678223,0.31948402523994446,-0.2298697680234909,-0.8387718200683594,-1.0766233205795288
84,148066,148067,-0.02571604587137699,-0.008106070570647717,0.9627792835235596,-5.65376091003418,-0.8493534326553345,3.7067649364471436,-0.08699564635753632,-3.0148491859436035,0.31798410415649414,-0.13459037244319916,-0.8998312950134277,-1.051886796951294
85,148076,148077,0.03776753321290016,0.23998139798641205,1.0036057233810425,-4.766351222991943,9.35554027557373,5.098705291748047,-0.08399579674005508,-3.008849620819092,0.31798410415649414,-0.29092758893966675,-1.0952527523040771,-0.9965617656707764
86,148086,148087,-0.13963018357753754,0.20752045512199402,0.8596490621566772,-2.2692105770111084,16.03090476989746,4.979228973388672,-0.09149542450904846,-3.0193488597869873,0.31948402523994446,-0.4878308176994324,-1.10926353931427,-0.9430362582206726
87,148096,148097,-0.07347973436117172,0.050909269601106644,0.9626481533050537,3.6154215335845947,22.55160140991211,6.2589616775512695,-0.07499624788761139,-3.002849817276001,0.32998350262641907,-0.7351009845733643,-1.048580288887024,-0.8871632218360901
88,148106,148107,-0.06091863289475441,-0.04718450456857681,0.9827795624732971,6.55918025970459,18.56670570373535,6.942210674285889,-0.07049647718667984,-3.025348663330078,0.31948402523994446,-0.6913371682167053,-1.061216950416565,-0.8477188944816589
89,148116,148117,-0.07481599599123001,-0.061063095927238464,1.0083421468734741,4.387409687042236,11.090727806091309,6.071536540985107,-0.07799609750509262,-3.0118494033813477,0.3239837884902954,-0.913020670413971,-0.9316508769989014,-0.7815422415733337
90,148126,148127,-0.01957346312701702,0.003560723504051566,1.0056264400482178,0.7964829802513123,5.694655418395996,6.1926398277282715,-0.07049647718667984,-3.0163490772247314,0.30748462677001953,-0.9580199122428894,-0.9928823709487915,-0.7216112613677979
91,148136,148137,-0.06285917013883591,0.0031288883183151484,0.9882994890213013,-2.8156442642211914,-2.1354868412017822,5.997480392456055,-0.07949602603912354,-3.0133492946624756,0.3254837095737457,-0.9614109992980957,-1.1047390699386597,-0.6571640968322754
92,148146,148147,-0.04646887630224228,-0.023220602422952652,0.9761484861373901,-4.109731197357178,-7.308103561401367,5.12032413482666,-0.07199639827013016,-3.0178489685058594,0.31798410415649414,-0.865039587020874,-1.1721904277801514,-0.604273796081543
93,148156,148157,-0.1047358438372612,0.05282966420054436,1.0369750261306763,-4.033317565917969,-10.356529235839844,3.869832754135132,-0.07499624788761139,-3.02384877204895,0.32998350262641907,-0.7741497755050659,-1.1715880632400513,-0.5580732822418213
94,148166,148167,-0.04864097759127617,-0.0580558143556118,1.007561445236206,0.34705033898353577,-7.509868621826172,1.182293176651001,-0.07049647718667984,-3.0103495121002197,0.31948402523994446,-0.6156485676765442,-1.1431186199188232,-0.5336776375770569
95,148176,148177,-0.013180870562791824,0.014613186940550804,1.064091444015503,10.03310489654541,-0.3845045864582062,-1.230069875717163,-0.08399579674005508,-3.008849620819092,0.3149842321872711,-0.6247659921646118,-1.0588338375091553,-0.5264678001403809
96,148186,148187,-0.010156137868762016,-0.011288563720881939,1.0364656448364258,20.065622329711914,5.731166839599609,-2.222106456756592,-0.08249587565660477,-3.0223488807678223,0.3224838674068451,-0.7386497855186462,-0.8840914964675903,-0.530630350112915
97,148196,148197,0.018149422481656075,0.13791577517986298,1.1161781549453735,29.99416732788086,11.351381301879883,-3.512788772583008,-0.07499624788761139,-3.029848337173462,0.31798410415649414,-0.8030186891555786,-0.5484715700149536,-0.5662155747413635
98,148206,148207,0.04841015860438347,0.21996071934700012,1.1166198253631592,34.666908264160156,12.6867036819458,-4.935945987701416,-0.0764961764216423,-3.0163490772247314,0.31948402523994446,-0.9195941090583801,-0.3149526119232178,-0.6008061170578003
99,148216,148217,0.012010619975626469,0.21948403120040894,1.0398508310317993,31.353473663330078,9.334833145141602,-7.165040493011475,-0.08399579674005508,-3.0388479232788086,0.3149842321872711,-1.0021499395370483,-0.1409231275320053,-0.6471062898635864
100,148226,148227,-0.015549711883068085,0.037003323435783386,1.0289791822433472,24.08212661743164,7.422390460968018,-9.875454902648926,-0.085495725274086,-3.028348445892334,0.3134843111038208,-1.1852465867996216,0.15022028982639313,-0.7199222445487976
101,148236,148237,-0.015294411219656467,-0.029518337920308113,1.0513700246810913,16.90557289123535,0.15746226906776428,-12.131071090698242,-0.07799609750509262,-3.029848337173462,0.3239837884902954,-1.2052836418151855,0.3217237889766693,-0.8279277086257935
102,148246,148247,-0.028882071375846863,-0.02597903646528721,1.0482933521270752,12.244568824768066,-9.327016830444336,-12.249021530151367,-0.07799609750509262,-3.026848554611206,0.3119843900203705,-1.0889030694961548,0.4804452359676361,-0.9556742310523987
103,148256,148257,-0.014700790867209435,-0.015332221984863281,1.0407525300979614,11.239017486572266,-18.15264129638672,-12.755181312561035,-0.08999549597501755,-3.032848358154297,0.30898454785346985,-0.8331800699234009,0.5232894420623779,-1.0831736326217651
104,148266,148267,-0.048302315175533295,0.08471445739269257,1.0687320232391357,12.741582870483398,-25.275392532348633,-12.629873275756836,-0.07799609750509262,-3.026848554611206,0.31798410415649414,-0.6710519194602966,0.5852136015892029,-1.2089494466781616
105,148276,148277,-0.042783815413713455,0.016331402584910393,1.0514428615570068,13.390839576721191,-27.30500602722168,-13.67099666595459,-0.0764961764216423,-3.025348663330078,0.3134843111038208,-0.43288081884384155,0.7320823073387146,-1.3455013036727905
106,148286,148287,-0.02892894484102726,-0.028600910678505898,1.022128939628601,14.94980525970459,-25.187891006469727,-13.682732582092285,-0.07349632680416107,-3.028348445892334,0.30748462677001953,-0.13664714992046356,0.9033461213111877,-1.4887070655822754
107,148296,148297,-0.036672141402959824,0.006963734515011311,1.0392029285430908,13.83221435546875,-18.48295021057129,-14.034732818603516,-0.07949602603912354,-3.0223488807678223,0.32848358154296875,0.14772313833236694,1.2053711414337158,-1.643227219581604
108,148306,148307,-0.04844116419553757,0.008819925598800182,1.0437545776367188,15.114514350891113,-12.938193321228027,-13.930182456970215,-0.07949602603912354,-3.031348466873169,0.33448326587677,0.252878874540329,1.356511116027832,-1.792801022529602
109,148316,148317,-0.11112336069345474,-0.012439911253750324,0.9822596311569214,19.173587799072266,-8.176637649536133,-12.827099800109863,-0.08399579674005508,-3.0178489685058594,0.3119843900203705,0.28299635648727417,1.4868770837783813,-1.9346389770507812
110,148326,148327,-0.09629379212856293,-0.04458046332001686,0.9725940823554993,19.949100494384766,-4.327983856201172,-11.044970512390137,-0.09299534559249878,-3.0148491859436035,0.32998350262641907,0.18615053594112396,1.6560990810394287,-2.0712227821350098
111,148336,148337,-0.03152179345488548,-0.22226305305957794,1.0636024475097656,14.843035697937012,-3.586916446685791,-9.308152198791504,-0.07499624788761139,-3.0178489685058594,0.30898454785346985,0.21635010838508606,1.9215244054794312,-2.190800905227661
112,148346,148347,-0.16295619308948517,-0.14284053444862366,0.9564352035522461,9.999435424804688,0.4162291884422302,-6.167992115020752,-0.09599519520998001,-3.032848358154297,0.31798410415649414,0.3350890576839447,1.8875656127929688,-2.2298808097839355
113,148356,148357,-0.10118468850851059,-0.04673537611961365,0.9467731714248657,5.390747547149658,4.8263373374938965,-6.506728649139404,-0.07499624788761139,-3.026848554611206,0.3239837884902954,0.23516134917736053,2.0631344318389893,-2.324392795562744
114,148366,148367,-0.00797413382679224,0.023615190759301186,0.9766734838485718,-0.26653921604156494,7.407167911529541,-5.987895488739014,-0.085495725274086,-3.0163490772247314,0.3134843111038208,0.16024771332740784,2.1403276920318604,-2.3971006870269775
115,148376,148377,-0.0655377060174942,-0.0574885793030262,0.9342372417449951,-5.4817986488342285,7.298529624938965,-5.7735090255737305,-0.08999549597501755,-3.026848554611206,0.30898454785346985,0.13881246745586395,2.124424934387207,-2.44327449798584
116,148386,148387,-0.0783749595284462,-0.05791671574115753,0.9438772797584534,-10.562140464782715,5.751151084899902,-5.638542175292969,-0.0764961764216423,-3.031348466873169,0.3164841830730438,0.0643397644162178,2.0204927921295166,-2.497361421585083
117,148396,148397,-0.007572474889457226,0.01978754624724388,0.9966201782226562,-9.017751693725586,1.008708119392395,-5.627537250518799,-0.08249587565660477,-3.025348663330078,0.31948402523994446,0.04550553113222122,1.9002842903137207,-2.545196771621704
118,148406,148407,-0.05368727073073387,0.001264565042220056,0.9784584641456604,-4.875042915344238,-3.0947253704071045,-4.416601657867432,-0.09299534559249878,-3.029848337173462,0.3059847056865692,0.023538045585155487,1.8276541233062744,-2.607785224914551
119,148416,148417,-0.02503345161676407,0.011549620889127254,0.9579035043716431,3.3607399463653564,-7.089583873748779,-2.869842052459717,-0.08099594712257385,-3.029848337173462,0.3029848337173462,0.13788393139839172,1.9297332763671875,-2.6514406204223633
120,148426,148427,-0.0507703460752964,-0.0018978986190631986,0.9753991365432739,9.373872756958008,-7.703139781951904,-2.322972536087036,-0.08099594712257385,-3.032848358154297,0.2969851493835449,0.27666762471199036,2.1336593627929688,-2.6909594535827637
121,148436,148437,0.01729690283536911,0.14474868774414062,0.9201182126998901,12.287763595581055,-5.079347133636475,-0.4573395550251007,-0.09149542450904846,-3.031348466873169,0.3044847846031189,0.38938120007514954,2.1760218143463135,-2.6861155033111572
122,148446,148447,-0.06421371549367905,-0.12578384578227997,0.8927280902862549,12.735062599182129,-4.5147223472595215,3.18355393409729,-0.08399579674005508,-3.032848358154297,0.3119843900203705,0.4843740463256836,2.389727830886841,-2.688654899597168
123,148456,148457,-0.03563042730093002,-0.23494282364845276,0.92209792137146,7.446000576019287,0.4401683807373047,8.049882888793945,-0.07949602603912354,-3.052347421646118,0.31048446893692017,0.44812750816345215,2.5462467670440674,-2.6704061031341553
124,148466,148467,-0.14908534288406372,-0.21631263196468353,0.9051498174667358,-1.192346215248108,1.7797682285308838,11.850384712219238,-0.0764961764216423,-3.0433478355407715,0.30748462677001953,0.44699299335479736,2.5796103477478027,-2.5724802017211914
125,148476,148477,-0.1441480666399002,-0.07744112610816956,0.896762490272522,-18.875293731689453,9.968698501586914,14.152198791503906,-0.08249587565660477,-3.0403478145599365,0.31048446893692017,0.3476516604423523,2.371934413909912,-2.4313602447509766
126,148486,148487,-0.05343775823712349,0.023234156891703606,0.924897313117981,-34.49443435668945,11.746964454650879,17.49057388305664,-0.07799609750509262,-3.029848337173462,0.3149842321872711,0.32921263575553894,2.1233348846435547,-2.239668607711792
127,148496,148497,-0.1254929006099701,0.08697560429573059,1.0685192346572876,-49.73113250732422,15.340837478637695,16.104528427124023,-0.07049647718667984,-3.034348249435425,0.3044847846031189,0.11354337632656097,1.612895131111145,-2.071333169937134
128,148506,148507,-0.05307001993060112,0.025722887367010117,1.0419788360595703,-52.4104118347168,15.412501335144043,15.118608474731445,-0.0659966990351677,-3.0418479442596436,0.3119843900203705,0.08687617629766464,1.2537872791290283,-1.8975841999053955
129,148516,148517,0.012531207874417305,0.15507666766643524,1.0299391746520996,-45.65904235839844,16.165910720825195,13.829936027526855,-0.08099594712257385,-3.0358481407165527,0.3119843900203705,-0.09898751229047775,0.5851597189903259,-1.7198805809020996
130,148526,148527,-0.03279413282871246,0.025542251765727997,1.017181158065796,-35.96451950073242,14.954377174377441,10.861329078674316,-0.07799609750509262,-3.026848554611206,0.30898454785346985,-0.19975142180919647,0.4236429035663605,-1.6287312507629395
131,148536,148537,-0.023632077500224113,0.03111962601542473,1.0571626424789429,-26.46170425415039,11.0841646194458,8.552555084228516,-0.07949602603912354,-3.0223488807678223,0.31948402523994446,-0.4016018211841583,0.18556568026542664,-1.5653578042984009
132,148546,148547,-0.013814172707498074,0.048420850187540054,1.0583949089050293,-20.527250289916992,4.527206897735596,6.729992866516113,-0.06449677050113678,-3.0403478145599365,0.3164841830730438,-0.5097670555114746,-0.01143159531056881,-1.5008078813552856
133,148556,148557,-0.12425527721643448,0.14742106199264526,1.0537879467010498,-15.98491382598877,-6.666559219360352,5.084324359893799,-0.07049647718667984,-3.0223488807678223,0.31048446893692017,-0.4585065245628357,-0.26398977637290955,-1.4120367765426636
134,148566,148567,-0.1096862182021141,0.027933113276958466,1.0124480724334717,-13.115409851074219,-14.353882789611816,2.105034351348877,-0.07049647718667984,-3.034348249435425,0.3134843111038208,-0.2708975672721863,-0.31876417994499207,-1.3637946844100952
135,148576,148577,-0.06315073370933533,-0.017279284074902534,1.054755449295044,-9.70583438873291,-14.881805419921875,-1.5704345703125,-0.08249587565660477,-3.028348445892334,0.3164841830730438,-0.02620147541165352,-0.3328832685947418,-1.353702425956726
136,148586,148587,0.04488063231110573,0.021743513643741608,0.9747928977012634,-6.110403060913086,-8.030915260314941,-4.407642841339111,-0.07349632680416107,-3.031348466873169,0.3164841830730438,0.0114127891138196,-0.4332021176815033,-1.3907867670059204
137,148596,148597,-0.03787308931350708,0.04619108885526657,0.9845601916313171,-6.395519256591797,1.0094947814941406,-7.457319736480713,-0.08099594712257385,-3.032848358154297,0.3119843900203705,0.05774487555027008,-0.5821069478988647,-1.4317681789398193
138,148606,148607,-0.19646142423152924,-0.014622907154262066,0.9791734218597412,-3.914595127105713,6.929869174957275,-9.458133697509766,-0.08699564635753632,-3.005849599838257,0.3239837884902954,-0.07617201656103134,-0.6318557262420654,-1.526409387588501
139,148616,148617,-0.19571846723556519,-0.12987637519836426,0.9953363537788391,0.6401679515838623,15.427700996398926,-11.340723037719727,-0.07349632680416107,-3.0163490772247314,0.3254837095737457,-0.19367215037345886,-0.5586792230606079,-1.648908019065857
140,148626,148627,-0.021210825070738792,-0.0134035749360919,1.0852261781692505,7.545738697052002,23.454132080078125,-11.106378555297852,-0.085495725274086,-3.0073494911193848,0.3224838674068451,-0.514473021030426,-0.5339983105659485,-1.7753533124923706
141,148636,148637,-0.02776297554373741,-0.008670497685670853,1.032172679901123,12.833377838134766,25.114065170288086,-11.617897987365723,-0.06749662756919861,-3.0193488597869873,0.31948402523994446,-0.6789758801460266,-0.40618881583213806,-1.8904122114181519
142,148646,148647,0.015157798305153847,0.045088257640600204,1.0440665483474731,15.240047454833984,23.63239097595215,-12.05178165435791,-0.09299534559249878,-3.0178489685058594,0.32998350262641907,-0.8573634624481201,-0.2935478687286377,-2.0015628337860107
143,148656,148657,-0.04202008619904518,-0.005313909146934748,1.0413591861724854,12.342782974243164,17.927114486694336,-12.862981796264648,-0.08399579674005508,-3.0148491859436035,0.31798410415649414,-1.1073037385940552,-0.11734439432621002,-2.130277156829834
144,148666,148667,0.09941327571868896,-0.06832461059093475,1.0780961513519287,1.8338286876678467,9.44748306274414,-11.907702445983887,-0.09299534559249878,-3.008849620819092,0.32698363065719604,-1.2366546392440796,-0.20451612770557404,-2.2419824600219727
145,148676,148677,0.1194572001695633,-0.06895042210817337,1.0075374841690063,-12.04333782196045,-1.9561680555343628,-10.814265251159668,-0.09899504482746124,-3.02384877204895,0.3209839463233948,-1.265264868736267,-0.2684922516345978,-2.353965997695923
146,148686,148687,0.04067351669073105,0.026775266975164413,0.9407827854156494,-21.449716567993164,-14.259811401367188,-10.876620292663574,-0.08399579674005508,-3.008849620819092,0.32698363065719604,-1.0998538732528687,-0.5162873268127441,-2.458831787109375
147,148696,148697,-0.02239965833723545,0.009000037796795368,0.9796332716941833,-26.0382080078125,-22.425031661987305,-10.474013328552246,-0.09149542450904846,-3.025348663330078,0.31948402523994446,-0.8465151190757751,-0.7267055511474609,-2.566943407058716
148,148706,148707,-0.06579918414354324,-0.0598377101123333,0.9818795919418335,-21.700490951538086,-27.81975746154785,-9.922892570495605,-0.09299534559249878,-3.008849620819092,0.31798410415649414,-0.49774879217147827,-0.9999683499336243,-2.6719441413879395
149,148716,148717,-0.05108347907662392,0.07679981738328934,0.9331415295600891,-12.025137901306152,-29.69952392578125,-7.653860569000244,-0.08849557489156723,-3.0073494911193848,0.3314834237098694,-0.4465135335922241,-1.2763066291809082,-2.7484841346740723
150,148726,148727,-0.1359059065580368,0.0970144048333168,1.0091947317123413,-8.37624740600586,-27.48985481262207,-4.479876518249512,-0.09599519520998001,-3.0208489894866943,0.31798410415649414,-0.027087939903140068,-1.2338221073150635,-2.8205676078796387
151,148736,148737,-0.1124659925699234,-0.016619320958852768,1.0819082260131836,-2.9565248489379883,-12.835256576538086,-2.4237990379333496,-0.08099594712257385,-3.005849599838257,0.32698363065719604,0.13965247571468353,-1.2003488540649414,-2.853377342224121
152,148746,148747,0.0007537250639870763,0.19436390697956085,1.0381377935409546,7.434995174407959,3.9240329265594482,-1.0923798084259033,-0.08099594712257385,-3.005849599838257,0.32698363065719604,0.12177416682243347,-1.1772351264953613,-2.86472225189209
153,148756,148757,0.030523033812642097,0.49258002638816833,0.9415566325187683,12.606575965881348,9.705137252807617,-2.979891061782837,-0.08099594712257385,-3.005849599838257,0.32698363065719604,0.039858464151620865,-1.03304922580719,-2.8845815658569336
154,148766,148767,-0.059804994612932205,0.07297172397375107,0.9321061968803406,19.98627471923828,18.516584396362305,-3.705205202102661,-0.08099594712257385,-3.005849599838257,0.32698363065719604,-0.11914510279893875,-0.8605549931526184,-2.9160683155059814
155,148776,148777,-0.06311941891908646,-0.0028726428281515837,0.9713022708892822,23.781156539916992,21.108755111694336,-4.779487609863281,-0.08849557489156723,-2.998350143432617,0.32848358154296875,-0.4176063537597656,-0.66302490234375,-2.9442155361175537
156,148786,148787,-0.0658702552318573,0.029915327206254005,0.9841481447219849,19.167251586914062,19.055511474609375,-3.1545372009277344,-0.09299534559249878,-3.0118494033813477,0.3239837884902954,-0.5695598721504211,-0.5507838129997253,-2.987950086593628
157,148796,148797,-0.09839865565299988,0.02188018523156643,1.0594409704208374,5.715446472167969,15.174112319946289,-0.643571674823761,-0.0944952741265297,-3.0133492946624756,0.3224838674068451,-0.7489387392997742,-0.45691603422164917,-3.0114331245422363
158,148806,148807,-0.0625324621796608,0.09740817546844482,1.061033844947815,-4.629809379577637,3.1287121772766113,3.5372350215911865,-0.10049497336149216,-3.0103495121002197,0.33448326587677,-0.8495289087295532,-0.4884113371372223,-3.000584125518799
159,148816,148817,0.01328672468662262,0.17587876319885254,1.0071895122528076,-11.29506778717041,-11.624344825744629,6.20203971862793,-0.09149542450904846,-3.0073494911193848,0.3434828221797943,-0.6517989039421082,-0.6349627375602722,-2.9734256267547607
160,148826,148827,-0.043513406068086624,0.01347464881837368,0.9362257122993469,-20.04160499572754,-23.712215423583984,7.047755718231201,-0.09599519520998001,-3.0148491859436035,0.33598318696022034,-0.32859084010124207,-0.9059095978736877,-2.9237468242645264
161,148836,148837,-0.03515259549021721,-0.024203317239880562,0.9380500316619873,-24.20887565612793,-30.167827606201172,7.666950225830078,-0.09899504482746124,-3.0148491859436035,0.32998350262641907,-0.08230385184288025,-1.1293003559112549,-2.8427786827087402
162,148846,148847,-0.05550247058272362,0.09863132983446121,0.9997931122779846,-22.355300903320312,-31.05881690979004,9.28631591796875,-0.08699564635753632,-3.005849599838257,0.32998350262641907,0.21727707982063293,-1.2925803661346436,-2.754018783569336
163,148856,148857,-0.07912033796310425,0.06314237415790558,0.9796233177185059,-14.100682258605957,-28.5994873046875,9.949726104736328,-0.09599519520998001,-3.0118494033813477,0.32998350262641907,0.29916998744010925,-1.3627033233642578,-2.623342752456665
164,148866,148867,-0.29943591356277466,-0.015987958759069443,0.9986557960510254,-6.069864273071289,-17.715200424194336,11.046399116516113,-0.085495725274086,-3.0133492946624756,0.33748310804367065,0.4748735725879669,-1.4426542520523071,-2.502697706222534
165,148876,148877,-0.1123722642660141,-0.03552515432238579,1.0007376670837402,0.6190544366836548,1.4088445901870728,10.153261184692383,-0.07799609750509262,-3.002849817276001,0.3209839463233948,0.5258496403694153,-1.412097454071045,-2.3892807960510254
166,148886,148887,-0.005109534598886967,-0.01058270689100027,0.9981145262718201,8.944091796875,13.783258438110352,8.106497764587402,-0.085495725274086,-2.998350143432617,0.3314834237098694,0.4068146049976349,-1.3302788734436035,-2.2891178131103516
167,148896,148897,-0.06142565608024597,-0.031710729002952576,0.9436018466949463,16.30425262451172,18.609989166259766,4.635468482971191,-0.07949602603912354,-2.998350143432617,0.32848358154296875,0.3791540563106537,-1.2616662979125977,-2.243788719177246
168,148906,148907,-0.0491584911942482,-0.09538675099611282,0.9636058211326599,21.110584259033203,18.660856246948242,2.620912790298462,-0.08699564635753632,-3.005849599838257,0.3329833447933197,0.09627567231655121,-0.9490084052085876,-2.2018377780914307
169,148916,148917,-0.08691777288913727,-0.035662125796079636,1.0186206102371216,23.15531349182129,14.32679557800293,-0.4222045838832855,-0.08399579674005508,-3.008849620819092,0.3239837884902954,-0.009730316698551178,-0.8720067143440247,-2.1860172748565674
170,148926,148927,-0.09192774444818497,-0.12026975303888321,1.0258127450942993,18.543087005615234,8.043210983276367,-2.860691547393799,-0.0944952741265297,-3.0133492946624756,0.31948402523994446,-0.16658428311347961,-0.607336163520813,-2.196342945098877
171,148936,148937,-0.0960412248969078,-0.08875101059675217,0.9615293145179749,11.756892204284668,-4.311722755432129,-2.9310450553894043,-0.09299534559249878,-3.0148491859436035,0.31798410415649414,-0.14483632147312164,-0.5144070982933044,-2.2286930084228516
172,148946,148947,0.07987014204263687,-0.047398049384355545,0.9796827435493469,5.292840957641602,-6.011466979980469,-2.2197723388671875,-0.09149542450904846,-3.0103495121002197,0.3224838674068451,-0.030671019107103348,-0.5202727913856506,-2.255197286605835
173,148956,148957,0.008867103606462479,0.007679192814975977,0.9928317666053772,-2.2297439575195312,-13.492117881774902,-2.852072238922119,-0.0944952741265297,-3.0073494911193848,0.33448326587677,0.10181768238544464,-0.5006861090660095,-2.2841992378234863
174,148966,148967,-0.007189571857452393,-0.0025617864448577166,1.0131386518478394,-4.278608322143555,-10.370976448059082,-3.857595920562744,-0.07499624788761139,-3.002849817276001,0.32698363065719604,0.24989573657512665,-0.6117668151855469,-2.3068511486053467
175,148976,148977,0.05714940279722214,-0.05035928636789322,0.9664844274520874,-4.645651340484619,-2.5326876640319824,-3.775480031967163,-0.09899504482746124,-3.0118494033813477,0.32698363065719604,0.17715920507907867,-0.6637954115867615,-2.3152730464935303
176,148986,148987,-0.044725287705659866,-0.07196187973022461,0.967138409614563,-0.42660626769065857,2.6475579738616943,-4.166140556335449,-0.08249587565660477,-3.0103495121002197,0.3314834237098694,0.21368934214115143,-0.7487953305244446,-2.3511197566986084
177,148996,148997,-0.0747900903224945,0.09720037132501602,1.0291022062301636,6.453830242156982,4.653149127960205,-3.7764806747436523,-0.07949602603912354,-3.0133492946624756,0.3314834237098694,0.18097248673439026,-0.7338982224464417,-2.391288995742798
178,149006,149007,-0.03732573986053467,0.009386745281517506,0.9864789843559265,16.538557052612305,7.4426960945129395,-1.9197680950164795,-0.0764961764216423,-3.0103495121002197,0.33448326587677,0.236294224858284,-0.7014544010162354,-2.4333620071411133
179,149016,149017,-0.06485732644796371,0.01005406491458416,0.9773622751235962,21.1307315826416,5.884909152984619,0.34784069657325745,-0.08849557489156723,-3.0103495121002197,0.3164841830730438,0.1492130160331726,-0.3459669351577759,-2.461947441101074
180,149026,149027,-0.06484033167362213,-0.032377295196056366,0.9758672118186951,20.56098175048828,6.043755054473877,1.3845465183258057,-0.09599519520998001,-3.026848554611206,0.33598318696022034,0.13717912137508392,-0.2604825496673584,-2.4483888149261475
181,149036,149037,0.017031753435730934,0.008522382006049156,1.0014206171035767,15.292118072509766,5.319336414337158,2.2643604278564453,-0.08849557489156723,-3.0133492946624756,0.3224838674068451,0.05784758925437927,-0.08087527006864548,-2.428462505340576
182,149046,149047,-0.03932252526283264,0.01880299299955368,1.0056216716766357,7.164103031158447,2.2853145599365234,2.9791176319122314,-0.09599519520998001,-3.0178489685058594,0.3149842321872711,0.019043520092964172,-0.014399710111320019,-2.396510362625122
183,149056,149057,-0.04385644942522049,0.1510898917913437,1.038183569908142,1.8553727865219116,-3.2242655754089355,3.1912050247192383,-0.09149542450904846,-3.0133492946624756,0.3164841830730438,0.056032389402389526,0.0938948318362236,-2.3767526149749756
184,149066,149067,-0.03181692585349083,0.13901881873607635,0.9831698536872864,-0.5126538276672363,-5.029232978820801,3.416170835494995,-0.0944952741265297,-3.028348445892334,0.32848358154296875,0.14376887679100037,0.0032384151127189398,-2.3370704650878906
185,149076,149077,-0.08009698987007141,0.07574974000453949,0.9553767442703247,-1.036863088607788,-8.469121932983398,0.9996655583381653,-0.09149542450904846,-3.0223488807678223,0.3314834237098694,0.19131089746952057,0.03446340188384056,-2.315340042114258
186,149086,149087,-0.18063658475875854,0.062148839235305786,1.0673046112060547,-1.2616904973983765,-1.7193351984024048,-0.322508841753006,-0.08099594712257385,-3.02384877204895,0.33598318696022034,0.25011369585990906,0.05380997061729431,-2.3142826557159424
187,149096,149097,-0.11675886064767838,0.030449731275439262,1.0477831363677979,3.134375810623169,9.754537582397461,-1.9130610227584839,-0.08399579674005508,-3.0178489685058594,0.32998350262641907,0.1587035357952118,0.04772849380970001,-2.3178839683532715
188,149106,149107,-0.02757745422422886,0.03746229037642479,1.0195025205612183,7.064930438995361,12.453142166137695,-3.744536876678467,-0.08849557489156723,-3.0193488597869873,0.3254837095737457,0.04295989125967026,0.10351143032312393,-2.345731735229492
189,149116,149117,0.023728368803858757,0.13651874661445618,0.9695844650268555,15.42145824432373,10.038898468017578,-4.903380393981934,-0.10049497336149216,-3.025348663330078,0.3224838674068451,-0.12922272086143494,0.12072373181581497,-2.377500057220459
190,149126,149127,0.0391167551279068,0.14415623247623444,0.9713116884231567,22.817346572875977,-1.1828502416610718,-7.370630741119385,-0.085495725274086,-3.028348445892334,0.32848358154296875,-0.10130399465560913,0.3461827039718628,-2.4418914318084717
191,149136,149137,-0.06909601390361786,0.08032291382551193,1.007234811782837,29.303951263427734,-9.739840507507324,-8.259305953979492,-0.08399579674005508,-3.0208489894866943,0.32998350262641907,0.004048729315400124,0.6178867816925049,-2.518845319747925
192,149146,149147,-0.007236557547003031,0.0407075434923172,1.012300729751587,30.651552200317383,-13.626310348510742,-8.4818115234375,-0.09899504482746124,-3.02384877204895,0.30898454785346985,0.1246371641755104,1.0094377994537354,-2.609912872314453
193,149156,149157,-0.054390065371990204,0.001179679180495441,0.966330349445343,28.338125228881836,-15.11953067779541,-8.703302383422852,-0.08999549597501755,-3.026848554611206,0.3029848337173462,0.14659084379673004,1.167386770248413,-2.6850974559783936
194,149166,149167,-0.013441162183880806,-0.21775193512439728,0.9491307735443115,22.51651382446289,-10.154352188110352,-8.626089096069336,-0.08249587565660477,-3.034348249435425,0.3044847846031189,0.3545849621295929,1.478407382965088,-2.7744810581207275
195,149176,149177,0.13143756985664368,-0.0768338218331337,0.9473949670791626,12.87675666809082,-4.318660259246826,-5.285129547119141,-0.09299534559249878,-3.0358481407165527,0.31798410415649414,0.4056093096733093,1.6480263471603394,-2.851550340652466
196,149186,149187,0.03364155441522598,-0.07477876543998718,0.9538317918777466,-1.1527341604232788,1.5603437423706055,-5.463231086730957,-0.0944952741265297,-3.0373480319976807,0.3224838674068451,0.4433805048465729,1.6845340728759766,-2.902297019958496
197,149196,149197,0.09464416652917862,0.004550309851765633,0.9046111106872559,-9.666417121887207,10.926136016845703,-2.762157917022705,-0.08849557489156723,-3.025348663330078,0.3254837095737457,0.28114640712738037,1.619629144668579,-2.960742712020874
198,149206,149207,-0.06747162342071533,0.19687488675117493,0.9605182409286499,-15.450175285339355,10.637015342712402,-3.354445457458496,-0.09299534559249878,-3.0358481407165527,0.3209839463233948,0.1331792026758194,1.4447441101074219,-2.9903903007507324
199,149216,149217,-0.030649695545434952,0.08518818765878677,1.0637999773025513,-17.965181350708008,13.06898021697998,-2.1384799480438232,-0.08699564635753632,-3.0178489685058594,0.3119843900203705,0.025603605434298515,1.2807050943374634,-3.0157649517059326
200,149226,149227,-0.04747443646192551,-0.04598600044846535,1.0032501220703125,-13.088263511657715,5.185041427612305,-2.310072422027588,-0.07499624788761139,-3.0208489894866943,0.32698363065719604,-0.10958615690469742,1.144345998764038,-3.043381929397583
201,149236,149237,-0.2091711014509201,-0.1301036924123764,1.004721999168396,-6.114623546600342,1.4772447347640991,-4.858191013336182,-0.0764961764216423,-3.0163490772247314,0.3134843111038208,-0.14567382633686066,1.1037529706954956,-3.082353115081787
202,149246,149247,-0.045096904039382935,-0.10937786847352982,1.0292904376983643,-0.6994195580482483,0.20191441476345062,-3.9519073963165283,-0.08249587565660477,-3.0193488597869873,0.3134843111038208,-0.1313282698392868,1.1501754522323608,-3.137211322784424
203,149256,149257,0.085933618247509,-0.0040330360643565655,0.973757266998291,4.874204158782959,-8.665602684020996,-5.387777805328369,-0.08399579674005508,-3.0178489685058594,0.31798410415649414,-0.08348866552114487,1.2085602283477783,-3.1891098022460938
204,149266,149267,-0.007090577390044928,-0.009013733826577663,0.9745228290557861,5.072355270385742,-14.362939834594727,-7.909818172454834,-0.0764961764216423,-3.0223488807678223,0.3224838674068451,0.005867971107363701,1.3096394538879395,-3.2643980979919434
205,149276,149277,-0.031129969283938408,-0.14017930626869202,0.9769245386123657,4.2900919914245605,-13.071632385253906,-6.931436061859131,-0.08999549597501755,-3.026848554611206,0.30898454785346985,0.18246836960315704,1.3995252847671509,-3.338484764099121
206,149286,149287,-0.10966306179761887,-0.21440334618091583,0.9824864268302917,2.567934274673462,-10.6649808883667,-7.794172286987305,-0.08399579674005508,-3.02384877204895,0.3149842321872711,0.3814864456653595,1.3854857683181763,-3.3942716121673584
207,149296,149297,-0.027052627876400948,-0.33189311623573303,1.044994831085205,-1.9653089046478271,2.6673953533172607,-9.674073219299316,-0.08249587565660477,-3.031348466873169,0.31048446893692017,0.3523024916648865,1.385318398475647,-3.494175910949707
208,149306,149307,0.0703422874212265,-0.12945708632469177,0.9559142589569092,-1.4046486616134644,7.838479995727539,-8.263545036315918,-0.085495725274086,-3.0223488807678223,0.3224838674068451,0.14013051986694336,1.3565837144851685,-3.623500108718872
209,149316,149317,0.07704727351665497,-0.00024035868409555405,1.0346095561981201,0.7608680129051208,10.942754745483398,-9.35405158996582,-0.07949602603912354,-3.0193488597869873,0.3134843111038208,0.0946749895811081,1.3517694473266602,-3.7003324031829834
210,149326,149327,0.10404614359140396,0.019043492153286934,0.9648258686065674,2.2420859336853027,7.919095993041992,-6.976840019226074,-0.07799609750509262,-3.026848554611206,0.3149842321872711,-0.08660049736499786,1.3803586959838867,-3.7983620166778564
211,149336,149337,0.013202358968555927,-0.02949700318276882,0.9623442888259888,2.7604501247406006,3.1820178031921387,-9.094482421875,-0.07949602603912354,-3.025348663330078,0.3164841830730438,-0.20552876591682434,1.4925861358642578,-3.8873918056488037
212,149346,149347,-0.03485003113746643,-0.15913690626621246,1.0197480916976929,2.4491355419158936,4.669913291931152,-7.960479736328125,-0.09299534559249878,-3.0418479442596436,0.30898454785346985,-0.16637982428073883,1.448730230331421,-3.9466359615325928
213,149356,149357,-0.07903119921684265,-0.08402567356824875,0.9830949902534485,-3.7682418823242188,1.8860087394714355,-4.875546455383301,-0.08999549597501755,-3.029848337173462,0.3209839463233948,-0.2543001174926758,1.486095666885376,-4.026821613311768
214,149366,149367,-0.02770356647670269,0.012012285180389881,1.0953624248504639,-18.846296310424805,1.828554391860962,-4.719661235809326,-0.08699564635753632,-3.0208489894866943,0.3119843900203705,-0.26000547409057617,1.4721070528030396,-4.071448802947998
215,149376,149377,-0.01267528161406517,0.07478364557027817,0.9996455311775208,-28.017093658447266,0.5522679686546326,-1.50672447681427,-0.08999549597501755,-3.0358481407165527,0.30898454785346985,-0.3178103268146515,1.0569431781768799,-4.110782623291016
216,149386,149387,-0.09022748470306396,0.16590823233127594,0.9753847718238831,-39.455596923828125,-8.154694557189941,-0.9517422318458557,-0.07349632680416107,-3.031348466873169,0.3134843111038208,-0.27491241693496704,0.5493941903114319,-4.1171417236328125
217,149396,149397,-0.021626440808176994,0.1462685763835907,1.0833587646484375,-45.24555969238281,-11.282208442687988,1.7933180332183838,-0.07949602603912354,-3.028348445892334,0.31948402523994446,-0.21031120419502258,0.485343873500824,-4.136005401611328
218,149406,149407,-0.04288455843925476,-0.06923490762710571,0.997078001499176,-36.35049819946289,-16.564903259277344,3.2411975860595703,-0.06899654865264893,-3.029848337173462,0.29998499155044556,-0.07138591259717941,-0.04383420944213867,-4.110177516937256
219,149416,149417,-0.07855509966611862,-0.23342199623584747,1.0124326944351196,-22.469215393066406,-19.485069274902344,4.1070733070373535,-0.07349632680416107,-3.031348466873169,0.3164841830730438,0.038435470312833786,-0.23921461403369904,-4.078423976898193
220,149426,149427,-0.05331549048423767,-0.21442638337612152,1.0000499486923218,-9.214741706848145,-16.088821411132812,5.807487487792969,-0.08399579674005508,-3.032848358154297,0.3209839463233948,0.2968049645423889,-0.3672480881214142,-4.018068790435791
221,149436,149437,0.03668426349759102,0.11216679960489273,0.9453842639923096,-3.345979928970337,-12.29470443725586,8.455397605895996,-0.07799609750509262,-3.0148491859436035,0.3119843900203705,0.35602131485939026,-0.34640052914619446,-3.9666364192962646
222,149446,149447,-0.03247645124793053,0.2587640583515167,0.9759389758110046,2.5664687156677246,-12.606481552124023,9.503900527954102,-0.08999549597501755,-3.0148491859436035,0.3239837884902954,0.5291191339492798,-0.3726254105567932,-3.8698625564575195
223,149456,149457,-0.2150932103395462,-0.035220298916101456,1.0082402229309082,1.9124174118041992,-3.3984313011169434,11.95169448852539,-0.08099594712257385,-3.0208489894866943,0.3149842321872711,0.6689437031745911,-0.29269975423812866,-3.7611680030822754
224,149466,149467,-0.2021040916442871,-0.11167314648628235,1.046512484550476,0.23884063959121704,7.087852478027344,14.4516019821167,-0.07949602603912354,-3.0163490772247314,0.3164841830730438,0.4941581189632416,-0.242134228348732,-3.651174783706665
225,149476,149477,-0.063236303627491,-0.07038982957601547,1.0062366724014282,-6.418203830718994,16.585365295410156,11.236145973205566,-0.085495725274086,-3.0163490772247314,0.3224838674068451,0.3273056745529175,-0.3456941545009613,-3.5202982425689697
226,149486,149487,0.02834993787109852,0.013074406422674656,1.0799132585525513,-13.856658935546875,21.368270874023438,9.809272766113281,-0.07499624788761139,-3.0148491859436035,0.3149842321872711,0.2094491720199585,-0.5512233376502991,-3.402631998062134
227,149496,149497,0.07241135835647583,-0.055839426815509796,1.0430710315704346,-16.348556518554688,16.16957664489746,8.523824691772461,-0.07199639827013016,-3.0208489894866943,0.3209839463233948,-0.023792514577507973,-0.6799024343490601,-3.317305326461792
228,149506,149507,0.1262321174144745,0.0886167585849762,1.027710199356079,-10.72934627532959,0.5432012677192688,4.8043999671936035,-0.07799609750509262,-3.0118494033813477,0.3209839463233948,-0.0659262165427208,-0.7704971432685852,-3.2522735595703125
229,149516,149517,-0.03149527311325073,0.1195724830031395,0.9615936279296875,-1.9571443796157837,-17.59901237487793,1.3247724771499634,-0.08249587565660477,-3.0073494911193848,0.31948402523994446,0.13790971040725708,-0.820452094078064,-3.2138898372650146
230,149526,149527,-0.12197649478912354,0.08190690726041794,1.033776044845581,5.184135437011719,-24.575809478759766,-0.19642776250839233,-0.0764961764216423,-3.0223488807678223,0.3164841830730438,0.293433278799057,-0.8201205134391785,-3.199047565460205
231,149536,149537,-0.024877699092030525,0.024648355320096016,1.0711456537246704,12.696894645690918,-19.756322860717773,0.4341210722923279,-0.08099594712257385,-3.0208489894866943,0.32698363065719604,0.5926886200904846,-0.621905505657196,-3.20745849609375
232,149546,149547,-0.1273658126592636,0.026582462713122368,1.0380233526229858,18.513883590698242,-11.857316970825195,0.7483908534049988,-0.0764961764216423,-3.0133492946624756,0.3164841830730438,0.7765876054763794,-0.4731847643852234,-3.2075774669647217
233,149556,149557,-0.21729621291160583,0.06842709332704544,1.0975189208984375,15.546998977661133,0.9020974636077881,-1.2649633884429932,-0.06149692460894585,-3.0223488807678223,0.32848358154296875,0.6440507173538208,-0.3096962869167328,-3.1938259601593018
234,149566,149567,-0.09972477704286575,0.008950586430728436,1.1032787561416626,10.34749698638916,11.100592613220215,-0.4060019254684448,-0.08249587565660477,-3.0193488597869873,0.3164841830730438,0.43322864174842834,-0.2105332612991333,-3.1917924880981445
235,149576,149577,-0.04052215442061424,0.13215893507003784,1.0824437141418457,5.439182281494141,13.571004867553711,-0.520492672920227,-0.07499624788761139,-3.029848337173462,0.3149842321872711,0.34575125575065613,-0.18574705719947815,-3.200225830078125
236,149586,149587,-0.13884972035884857,0.11040831357240677,1.1179673671722412,-7.547985553741455,12.9397611618042,-1.9441252946853638,-0.07949602603912354,-3.0073494911193848,0.3164841830730438,0.3117024302482605,-0.24468649923801422,-3.212407112121582
237,149596,149597,-0.07135792076587677,0.07676248997449875,1.0958818197250366,-12.815858840942383,12.207952499389648,-0.4052673876285553,-0.07349632680416107,-3.0133492946624756,0.3134843111038208,0.21600225567817688,-0.36151978373527527,-3.231837272644043
238,149606,149607,0.024604910984635353,0.13792309165000916,1.0445283651351929,-16.00572967529297,0.7116460800170898,0.5031291842460632,-0.08849557489156723,-3.0103495121002197,0.3314834237098694,0.15972739458084106,-0.611602783203125,-3.2341926097869873
239,149616,149617,-0.07196849584579468,0.005813248455524445,1.0250345468521118,-18.30074691772461,-6.600460529327393,-0.5545082688331604,-0.08999549597501755,-3.0148491859436035,0.34498274326324463,0.24133874475955963,-0.6846238374710083,-3.2476134300231934
240,149626,149627,-0.07517747581005096,-0.0458509735763073,0.9874239563941956,-17.534278869628906,-18.58945655822754,0.5614683032035828,-0.08399579674005508,-3.002849817276001,0.32998350262641907,0.4283764362335205,-0.9821955561637878,-3.242488145828247
241,149636,149637,-0.028902150690555573,0.010929412208497524,1.0039398670196533,-15.691380500793457,-22.267078399658203,-0.00906116608530283,-0.085495725274086,-3.0133492946624756,0.3254837095737457,0.7197988629341125,-1.1104686260223389,-3.245844841003418
242,149646,149647,-0.07461702823638916,-0.08334725350141525,0.9881339073181152,-9.908039093017578,-23.626604080200195,-0.9171704053878784,-0.07049647718667984,-3.0133492946624756,0.31948402523994446,1.0279440879821777,-1.2465842962265015,-3.2519121170043945
243,149656,149657,-0.10360205173492432,-0.04149794578552246,0.9956976175308228,0.3067995607852936,-14.467782020568848,1.5148625373840332,-0.085495725274086,-3.004349708557129,0.3254837095737457,0.9777773022651672,-1.1782561540603638,-3.2295029163360596
244,149666,149667,0.04406135529279709,0.07273174077272415,0.9286887645721436,11.546167373657227,-5.1123151779174805,4.767947673797607,-0.07349632680416107,-3.0163490772247314,0.3314834237098694,1.0253887176513672,-1.0829700231552124,-3.197186231613159
245,149676,149677,0.038173846900463104,0.12788990139961243,0.9070046544075012,20.359867095947266,-3.9379324913024902,8.14653491973877,-0.07949602603912354,-3.0073494911193848,0.3224838674068451,1.1419180631637573,-0.9711819887161255,-3.133190631866455
246,149686,149687,-0.03442787006497383,0.05230139195919037,1.0035796165466309,22.251720428466797,1.1210860013961792,11.735745429992676,-0.085495725274086,-3.004349708557129,0.3254837095737457,1.101990818977356,-0.7639262080192566,-3.018688440322876
247,149696,149697,-0.012201574631035328,-0.09469255805015564,0.9818646311759949,17.096097946166992,10.647701263427734,14.94068431854248,-0.08999549597501755,-3.008849620819092,0.3239837884902954,1.0076442956924438,-0.4568699896335602,-2.893113613128662
248,149706,149707,-0.06025374308228493,-0.26506176590919495,0.8343625664710999,8.919654846191406,13.537886619567871,15.020026206970215,-0.0764961764216423,-3.0103495121002197,0.3164841830730438,0.8436859250068665,-0.42364001274108887,-2.720881462097168
249,149716,149717,-0.0021437560208141804,-0.06538575887680054,0.9418781399726868,-2.6831610202789307,8.80890941619873,14.112817764282227,-0.0764961764216423,-3.0133492946624756,0.33748310804367065,0.7127965688705444,-0.4142847955226898,-2.5647003650665283
250,149726,149727,0.06081520393490791,-0.02693985030055046,0.9864451885223389,-7.637111186981201,13.525805473327637,13.7720308303833,-0.06899654865264893,-3.0178489685058594,0.31798410415649414,0.6481241583824158,-0.5101937651634216,-2.4197702407836914
251,149736,149737,0.17585912346839905,-0.004702084697782993,0.9593105912208557,-8.736494064331055,7.501387596130371,14.543213844299316,-0.08099594712257385,-3.0178489685058594,0.3239837884902954,0.5498464107513428,-0.646626889705658,-2.2695915699005127
252,149746,149747,0.09193162620067596,0.02515975944697857,0.8610062003135681,-9.964287757873535,-1.0952085256576538,13.399970054626465,-0.058497074991464615,-3.0103495121002197,0.33448326587677,0.5528805255889893,-0.7268141508102417,-2.1320621967315674
253,149756,149757,-0.048325713723897934,0.04082070663571358,0.867024302482605,-9.210153579711914,-9.506026268005371,12.158628463745117,-0.06749662756919861,-3.0163490772247314,0.3224838674068451,0.6716927289962769,-0.8749953508377075,-2.003812313079834
254,149766,149767,-0.0831553041934967,-0.0671735480427742,0.9494962692260742,-5.47965669631958,-17.942277908325195,11.567962646484375,-0.06899654865264893,-3.0148491859436035,0.32998350262641907,0.9026918411254883,-0.9763845801353455,-1.895537257194519
255,149776,149777,-0.04272683337330818,-0.22475384175777435,0.9651681780815125,3.308732271194458,-21.175594329833984,10.479551315307617,-0.0764961764216423,-3.0103495121002197,0.3164841830730438,1.2145094871520996,-0.9668018817901611,-1.805701732635498
256,149786,149787,-0.15906238555908203,-0.16267073154449463,0.9613274335861206,12.750468254089355,-16.144086837768555,9.159464836120605,-0.05999699980020523,-3.0208489894866943,0.32998350262641907,1.281003713607788,-0.8116583228111267,-1.7033045291900635
257,149796,149797,-0.13487662374973297,0.00676187127828598,0.996319591999054,25.56768226623535,-1.9340646266937256,5.112745761871338,-0.058497074991464615,-3.031348466873169,0.3254837095737457,1.3278741836547852,-0.6245378851890564,-1.6264652013778687
258,149806,149807,-0.1454094797372818,0.115895576775074,1.101954698562622,31.513389587402344,15.604975700378418,0.3495328724384308,-0.05249737575650215,-3.034348249435425,0.3134843111038208,1.19564688205719,-0.2117491215467453,-1.6005924940109253
259,149816,149817,-0.06570009142160416,0.2238038182258606,1.1057080030441284,31.009218215942383,32.32504653930664,0.058344513177871704,-0.056997150182724,-3.026848554611206,0.31798410415649414,0.9463334083557129,-0.12148724496364594,-1.5510791540145874
260,149826,149827,0.009814693592488766,0.3393399119377136,1.1176799535751343,27.33187484741211,35.6727180480957,-1.5190541744232178,-0.058497074991464615,-3.028348445892334,0.3224838674068451,0.4117235243320465,0.22164013981819153,-1.5342705249786377
261,149836,149837,0.04532335326075554,0.1838800013065338,1.1445815563201904,18.087841033935547,35.5511589050293,-4.595846652984619,-0.0659966990351677,-3.0388479232788086,0.29998499155044556,0.22338493168354034,0.450399786233902,-1.57272207736969
262,149846,149847,0.08580318093299866,0.06617332994937897,1.1370872259140015,2.4492385387420654,28.205690383911133,-3.9294350147247314,-0.07499624788761139,-3.02384877204895,0.3209839463233948,0.030710697174072266,0.46925708651542664,-1.6120518445968628
263,149856,149857,0.057450130581855774,0.04967658966779709,1.0604889392852783,-9.154850959777832,11.713178634643555,-3.148101568222046,-0.08099594712257385,-3.026848554611206,0.31798410415649414,-0.25269293785095215,0.41688966751098633,-1.6386518478393555
264,149866,149867,-0.04633046314120293,0.016408070921897888,1.0289645195007324,-15.930989265441895,-7.614837169647217,-3.3103461265563965,-0.0764961764216423,-3.0193488597869873,0.3254837095737457,-0.2461729645729065,0.21744705736637115,-1.6676025390625
265,149876,149877,-0.07423707842826843,-0.06262589246034622,1.060267686843872,-14.358710289001465,-16.848358154296875,-0.030282901600003242,-0.08249587565660477,-3.0193488597869873,0.3314834237098694,-0.033501021564006805,0.13207554817199707,-1.7028394937515259
266,149886,149887,-0.04270178824663162,-0.04762747511267662,0.9999717473983765,-6.1190185546875,-23.892105102539062,3.3463597297668457,-0.08099594712257385,-3.032848358154297,0.3119843900203705,0.31260672211647034,0.06351979821920395,-1.7052850723266602
267,149896,149897,-0.0474688746035099,0.09933830052614212,0.9737130403518677,0.8494484424591064,-27.15292739868164,3.3749241828918457,-0.08399579674005508,-3.005849599838257,0.31798410415649414,0.5117748379707336,0.04658886790275574,-1.6710305213928223
268,149906,149907,-0.06534715741872787,0.16936680674552917,1.0293350219726562,3.9036152362823486,-17.11323356628418,2.623903274536133,-0.08099594712257385,-3.002849817276001,0.3329833447933197,0.64694744348526,0.037142179906368256,-1.6294301748275757
269,149916,149917,-0.022460009902715683,0.1630607545375824,0.9983715415000916,4.15733003616333,-10.208564758300781,3.887882947921753,-0.09299534559249878,-3.0118494033813477,0.3329833447933197,0.7955942749977112,0.12937785685062408,-1.5991162061691284
270,149926,149927,-0.0315723679959774,0.088778056204319,0.9176233410835266,-1.1197268962860107,-5.614377021789551,2.070971965789795,-0.08699564635753632,-3.002849817276001,0.32698363065719604,0.9070560336112976,0.16378545761108398,-1.5646576881408691
271,149936,149937,-0.1047658920288086,-0.15396662056446075,0.9456583261489868,-9.40346622467041,2.8437764644622803,1.3621314764022827,-0.08849557489156723,-3.001349925994873,0.3314834237098694,0.8217131495475769,0.07573430985212326,-1.5361286401748657
272,149946,149947,-0.04869648814201355,-0.26243293285369873,0.9307642579078674,-13.908750534057617,17.22661590576172,1.5122644901275635,-0.0764961764216423,-3.004349708557129,0.3254837095737457,0.8449894189834595,-0.04418604075908661,-1.526227593421936
273,149956,149957,0.017204584553837776,-0.11353495717048645,0.9545616507530212,-10.857344627380371,24.303211212158203,-1.7515041828155518,-0.09149542450904846,-3.0163490772247314,0.33448326587677,0.5719611048698425,-0.1676962822675705,-1.5300822257995605
274,149966,149967,0.06982916593551636,0.05848033353686333,0.9949988126754761,-7.175658702850342,22.39704132080078,-5.385550498962402,-0.08249587565660477,-2.9953501224517822,0.3314834237098694,0.27741938829421997,-0.22721685469150543,-1.563645601272583
275,149976,149977,0.06008249521255493,0.012365426868200302,0.991550624370575,-3.885373592376709,16.37734031677246,-7.149357318878174,-0.08999549597501755,-3.0148491859436035,0.3209839463233948,0.2639332115650177,-0.2909209132194519,-1.623128890991211
276,149986,149987,0.07214633375406265,-0.10452888906002045,0.9862960577011108,3.967817783355713,7.400100231170654,-9.500472068786621,-0.07199639827013016,-3.002849817276001,0.31798410415649414,0.07311641424894333,-0.324313759803772,-1.7018648386001587
277,149996,149997,0.01792207546532154,-0.2456343024969101,0.9078577160835266,13.859444618225098,0.46921324729919434,-11.282469749450684,-0.08099594712257385,-3.0148491859436035,0.3329833447933197,0.007181147113442421,-0.15214216709136963,-1.816146969795227
278,150006,150007,-0.07158970832824707,-0.15373100340366364,0.8972724080085754,20.61624526977539,-5.8644514083862305,-12.575836181640625,-0.08099594712257385,-3.0148491859436035,0.3329833447933197,0.19036073982715607,-0.004357222001999617,-1.9421606063842773
279,150016,150017,-0.03566548973321915,-0.037914104759693146,0.9692431092262268,23.027774810791016,-5.5909624099731445,-11.392683029174805,-0.08099594712257385,-3.0148491859436035,0.3329833447933197,0.13388478755950928,0.22252969443798065,-2.059675693511963
280,150026,150027,0.0517459399998188,0.05071413889527321,0.9921822547912598,19.83513069152832,-8.651875495910645,-8.900437355041504,-0.08099594712257385,-3.0148491859436035,0.3329833447933197,0.3266368508338928,0.4416218101978302,-2.163591146469116
281,150036,150037,-0.0064869108609855175,-0.026970667764544487,0.9562366008758545,14.00977611541748,-11.001513481140137,-8.69688606262207,-0.07499624788761139,-3.005849599838257,0.32698363065719604,0.4621802568435669,0.5755847692489624,-2.24967622756958
282,150046,150047,-0.03456762433052063,-0.28666797280311584,0.9476326704025269,5.654369354248047,1.652073621749878,-6.696134567260742,-0.07349632680416107,-3.0163490772247314,0.3224838674068451,0.498816579580307,0.7310367822647095,-2.3310387134552
283,150056,150057,0.06959349662065506,-0.13087038695812225,0.9511145353317261,-1.1471271514892578,13.614269256591797,-3.4791340827941895,-0.0659966990351677,-3.026848554611206,0.3119843900203705,0.3613288402557373,0.6161772012710571,-2.3867971897125244
284,150066,150067,0.10763663798570633,0.023709597066044807,0.974706768989563,-10.72021770477295,19.49358558654785,-4.618912220001221,-0.08249587565660477,-3.0163490772247314,0.33448326587677,0.09440213441848755,0.5889256000518799,-2.428358554840088
285,150076,150077,0.056802332401275635,-0.042617447674274445,0.9596259593963623,-16.017946243286133,17.523962020874023,-0.3733324706554413,-0.08249587565660477,-3.025348663330078,0.31948402523994446,0.15068267285823822,0.4492652714252472,-2.44714617729187
286,150086,150087,-0.04047433286905289,-0.11298985779285431,0.9958644509315491,-13.952987670898438,13.255245208740234,0.27423095703125,-0.085495725274086,-3.025348663330078,0.3224838674068451,-0.12051273137331009,0.29055923223495483,-2.4604337215423584
287,150096,150097,-0.047857340425252914,-0.1250847727060318,1.0633586645126343,-13.123769760131836,16.405200958251953,-0.3770875632762909,-0.08699564635753632,-3.0178489685058594,0.3209839463233948,-0.16377882659435272,0.22097599506378174,-2.4591145515441895
288,150106,150107,0.07852936536073685,-0.014442764222621918,1.0638253688812256,-10.49744987487793,19.154071807861328,0.8783418536186218,-0.08249587565660477,-3.025348663330078,0.3314834237098694,-0.3825971782207489,0.03953622281551361,-2.4620325565338135
289,150116,150117,0.0722668319940567,0.06555017828941345,0.9181126356124878,-4.507167816162109,12.304767608642578,0.20548908412456512,-0.08249587565660477,-3.0163490772247314,0.3164841830730438,-0.4911445677280426,0.012081600725650787,-2.4514577388763428
290,150126,150127,-0.06715807318687439,0.09304121881723404,0.9634547233581543,6.202392578125,7.020920753479004,-1.1738700866699219,-0.07349632680416107,-3.031348466873169,0.31048446893692017,-0.6075101494789124,0.11912214756011963,-2.447902202606201
291,150136,150137,-0.15348777174949646,-0.041610024869441986,1.026167631149292,14.35072135925293,8.995436668395996,-2.101149797439575,-0.07349632680416107,-3.0193488597869873,0.31948402523994446,-0.692131519317627,0.29270854592323303,-2.4555840492248535
292,150146,150147,-0.14327168464660645,-0.09527797996997833,0.9777203798294067,19.61977767944336,9.293444633483887,-2.957169532775879,-0.07349632680416107,-3.0133492946624756,0.3134843111038208,-0.7818123698234558,0.35576072335243225,-2.4855093955993652
293,150156,150157,-0.07385631650686264,0.05058326572179794,0.9458345174789429,22.097368240356445,5.134395599365234,-7.025176525115967,-0.08399579674005508,-3.029848337173462,0.30898454785346985,-0.9754345417022705,0.6206308603286743,-2.5276384353637695
294,150166,150167,-0.06587418168783188,0.19803379476070404,1.0266166925430298,16.331714630126953,3.4472100734710693,-9.913414001464844,-0.0944952741265297,-3.0133492946624756,0.31048446893692017,-0.8975269198417664,0.7771983742713928,-2.6029810905456543
295,150176,150177,0.06981060653924942,0.2537396550178528,1.061906337738037,12.641664505004883,-2.3906450271606445,-9.294321060180664,-0.08999549597501755,-3.026848554611206,0.30898454785346985,-0.7002851963043213,0.9294023513793945,-2.6906309127807617
296,150186,150187,0.022730030119419098,0.1649303436279297,1.0167131423950195,8.059667587280273,-13.603114128112793,-11.940848350524902,-0.08099594712257385,-3.0208489894866943,0.31798410415649414,-0.5954452753067017,1.017289400100708,-2.7926456928253174
297,150196,150197,-0.051280613988637924,0.034905873239040375,0.9985790848731995,2.141526460647583,-17.753341674804688,-11.757451057434082,-0.09599519520998001,-3.02384877204895,0.3209839463233948,-0.3770781457424164,1.0117945671081543,-2.915126085281372
298,150206,150207,-0.13345712423324585,-0.10384608060121536,1.0140856504440308,-1.8129702806472778,-24.901113510131836,-11.68320083618164,-0.07799609750509262,-3.032848358154297,0.32698363065719604,-0.28406476974487305,1.073878288269043,-3.039738893508911
299,150216,150217,-0.13476920127868652,-0.18456526100635529,1.0177478790283203,-7.579311847686768,-16.478113174438477,-10.859697341918945,-0.08399579674005508,-3.026848554611206,0.3119843900203705,-0.0021684574894607067,0.977060854434967,-3.1629066467285156
300,150226,150227,-0.09376168996095657,-0.210478276014328,0.9498077034950256,-4.624154090881348,-8.45665454864502,-12.599043846130371,-0.07499624788761139,-3.0388479232788086,0.3119843900203705,0.07352310419082642,0.9371719360351562,-3.285076379776001
301,150236,150237,-0.02375916764140129,-0.1124243289232254,0.9886090159416199,0.02216944843530655,1.169466495513916,-13.454949378967285,-0.0764961764216423,-3.0223488807678223,0.3164841830730438,0.07837877422571182,0.8954483270645142,-3.4228458404541016
302,150246,150247,-0.013545696623623371,0.014644372276961803,1.0385162830352783,7.449596405029297,5.59364128112793,-13.420111656188965,-0.085495725274086,-3.034348249435425,0.3134843111038208,-0.02420148253440857,1.0276650190353394,-3.553398609161377
303,150256,150257,-0.021294672042131424,-0.006400897167623043,0.9672967195510864,12.505062103271484,3.8438620567321777,-12.615487098693848,-0.08249587565660477,-3.0373480319976807,0.30748462677001953,-0.13022467494010925,1.1766576766967773,-3.6851165294647217
304,150266,150267,0.009232749231159687,0.0235762819647789,1.0116512775421143,17.961355209350586,0.5368947982788086,-12.439477920532227,-0.08699564635753632,-3.029848337173462,0.3149842321872711,-0.18059924244880676,1.2762669324874878,-3.8226397037506104
305,150276,150277,-0.05725462734699249,-0.058563631027936935,0.9541301131248474,14.938464164733887,0.9058196544647217,-11.957987785339355,-0.08699564635753632,-3.029848337173462,0.3149842321872711,-0.21113388240337372,1.5214576721191406,-3.9433531761169434
306,150286,150287,-0.00800233706831932,-0.02352551370859146,0.9955905079841614,8.23047924041748,0.7944363355636597,-11.394421577453613,-0.09149542450904846,-3.0193488597869873,0.31948402523994446,-0.24760118126869202,1.6704823970794678,-4.0606584548950195
307,150296,150297,0.03377637267112732,0.023816393688321114,0.9591467380523682,1.2531814575195312,0.361215740442276,-8.462142944335938,-0.08399579674005508,-3.029848337173462,0.3239837884902954,-0.28179535269737244,1.7677088975906372,-4.164984226226807
308,150306,150307,0.012994492426514626,0.002995450748130679,0.9256885051727295,-13.041888236999512,-0.7498613595962524,-7.151714324951172,-0.08399579674005508,-3.0358481407165527,0.31798410415649414,-0.2983616590499878,1.6175979375839233,-4.2654266357421875
309,150316,150317,0.02724318578839302,0.004410482011735439,0.9663358330726624,-19.569061279296875,-3.3457393646240234,-4.992554187774658,-0.09749512374401093,-3.0223488807678223,0.3044847846031189,-0.27235135436058044,1.5175912380218506,-4.321982383728027
310,150326,150327,0.07523833215236664,-0.08885345607995987,0.8831335306167603,-23.825651168823242,-6.071511268615723,1.3507461547851562,-0.07499624788761139,-3.02384877204895,0.3059847056865692,-0.2040056437253952,1.1720764636993408,-4.358742713928223
311,150336,150337,-0.02366054058074951,-0.14109556376934052,1.0110974311828613,-32.82093811035156,-0.4212481677532196,2.7568674087524414,-0.09299534559249878,-3.0358481407165527,0.3239837884902954,-0.14641323685646057,0.9489808678627014,-4.338993072509766
312,150346,150347,0.06643146276473999,0.033104218542575836,1.07945716381073,-34.992584228515625,3.5263829231262207,6.984461307525635,-0.08099594712257385,-3.0148491859436035,0.30898454785346985,-0.1734386831521988,0.6362077593803406,-4.303223609924316
313,150356,150357,0.1480807512998581,0.10248388350009918,1.0657564401626587,-38.25583267211914,9.061028480529785,7.762744426727295,-0.08249587565660477,-3.028348445892334,0.3134843111038208,-0.28045499324798584,0.34634312987327576,-4.234328746795654
314,150366,150367,0.01592845283448696,0.186286062002182,1.0662566423416138,-27.752592086791992,1.5455613136291504,10.528356552124023,-0.07199639827013016,-3.0358481407165527,0.3239837884902954,-0.37137237191200256,-0.09149140119552612,-4.153580665588379
315,150376,150377,-0.06627914309501648,0.07435934245586395,1.0976680517196655,-15.742814064025879,5.306856155395508,13.479702949523926,-0.085495725274086,-3.028348445892334,0.30748462677001953,-0.43579116463661194,-0.05535532534122467,-4.015979290008545
316,150386,150387,-0.05239503085613251,0.049314919859170914,1.0820614099502563,-0.627487063407898,8.24153995513916,18.789154052734375,-0.09299534559249878,-3.0148491859436035,0.3149842321872711,-0.5422577857971191,-0.08878882229328156,-3.8660035133361816
317,150396,150397,-0.020285608246922493,0.03188500180840492,1.114506721496582,2.2588753700256348,10.946465492248535,19.10708236694336,-0.085495725274086,-3.0223488807678223,0.3224838674068451,-0.6218659281730652,0.010379193350672722,-3.664564847946167
318,150406,150407,0.058365337550640106,0.1601181924343109,1.1156387329101562,1.2277270555496216,9.132742881774902,22.405670166015625,-0.08999549597501755,-3.0208489894866943,0.3239837884902954,-0.7008125185966492,-0.027178972959518433,-3.470703125
319,150416,150417,-0.3369804322719574,0.08823838084936142,1.052778720855713,-6.869743347167969,0.5831403136253357,21.586030960083008,-0.07049647718667984,-3.025348663330078,0.31048446893692017,-0.7593865990638733,-0.0735856145620346,-3.2530245780944824
320,150426,150427,-0.12433470040559769,0.05064201354980469,1.0515661239624023,-19.31899642944336,0.11457491666078568,22.928485870361328,-0.08849557489156723,-3.0193488597869873,0.3134843111038208,-0.7481280565261841,-0.16067618131637573,-3.030989646911621
321,150436,150437,0.08626282215118408,0.06514141708612442,0.9960118532180786,-23.255212783813477,-7.469645977020264,26.248462677001953,-0.08999549597501755,-3.0148491859436035,0.3029848337173462,-0.7359006404876709,-0.4411182105541229,-2.801988363265991
322,150446,150447,0.06121514365077019,0.09955573081970215,1.025128722190857,-24.822586059570312,-10.787123680114746,26.983684539794922,-0.08099594712257385,-3.0118494033813477,0.3149842321872711,-0.7815743088722229,-0.546164333820343,-2.523923635482788
323,150456,150457,0.05473269894719124,-0.02491218037903309,0.9926849007606506,-23.54430389404297,-11.552096366882324,29.815576553344727,-0.09149542450904846,-3.0133492946624756,0.31948402523994446,-0.6455476880073547,-0.8627181649208069,-2.2493221759796143
324,150466,150467,0.013128743506968021,-0.022107668220996857,0.932331383228302,-17.124469757080078,-13.280625343322754,30.721834182739258,-0.085495725274086,-3.0073494911193848,0.32848358154296875,-0.43236956000328064,-1.0340713262557983,-1.938180923461914
325,150476,150477,-0.1022329032421112,0.032851073890924454,0.9086926579475403,-9.761489868164062,-12.392699241638184,29.122514724731445,-0.08699564635753632,-3.002849817276001,0.31798410415649414,-0.1635594516992569,-1.1644474267959595,-1.6313749551773071
326,150486,150487,-0.10910046100616455,0.019254207611083984,0.9787405133247375,-0.41364872455596924,-7.529311180114746,28.709972381591797,-0.0764961764216423,-3.0163490772247314,0.3254837095737457,-0.09821657836437225,-1.162890911102295,-1.329006552696228
327,150496,150497,-0.06517335027456284,0.16912595927715302,1.0622282028198242,6.310146331787109,-2.4004197120666504,30.687501907348633,-0.0764961764216423,-3.004349708557129,0.31948402523994446,-0.030148450285196304,-1.170329213142395,-1.0377694368362427
328,150506,150507,-0.03125002607703209,0.27110910415649414,1.0377018451690674,9.177084922790527,3.2128660678863525,31.544567108154297,-0.08249587565660477,-3.0103495121002197,0.29848507046699524,-0.18543873727321625,-1.104461431503296,-0.7135563492774963
329,150516,150517,0.009704682044684887,0.17766927182674408,1.0508049726486206,4.86835241317749,2.9990577697753906,31.41560173034668,-0.06749662756919861,-3.0163490772247314,0.32848358154296875,-0.21556179225444794,-1.052856206893921,-0.3971779942512512
330,150526,150527,0.010515188798308372,-0.03635317087173462,1.0672980546951294,-4.972779750823975,1.4676432609558105,32.10928726196289,-0.07199639827013016,-3.026848554611206,0.31798410415649414,-0.2334611564874649,-1.0589390993118286,-0.08116836100816727
331,150536,150537,0.03561220318078995,-0.2511298358440399,1.037768006324768,-14.02928352355957,-4.435318470001221,33.82553482055664,-0.07799609750509262,-3.008849620819092,0.3239837884902954,-0.34055936336517334,-1.1443017721176147,0.25587424635887146
332,150546,150547,-0.14174996316432953,-0.0850335955619812,0.9266159534454346,-18.832355499267578,-9.092220306396484,33.19459915161133,-0.0659966990351677,-3.0118494033813477,0.32698363065719604,-0.21955201029777527,-1.4725122451782227,0.5656065940856934
333,150556,150557,-0.17546042799949646,0.1284988671541214,0.9023742079734802,-19.67819595336914,-10.251043319702148,31.856889724731445,-0.06749662756919861,-3.004349708557129,0.31948402523994446,-0.059015654027462006,-1.403564691543579,0.9136142730712891
334,150566,150567,-0.11434793472290039,0.1767624169588089,0.9819737076759338,-18.392192840576172,-12.321284294128418,32.945011138916016,-0.0659966990351677,-3.008849620819092,0.3329833447933197,0.1329144984483719,-1.6959664821624756,1.2179404497146606
335,150576,150577,-0.028489289805293083,0.04826926067471504,0.9819571375846863,-14.379907608032227,-12.392216682434082,33.95631790161133,-0.07049647718667984,-2.998350143432617,0.33448326587677,0.3192799389362335,-1.8704354763031006,1.5398950576782227
336,150586,150587,0.06712743639945984,0.08557427674531937,1.0522496700286865,-8.395342826843262,-7.2734694480896,34.430335998535156,-0.0659966990351677,-3.0148491859436035,0.32698363065719604,0.3760942220687866,-2.10241436958313,1.8870309591293335
337,150596,150597,-0.04356810078024864,0.15902793407440186,1.1352213621139526,-4.870727062225342,2.0737853050231934,34.24083709716797,-0.058497074991464615,-3.001349925994873,0.3164841830730438,0.3191322684288025,-2.094940662384033,2.260403871536255
338,150606,150607,-0.028812507167458534,-0.0016282389406114817,1.0970685482025146,3.5029959678649902,8.769702911376953,35.47328186035156,-0.05999699980020523,-2.999850034713745,0.32698363065719604,0.23510566353797913,-2.1170895099639893,2.6185388565063477
339,150616,150617,0.007910733111202717,-0.0749133825302124,1.0303772687911987,8.752470970153809,9.278685569763184,35.437652587890625,-0.06299684941768646,-3.0178489685058594,0.32698363065719604,0.08301883190870285,-2.112724542617798,2.9777331352233887
340,150626,150627,-0.07897453755140305,-0.20946361124515533,0.7544536590576172,5.372949123382568,9.867298126220703,32.67890548706055,-0.07349632680416107,-2.9953501224517822,0.33448326587677,-0.0009591198759153485,-2.079663038253784,3.315568685531616
341,150636,150637,-0.0918658971786499,-0.059188444167375565,0.8169876933097839,-1.294352650642395,11.545872688293457,32.568668365478516,-0.06899654865264893,-3.002849817276001,0.3239837884902954,-0.1724950522184372,-2.0756659507751465,3.6582589149475098
342,150646,150647,-0.01449319813400507,0.05789836496114731,0.9187188148498535,-4.427455902099609,-0.5451876521110535,31.990657806396484,-0.06749662756919861,-3.004349708557129,0.33448326587677,-0.23582957684993744,-2.148085832595825,3.9725382328033447
343,150656,150657,-0.038269199430942535,0.033873818814754486,1.0012282133102417,-17.22124481201172,-8.557711601257324,28.89565658569336,-0.07349632680416107,-2.998350143432617,0.32848358154296875,-0.13971148431301117,-2.2100448608398438,4.2646636962890625
344,150666,150667,-0.05041661858558655,-0.11139367520809174,1.0370951890945435,-21.17225456237793,-10.3073148727417,28.341121673583984,-0.05249737575650215,-3.0103495121002197,0.3164841830730438,-0.02842366136610508,-2.5244266986846924,4.547225475311279
345,150676,150677,-0.04682859033346176,-0.1974198818206787,0.9200772047042847,-14.978885650634766,-17.709028244018555,25.73668098449707,-0.05549722537398338,-3.0103495121002197,0.3254837095737457,0.14693871140480042,-2.735114097595215,4.810171604156494
346,150686,150687,-0.0857899934053421,-0.08914648741483688,0.8887156248092651,-9.092508316040039,-15.469151496887207,23.45014762878418,-0.047997597604990005,-2.999850034713745,0.31798410415649414,0.330691397190094,-2.906883955001831,5.058594703674316
347,150696,150697,-0.09955096989870071,0.033684566617012024,0.9422252774238586,5.092745304107666,1.3179830312728882,22.767169952392578,-0.03599819913506508,-3.005849599838257,0.33598318696022034,0.42862236499786377,-2.899278402328491,5.304558277130127
348,150706,150707,-0.2999994158744812,0.016485458239912987,0.971940815448761,21.423551559448242,3.239652395248413,20.708938598632812,-0.06149692460894585,-3.0193488597869873,0.3254837095737457,0.3622528314590454,-2.710094690322876,5.535810947418213
349,150716,150717,-0.1886446624994278,0.010665078647434711,0.9682630896568298,25.153905868530273,12.267865180969238,18.86391258239746,-0.05249737575650215,-3.0103495121002197,0.32848358154296875,0.20520178973674774,-2.4418303966522217,5.765227317810059
350,150726,150727,-0.10890290886163712,0.0938960611820221,1.018019437789917,27.14107322692871,11.505611419677734,12.876236915588379,-0.05399730056524277,-3.02384877204895,0.3149842321872711,0.028527934104204178,-2.3474292755126953,5.953850746154785
351,150736,150737,-0.07735949009656906,0.08905134350061417,1.0549944639205933,23.448392868041992,16.38719940185547,10.267045021057129,-0.04949752241373062,-3.0163490772247314,0.31048446893692017,-0.1981184333562851,-2.1187968254089355,6.105870246887207
352,150746,150747,-0.11073504388332367,0.03919787332415581,1.025315284729004,20.743064880371094,11.173568725585938,5.819296360015869,-0.04649767279624939,-3.034348249435425,0.31048446893692017,-0.31254875659942627,-2.279421806335449,6.171603679656982
353,150756,150757,-0.13188163936138153,0.03491276130080223,1.0116525888442993,15.773731231689453,10.232549667358398,2.430224657058716,-0.04199789837002754,-3.029848337173462,0.30898454785346985,-0.3115353286266327,-2.1902692317962646,6.164069175720215
354,150766,150767,0.0426366813480854,-0.013454452157020569,1.0907424688339233,7.508504867553711,3.179640769958496,0.2896142601966858,-0.044997747987508774,-3.0178489685058594,0.31798410415649414,-0.34136098623275757,-1.9406813383102417,6.149524211883545
355,150776,150777,-0.04022230580449104,-0.03643138334155083,1.0905104875564575,3.9888510704040527,-3.604793071746826,-3.1459760665893555,-0.044997747987508774,-3.0118494033813477,0.30898454785346985,-0.3233846127986908,-1.921175479888916,6.12701940536499
356,150786,150787,-0.22764255106449127,0.040856845676898956,1.0357952117919922,3.8241262435913086,-4.519049167633057,-6.900091171264648,-0.050997450947761536,-3.0178489685058594,0.3209839463233948,-0.23216086626052856,-1.9074740409851074,6.067292213439941
357,150796,150797,-0.2422621101140976,0.10967181622982025,1.0137205123901367,12.141938209533691,0.25419434905052185,-9.364476203918457,-0.04649767279624939,-3.004349708557129,0.3164841830730438,-0.19142131507396698,-1.7475591897964478,5.988333702087402
358,150806,150807,0.0005917323869653046,0.13235029578208923,1.0487252473831177,23.710376739501953,5.0775370597839355,-13.452594757080078,-0.05549722537398338,-3.0103495121002197,0.31048446893692017,-0.24496984481811523,-1.4814637899398804,5.891292095184326
359,150816,150817,0.023522119969129562,0.030343543738126755,1.029914379119873,34.49546813964844,10.354960441589355,-14.631903648376465,-0.056997150182724,-3.0118494033813477,0.3119843900203705,-0.3093803822994232,-1.3182777166366577,5.732105255126953
360,150826,150827,0.05965248495340347,-0.05056290328502655,1.0339479446411133,37.53937530517578,16.488300323486328,-14.754487037658691,-0.05399730056524277,-3.008849620819092,0.3149842321872711,-0.5428158044815063,-0.8435452580451965,5.622186183929443
361,150836,150837,-0.00784299150109291,-0.05483604595065117,1.0017300844192505,39.25215530395508,17.44388771057129,-14.520872116088867,-0.0659966990351677,-3.02384877204895,0.3209839463233948,-0.5395492911338806,-0.5434783697128296,5.407244682312012
362,150846,150847,-0.04789622128009796,-0.01797012984752655,0.9869009852409363,30.571247100830078,8.957643508911133,-15.111330032348633,-0.06149692460894585,-3.0133492946624756,0.3254837095737457,-0.7450301647186279,-0.1809179186820984,5.277182102203369
363,150856,150857,-0.03316880390048027,0.07761600613594055,1.0372166633605957,22.11419677734375,-1.0310946702957153,-17.328725814819336,-0.07799609750509262,-3.0148491859436035,0.32698363065719604,-0.7852753400802612,-0.0306463073939085,5.103347301483154
364,150866,150867,-0.043943893164396286,0.02038116753101349,1.0025310516357422,17.930307388305664,-4.9239726066589355,-17.76127815246582,-0.07349632680416107,-3.0193488597869873,0.3254837095737457,-0.7263763546943665,0.17397837340831757,4.914839267730713
365,150876,150877,-0.07687322050333023,-0.04978509992361069,0.9759083986282349,16.39561653137207,-5.268345832824707,-16.488540649414062,-0.05399730056524277,-3.0208489894866943,0.33598318696022034,-0.6393147706985474,0.40599873661994934,4.7386274337768555
366,150886,150887,-0.23580589890480042,0.14500170946121216,1.0357630252838135,16.89373207092285,-2.319411516189575,-15.927404403686523,-0.0659966990351677,-3.026848554611206,0.3119843900203705,-0.5835441946983337,0.4153600335121155,4.5574951171875
367,150896,150897,-0.5259934663772583,0.007195270154625177,0.9713266491889954,20.96405029296875,1.722083330154419,-15.131561279296875,-0.0659966990351677,-3.02384877204895,0.31798410415649414,-0.6555696129798889,0.7639994025230408,4.429146766662598
368,150906,150907,-0.14322598278522491,0.01822788082063198,0.9452491402626038,21.69670295715332,4.994312286376953,-14.083974838256836,-0.06749662756919861,-3.025348663330078,0.32848358154296875,-0.7150481939315796,0.8601642847061157,4.273250102996826
369,150916,150917,0.01731760986149311,0.012275470420718193,0.9453225135803223,16.838794708251953,5.759436130523682,-12.27371597290039,-0.07049647718667984,-3.0223488807678223,0.30748462677001953,-0.7400458455085754,1.2600092887878418,4.156851768493652
370,150926,150927,-0.03946809470653534,0.11256265640258789,1.0149966478347778,10.325446128845215,0.03895742818713188,-11.950603485107422,-0.06749662756919861,-3.0133492946624756,0.3404829800128937,-0.7759929299354553,1.2057908773422241,4.011740207672119
371,150936,150937,-0.04878569766879082,0.22670318186283112,1.064875841140747,6.407800197601318,-8.18533992767334,-10.394693374633789,-0.085495725274086,-3.0163490772247314,0.3254837095737457,-0.6879091262817383,1.2849534749984741,3.898132562637329
372,150946,150947,-0.07482846081256866,0.10511551052331924,0.9851192831993103,3.94571590423584,-19.097993850708008,-8.460870742797852,-0.07049647718667984,-3.025348663330078,0.33748310804367065,-0.4406832158565521,1.3123157024383545,3.8014965057373047
373,150956,150957,-0.046305373311042786,0.0004759846779052168,0.9128726124763489,-1.7791374921798706,-21.899871826171875,-8.655427932739258,-0.08399579674005508,-3.0118494033813477,0.3329833447933197,-0.24509692192077637,1.277004599571228,3.703582763671875
374,150966,150967,0.025317752733826637,0.09085594117641449,0.8910554051399231,-5.068678855895996,-22.188634872436523,-9.730830192565918,-0.07199639827013016,-3.008849620819092,0.3329833447933197,0.036129180341959,1.3007065057754517,3.61970853805542
375,150976,150977,-0.037478007376194,0.02280455082654953,0.8723546862602234,-5.362100124359131,-16.270736694335938,-10.93860912322998,-0.07199639827013016,-3.02384877204895,0.3329833447933197,0.1722625494003296,1.3008947372436523,3.5102005004882812
376,150986,150987,-0.07426926493644714,0.03547021746635437,0.9719195365905762,2.7938473224639893,-1.9946016073226929,-11.55730152130127,-0.0659966990351677,-3.0178489685058594,0.33898305892944336,0.2816796600818634,1.3076012134552002,3.396693706512451
377,150996,150997,-0.11667076498270035,0.010392152704298496,0.9765809774398804,12.362407684326172,4.767065525054932,-11.400432586669922,-0.07049647718667984,-3.004349708557129,0.3254837095737457,0.16370442509651184,1.3898675441741943,3.2682929039001465
378,151006,151007,-0.15489020943641663,8.377820449823048e-06,0.9999943375587463,16.977741241455078,13.290558815002441,-11.753137588500977,-0.08399579674005508,-3.008849620819092,0.32698363065719604,0.0074927289970219135,1.6585674285888672,3.1474149227142334
379,151016,151017,-0.02852163463830948,0.11586581915616989,1.0227599143981934,16.242366790771484,16.725858688354492,-12.495885848999023,-0.085495725274086,-3.0073494911193848,0.33748310804367065,-0.23846310377120972,1.7858754396438599,3.010481119155884
380,151026,151027,0.1252666860818863,0.11245883256196976,1.021955966949463,14.269859313964844,15.51517105102539,-13.533076286315918,-0.0944952741265297,-3.0163490772247314,0.3314834237098694,-0.4308469891548157,1.8826990127563477,2.8788273334503174
381,151036,151037,0.13955196738243103,-0.033778317272663116,0.9145511984825134,14.949280738830566,10.322772026062012,-14.60791015625,-0.07349632680416107,-3.0193488597869873,0.3314834237098694,-0.5009968280792236,1.9734967947006226,2.762054920196533
382,151046,151047,0.05665536969900131,-0.10059745609760284,0.8793299198150635,13.707465171813965,-0.05279917269945145,-16.779403686523438,-0.07199639827013016,-3.0148491859436035,0.3149842321872711,-0.5086972117424011,2.065175771713257,2.6277644634246826
383,151056,151057,-0.12524382770061493,-0.10702864825725555,0.8478078842163086,11.1624755859375,-7.627396583557129,-18.779220581054688,-0.07349632680416107,-3.0163490772247314,0.33748310804367065,-0.4331224858760834,2.263441324234009,2.4704325199127197
384,151066,151067,-0.2755608558654785,-0.016150711104273796,0.8969355225563049,9.309146881103516,-10.295689582824707,-19.761791229248047,-0.08399579674005508,-3.005849599838257,0.3239837884902954,-0.20623283088207245,2.4149606227874756,2.3202531337738037
385,151076,151077,-0.24504685401916504,0.04946180060505867,0.9711330533027649,3.8694069385528564,-5.789716720581055,-19.52240562438965,-0.08699564635753632,-3.026848554611206,0.33898305892944336,-0.15122851729393005,2.5741610527038574,2.1111366748809814
386,151086,151087,-0.04463464394211769,0.06860555708408356,1.0119825601577759,-1.1943633556365967,-2.541041135787964,-18.861188888549805,-0.08399579674005508,-3.02384877204895,0.3149842321872711,-0.10022231936454773,2.563523530960083,1.9153454303741455
387,151096,151097,0.11019603163003922,0.024920571595430374,0.9792643189430237,-4.706910610198975,-1.9003232717514038,-17.802860260009766,-0.07949602603912354,-3.0163490772247314,0.3254837095737457,-0.09695103764533997,2.5529801845550537,1.7299928665161133
388,151106,151107,0.07888222485780716,-0.06733349710702896,0.9163218140602112,-2.892507314682007,-0.9643118977546692,-16.46593475341797,-0.07349632680416107,-3.028348445892334,0.3254837095737457,-0.10875638574361801,2.4608373641967773,1.5504369735717773
389,151116,151117,-0.11341705918312073,-0.1772325336933136,0.831017255783081,-0.06555935740470886,2.1872777938842773,-15.847343444824219,-0.07799609750509262,-3.02384877204895,0.32698363065719604,-0.13747543096542358,2.3387346267700195,1.3725258111953735
390,151126,151127,-0.24707584083080292,-0.123924620449543,0.8563995361328125,3.15218448638916,4.824291706085205,-15.242478370666504,-0.08249587565660477,-3.0223488807678223,0.3314834237098694,-0.19623985886573792,2.4865498542785645,1.2118467092514038
391,151136,151137,-0.08551456779241562,0.012070496566593647,0.9595291018486023,5.130761623382568,7.4680891036987305,-12.228511810302734,-0.08399579674005508,-3.0208489894866943,0.3149842321872711,-0.3047557771205902,2.5230257511138916,1.0475248098373413
392,151146,151147,-0.05707195773720741,0.00863521546125412,0.9457889199256897,1.0922712087631226,5.184691905975342,-11.257843017578125,-0.08999549597501755,-3.029848337173462,0.3239837884902954,-0.34180113673210144,2.595043897628784,0.9496665596961975
393,151156,151157,-0.05752907693386078,0.027638845145702362,0.9295927882194519,-2.683060646057129,4.600517272949219,-10.724211692810059,-0.07799609750509262,-3.026848554611206,0.3059847056865692,-0.2109108865261078,2.5228805541992188,0.918910026550293
394,151166,151167,-0.06814885139465332,0.028453661128878593,0.9571033716201782,-11.423140525817871,0.725678026676178,-11.254722595214844,-0.06749662756919861,-3.025348663330078,0.3014849126338959,-0.26188924908638,2.427597761154175,0.798839807510376
395,151176,151177,-0.022645462304353714,-0.04593389481306076,0.9510288238525391,-16.925439834594727,1.0715545415878296,-12.695976257324219,-0.08099594712257385,-3.0208489894866943,0.3239837884902954,-0.2901639938354492,2.217099905014038,0.6671531796455383
396,151186,151187,0.12483149766921997,-0.04550895094871521,0.9592668414115906,-21.13352394104004,-0.43743255734443665,-13.941993713378906,-0.08849557489156723,-3.025348663330078,0.32848358154296875,-0.3236334025859833,2.0683670043945312,0.5323339104652405
397,151196,151197,0.09467228502035141,-0.0394042544066906,0.8790905475616455,-17.030595779418945,-2.1449756622314453,-15.659832954406738,-0.07049647718667984,-3.0103495121002197,0.3314834237098694,-0.3301762342453003,1.9221062660217285,0.39157047867774963
398,151206,151207,-0.026821820065379143,-0.01712450198829174,0.946576714515686,-7.808531284332275,-1.5020297765731812,-17.367307662963867,-0.07949602603912354,-3.0373480319976807,0.3164841830730438,-0.3143201768398285,1.820512294769287,0.22744354605674744
399,151216,151217,-0.04604393243789673,0.056981410831213,1.0009300708770752,2.0455219745635986,-0.6570878028869629,-17.32312774658203,-0.08099594712257385,-3.02384877204895,0.3149842321872711,-0.31232473254203796,1.8723042011260986,0.056445054709911346
400,151226,151227,-0.0008533963118679821,0.061176497489213943,0.9935133457183838,10.019454002380371,0.2515600025653839,-16.1037540435791,-0.07349632680416107,-3.0073494911193848,0.31048446893692017,-0.3292834758758545,1.9885215759277344,-0.11429443210363388
401,151236,151237,0.059988461434841156,0.05894489586353302,0.9778035879135132,15.839476585388184,2.5608654022216797,-14.669687271118164,-0.07499624788761139,-3.0208489894866943,0.3119843900203705,-0.44186440110206604,2.132572650909424,-0.31141379475593567
402,151246,151247,-0.04045575484633446,-0.012984179891645908,0.9606735110282898,14.199793815612793,7.581531524658203,-12.331252098083496,-0.07799609750509262,-3.032848358154297,0.30898454785346985,-0.531230092048645,2.3712544441223145,-0.46609246730804443
403,151256,151257,-0.034732386469841,-0.014831612817943096,0.991910457611084,9.831864356994629,13.208990097045898,-11.589622497558594,-0.09149542450904846,-3.031348466873169,0.31948402523994446,-0.7076699733734131,2.54213285446167,-0.615567147731781
404,151266,151267,-0.026730891317129135,0.05359140783548355,1.0234599113464355,2.9063258171081543,12.397747993469238,-11.984235763549805,-0.07949602603912354,-3.0373480319976807,0.3134843111038208,-0.8442747592926025,2.4647574424743652,-0.7370322942733765
405,151276,151277,-0.09198760986328125,0.17973171174526215,1.031797170639038,-6.743191719055176,6.361051559448242,-11.972916603088379,-0.07949602603912354,-3.0373480319976807,0.3134843111038208,-0.9053493142127991,2.471665620803833,-0.8316575288772583
406,151286,151287,-0.05092006176710129,0.086768239736557,1.0375324487686157,-15.781441688537598,-5.794830322265625,-9.612174987792969,-0.07949602603912354,-3.0373480319976807,0.3134843111038208,-0.8271493315696716,2.3890578746795654,-0.8860417008399963
407,151296,151297,-0.017803780734539032,0.03728519380092621,1.0102581977844238,-20.447250366210938,-15.954355239868164,-9.516786575317383,-0.07949602603912354,-3.0373480319976807,0.3134843111038208,-0.639033317565918,2.1297051906585693,-0.9469121098518372
408,151306,151307,-0.01746015064418316,0.1272132694721222,1.0451196432113647,-29.704696655273438,-20.90338134765625,-8.799493789672852,-0.07349632680416107,-3.0223488807678223,0.31048446893692017,-0.6817439794540405,2.1747636795043945,-1.1171280145645142
409,151316,151317,-0.06165672466158867,-0.010840578936040401,0.9900857210159302,-35.90797424316406,-18.287025451660156,-8.102134704589844,-0.08849557489156723,-3.028348445892334,0.31048446893692017,-0.354649156332016,1.644722580909729,-1.1778407096862793
410,151326,151327,-0.05680513009428978,-0.10880191624164581,0.8690022230148315,-37.91172409057617,-8.287542343139648,-9.060503005981445,-0.08099594712257385,-3.029848337173462,0.3119843900203705,-0.2863374650478363,1.0741872787475586,-1.3256226778030396
411,151336,151337,-0.6433048844337463,-0.18025889992713928,0.9465335607528687,-34.286827087402344,2.7907826900482178,-9.509610176086426,-0.07949602603912354,-3.0163490772247314,0.3164841830730438,-0.09806302934885025,1.033073902130127,-1.3303508758544922
412,151346,151347,-0.28735730051994324,-0.04981371760368347,0.9865763783454895,-25.550064086914062,9.589969635009766,-9.65377426147461,-0.07949602603912354,-3.0223488807678223,0.31048446893692017,-0.21971963346004486,0.8731319308280945,-1.434752106666565
413,151356,151357,0.05574909225106239,0.08550649136304855,0.9795703291893005,-18.319416046142578,13.288965225219727,-8.876361846923828,-0.07049647718667984,-3.0133492946624756,0.31048446893692017,-0.41317227482795715,0.5457481741905212,-1.5683969259262085
414,151366,151367,-0.009070594795048237,0.011486828327178955,1.0528451204299927,-11.566030502319336,15.09068489074707,-7.650877475738525,-0.0764961764216423,-3.031348466873169,0.3164841830730438,-0.5557098984718323,0.47985658049583435,-1.653191089630127
415,151376,151377,-0.06837437301874161,-0.12402869015932083,1.0138349533081055,-2.1927366256713867,11.186684608459473,-6.632985591888428,-0.07499624788761139,-3.0178489685058594,0.3059847056865692,-0.7363900542259216,0.40310096740722656,-1.7446680068969727
416,151386,151387,-0.03557669743895531,0.03997737541794777,0.9730808734893799,8.08542537689209,4.6188063621521,-5.169671058654785,-0.0764961764216423,-3.0193488597869873,0.31948402523994446,-0.6867190003395081,0.5007113814353943,-1.758777379989624
417,151396,151397,-0.10305547714233398,0.1298859566450119,0.951362133026123,11.434865951538086,-4.452277183532715,-3.795847177505493,-0.09749512374401093,-3.025348663330078,0.31948402523994446,-0.7309140563011169,0.6218474507331848,-1.8163021802902222
418,151406,151407,-0.03275169059634209,0.11918386816978455,0.9884812831878662,7.854261875152588,-12.565288543701172,-2.752248764038086,-0.085495725274086,-3.031348466873169,0.30748462677001953,-0.5674956440925598,0.7016069293022156,-1.8357828855514526
419,151416,151417,-0.05126205459237099,0.2229299247264862,0.960443913936615,-2.6907105445861816,-16.504764556884766,-2.0763349533081055,-0.08249587565660477,-3.0193488597869873,0.3164841830730438,-0.3922322690486908,0.5823865532875061,-1.8667770624160767
420,151426,151427,-0.1498604565858841,0.1737091988325119,1.002429485321045,-14.575864791870117,-15.212760925292969,-1.2074363231658936,-0.07949602603912354,-3.0223488807678223,0.3224838674068451,-0.25060245394706726,0.3560986816883087,-1.9137753248214722
421,151436,151437,-0.07708106935024261,0.10424809157848358,1.0653128623962402,-23.133228302001953,-11.992185592651367,0.6819742321968079,-0.08399579674005508,-3.0208489894866943,0.3149842321872711,-0.025300612673163414,0.3222411870956421,-1.8880141973495483
422,151446,151447,-0.039202675223350525,-0.0005709549295715988,1.022744059562683,-21.96729278564453,-9.45124626159668,2.748264789581299,-0.07499624788761139,-3.026848554611206,0.3149842321872711,0.06759968400001526,0.03773697838187218,-1.880320429801941
423,151456,151457,-0.07939153909683228,-0.009772246703505516,1.062532901763916,-17.685314178466797,-5.996313095092773,5.217883586883545,-0.0764961764216423,-3.0133492946624756,0.3164841830730438,0.19659434258937836,-0.11236738413572311,-1.8340461254119873
424,151466,151467,-0.009053695946931839,0.13604438304901123,1.0342236757278442,-14.974431991577148,-1.2396358251571655,8.526305198669434,-0.07949602603912354,-3.0193488597869873,0.31048446893692017,0.2307991236448288,-0.3542289137840271,-1.7640645503997803
425,151476,151477,-0.006798347923904657,0.04189042001962662,1.026996374130249,-15.680992126464844,4.499794960021973,8.64618968963623,-0.08099594712257385,-3.026848554611206,0.3119843900203705,0.1923530399799347,-0.5122666954994202,-1.678688645362854
426,151486,151487,-0.10082074999809265,-0.14231571555137634,1.052950143814087,-15.096442222595215,3.954422950744629,8.01221752166748,-0.07499624788761139,-3.0118494033813477,0.3239837884902954,0.11890178173780441,-0.6023315787315369,-1.5937988758087158
427,151496,151497,-0.10766027122735977,-0.05286332219839096,1.0761603116989136,-11.165453910827637,3.462707281112671,8.403409004211426,-0.07949602603912354,-3.004349708557129,0.31048446893692017,0.061326805502176285,-0.7921118140220642,-1.515152931213379
428,151506,151507,-0.1243293508887291,0.06747419387102127,1.0991724729537964,-7.920518398284912,2.1262121200561523,8.67591667175293,-0.07799609750509262,-3.0118494033813477,0.3239837884902954,0.04447512328624725,-0.7688376903533936,-1.4324616193771362
429,151516,151517,-0.059085551649332047,-0.004396274220198393,1.012073278427124,-5.777222633361816,3.679790496826172,7.925546646118164,-0.07349632680416107,-3.0163490772247314,0.31948402523994446,0.0017259052256122231,-0.8642271757125854,-1.3468987941741943
430,151526,151527,-0.08799242973327637,0.011475636623799801,1.0245109796524048,-2.060377359390259,7.712401866912842,8.815666198730469,-0.08249587565660477,-3.0163490772247314,0.3314834237098694,-0.09382176399230957,-0.9036760330200195,-1.264272689819336
431,151536,151537,-0.051881298422813416,0.015468933619558811,1.0344364643096924,-2.8987209796905518,13.383522033691406,9.4032621383667,-0.08099594712257385,-3.0118494033813477,0.3209839463233948,-0.2645672857761383,-0.9907475113868713,-1.167876958847046
432,151546,151547,-0.02764567919075489,0.03819312900304794,1.054856300354004,-6.417327880859375,15.681853294372559,10.03331184387207,-0.085495725274086,-3.0103495121002197,0.3224838674068451,-0.41516220569610596,-1.0489941835403442,-1.0723718404769897
433,151556,151557,-0.11195269227027893,0.03879666328430176,1.0612159967422485,-10.92521858215332,19.194225311279297,11.435391426086426,-0.07499624788761139,-3.0178489685058594,0.32998350262641907,-0.6083513498306274,-1.0912106037139893,-0.9609594345092773
434,151566,151567,-0.0468396320939064,0.007145120296627283,1.018364667892456,-18.603652954101562,13.994240760803223,12.282809257507324,-0.08699564635753632,-3.008849620819092,0.3149842321872711,-0.645562469959259,-1.2443633079528809,-0.8674423098564148
435,151576,151577,-0.03377965837717056,0.006116797216236591,1.0053166151046753,-24.44324493408203,2.465956449508667,13.254915237426758,-0.08849557489156723,-3.0163490772247314,0.31948402523994446,-0.7569528818130493,-1.5039881467819214,-0.7435247302055359
436,151586,151587,-0.06217334792017937,0.025578036904335022,0.9986607432365417,-25.445810317993164,-8.376272201538086,13.742430686950684,-0.07949602603912354,-3.0073494911193848,0.3314834237098694,-0.680232584476471,-1.806656837463379,-0.6195667386054993
437,151596,151597,-0.04111820086836815,-0.0006996715674176812,0.9713927507400513,-19.790494918823242,-14.638803482055664,13.436436653137207,-0.07499624788761139,-3.002849817276001,0.32698363065719604,-0.5469396114349365,-2.055447816848755,-0.48473507165908813
438,151606,151607,-0.05946003273129463,0.005780523642897606,0.9914852380752563,-5.839927673339844,-13.893031120300293,12.20731258392334,-0.08399579674005508,-2.99685001373291,0.31798410415649414,-0.3801601827144623,-1.9891554117202759,-0.3400273025035858
439,151616,151617,-0.01712976023554802,0.01905370131134987,1.035640835762024,10.874484062194824,-7.391772747039795,10.956145286560059,-0.06449677050113678,-3.004349708557129,0.3254837095737457,-0.28255847096443176,-1.9566409587860107,-0.20964445173740387
440,151626,151627,0.029941553249955177,-0.14288252592086792,0.984519898891449,29.34817123413086,5.141793727874756,9.651900291442871,-0.07049647718667984,-3.0163490772247314,0.3224838674068451,-0.3009971082210541,-1.7527434825897217,-0.10340987890958786
441,151636,151637,0.020143499597907066,-0.1920187771320343,0.9068169593811035,38.544471740722656,15.024271011352539,9.50400161743164,-0.09299534559249878,-3.002849817276001,0.3119843900203705,-0.4850597381591797,-1.2714011669158936,0.023497654125094414
442,151646,151647,-0.024252766743302345,-0.15292955935001373,0.9237189292907715,39.79388427734375,19.443933486938477,10.096200942993164,-0.08099594712257385,-3.0148491859436035,0.3209839463233948,-0.7606241703033447,-0.9482068419456482,0.14719299972057343
443,151656,151657,-0.11347772181034088,-0.12213873118162155,0.9394663572311401,33.086769104003906,14.885523796081543,11.499833106994629,-0.08249587565660477,-3.0073494911193848,0.3254837095737457,-0.9902161359786987,-0.5388867259025574,0.27540677785873413
444,151666,151667,-0.08932149410247803,-0.06806774437427521,0.9676592350006104,15.864798545837402,7.172328948974609,14.092731475830078,-0.07949602603912354,-3.0073494911193848,0.31948402523994446,-1.043299913406372,-0.4889361262321472,0.36376330256462097
445,151676,151677,-0.012895505875349045,0.029017319902777672,0.9971727728843689,-4.813328742980957,-0.007108824327588081,14.912869453430176,-0.08849557489156723,-3.0163490772247314,0.31948402523994446,-1.0564779043197632,-0.5383574366569519,0.4894863963127136
446,151686,151687,-0.052206918597221375,0.12442435324192047,1.0206116437911987,-28.113656997680664,-13.132628440856934,13.978937149047852,-0.06749662756919861,-3.025348663330078,0.3134843111038208,-0.8925685882568359,-0.8773889541625977,0.5930303931236267
447,151696,151697,-0.2242431640625,0.11781975626945496,1.0514192581176758,-43.30711364746094,-30.373985290527344,11.055789947509766,-0.06149692460894585,-3.0103495121002197,0.3224838674068451,-0.4643517732620239,-1.2926619052886963,0.6616385579109192
448,151706,151707,-0.12772662937641144,0.0441180020570755,1.0704129934310913,-46.172176361083984,-46.3411865234375,8.239078521728516,-0.05999699980020523,-3.029848337173462,0.3209839463233948,-0.13336564600467682,-1.5384788513183594,0.8087351322174072
449,151716,151717,-0.01127195730805397,-0.011868204921483994,1.0504250526428223,-38.81982421875,-49.06468200683594,5.895751953125,-0.07049647718667984,-3.0163490772247314,0.31048446893692017,0.2435011863708496,-2.0134949684143066,0.9276160597801208
450,151726,151727,0.003248373279348016,-0.056870877742767334,1.0920449495315552,-25.561996459960938,-38.08211135864258,3.63845157623291,-0.06149692460894585,-3.0193488597869873,0.3134843111038208,0.6723336577415466,-2.3628194332122803,0.9971368312835693
451,151736,151737,-0.0012077395804226398,0.00387372262775898,1.0856759548187256,-10.475478172302246,-16.87372589111328,1.482801079750061,-0.06149692460894585,-3.0163490772247314,0.31948402523994446,0.9428383111953735,-2.469909191131592,1.0497602224349976
452,151746,151747,-0.019659826532006264,0.10349748283624649,1.0455290079116821,5.243052959442139,4.9909844398498535,-2.068629026412964,-0.06449677050113678,-3.0103495121002197,0.3314834237098694,0.9850770235061646,-2.463190793991089,1.0600006580352783
453,151756,151757,-0.052767157554626465,0.1368524134159088,1.0704450607299805,16.53643035888672,23.385622024536133,-6.768306255340576,-0.07499624788761139,-2.99685001373291,0.3329833447933197,0.7138375639915466,-2.3177602291107178,1.0554198026657104
454,151766,151767,0.05590962618589401,0.08677197247743607,1.0902107954025269,25.71174430847168,33.48268127441406,-10.129054069519043,-0.05249737575650215,-3.001349925994873,0.3314834237098694,0.3139837384223938,-2.0873935222625732,1.0018612146377563
455,151776,151777,0.04863150790333748,0.20222344994544983,1.1556183099746704,34.38248062133789,33.11375427246094,-12.95207691192627,-0.0659966990351677,-2.9908504486083984,0.32998350262641907,-0.0659918412566185,-1.782741665840149,0.8851101994514465
456,151786,151787,0.07540609687566757,0.16065466403961182,1.100852370262146,37.99287796020508,25.249704360961914,-14.840251922607422,-0.0764961764216423,-3.0073494911193848,0.3254837095737457,-0.281352698802948,-1.3881210088729858,0.6946457624435425
457,151796,151797,0.10511862486600876,0.11162227392196655,0.9948384165763855,39.82057189941406,14.248154640197754,-17.301538467407227,-0.06899654865264893,-3.008849620819092,0.3149842321872711,-0.47992411255836487,-1.0925012826919556,0.5233455300331116
458,151806,151807,0.03257578983902931,0.1418824940919876,0.9667069315910339,34.09294128417969,4.149567604064941,-17.078310012817383,-0.07499624788761139,-3.008849620819092,0.32698363065719604,-0.4944933354854584,-0.6909196376800537,0.31281647086143494
459,151816,151817,-0.046935003250837326,0.0950203388929367,0.9723430871963501,24.03554916381836,-2.4651412963867188,-15.215710639953613,-0.07949602603912354,-3.004349708557129,0.3434828221797943,-0.38976582884788513,-0.5087569952011108,0.10111498087644577
460,151826,151827,-0.0011814308818429708,0.04320558160543442,0.9873372912406921,13.889354705810547,-3.99523663520813,-13.832463264465332,-0.09299534559249878,-3.008849620819092,0.3239837884902954,-0.31995996832847595,-0.2791871428489685,-0.06426864117383957
461,151836,151837,0.10284195840358734,0.09444057196378708,0.967536449432373,3.4107325077056885,-3.5787932872772217,-11.854328155517578,-0.07199639827013016,-3.002849817276001,0.31798410415649414,-0.3343702256679535,-0.21846114099025726,-0.18452484905719757
462,151846,151847,0.007025370839983225,0.11152983456850052,0.8886237144470215,-7.042313575744629,-5.588799476623535,-9.388091087341309,-0.0944952741265297,-3.004349708557129,0.3134843111038208,-0.24176542460918427,-0.2490931749343872,-0.3097574710845947
463,151856,151857,-0.10546237975358963,0.19287802278995514,0.9718849658966064,-10.955679893493652,-7.895551681518555,-8.091048240661621,-0.08849557489156723,-3.0073494911193848,0.32848358154296875,-0.1129816323518753,-0.39118099212646484,-0.42262205481529236
464,151866,151867,-0.10890810191631317,0.13355347514152527,1.0550224781036377,-4.378262519836426,-9.880578994750977,-6.347799777984619,-0.07049647718667984,-3.001349925994873,0.3254837095737457,-0.1636117696762085,-0.4747433662414551,-0.45898202061653137
465,151876,151877,-0.046415261924266815,0.06295876204967499,0.9912704229354858,3.5961549282073975,-8.227137565612793,-4.593324184417725,-0.07499624788761139,-3.008849620819092,0.3209839463233948,-0.06000160798430443,-0.42767927050590515,-0.5111570954322815
466,151886,151887,-0.1540379673242569,-0.0066916448995471,0.9725366234779358,12.097480773925781,-6.490401268005371,-2.7858364582061768,-0.08399579674005508,-3.0118494033813477,0.3149842321872711,0.024342456832528114,-0.31749239563941956,-0.5436174273490906
467,151896,151897,-0.1059713214635849,-0.014113420620560646,1.0263830423355103,23.215991973876953,-5.138281345367432,-0.6697893142700195,-0.08849557489156723,-3.0103495121002197,0.32848358154296875,0.07435250282287598,-0.03841402754187584,-0.5569949150085449
468,151906,151907,-0.02769087813794613,0.08879861235618591,1.0800048112869263,31.220911026000977,1.3023930788040161,2.0080373287200928,-0.08699564635753632,-3.0178489685058594,0.3329833447933197,-0.04188188910484314,0.3098614513874054,-0.5248815417289734
469,151916,151917,0.011882600374519825,0.23086750507354736,1.0350204706192017,32.56170654296875,9.5171480178833,4.149261951446533,-0.07799609750509262,-3.0178489685058594,0.3209839463233948,-0.06970684975385666,0.4983918368816376,-0.49311694502830505
470,151926,151927,-0.0023038028739392757,0.027942892163991928,0.9857566952705383,21.06763458251953,14.23120403289795,3.9075002670288086,-0.08849557489156723,-3.0133492946624756,0.3164841830730438,-0.18274983763694763,0.7181627750396729,-0.44988420605659485
471,151936,151937,-0.006775706075131893,0.1557421237230301,1.0679231882095337,4.0874342918396,14.490888595581055,3.390375852584839,-0.0764961764216423,-3.004349708557129,0.33448326587677,-0.39602965116500854,0.6798369288444519,-0.40363216400146484
