,timestamp_start,timestamp_end,acc.x,acc.y,acc.z,gyro.x,gyro.y,gyro.z,mag.x,mag.y,mag.z,stabilizer.pitch,stabilizer.roll,stabilizer.yaw
0,620700,620702,0.01785457134246826,-0.09568046778440475,0.9981936812400818,7.501939296722412,1.6223294734954834,-1.4857949018478394,-0.085495725274086,-3.079345941543579,0.3314834237098694,-1.152525544166565,-0.21238330006599426,-0.9097405672073364
1,620710,620712,-0.02560214139521122,-0.06227795407176018,1.0105791091918945,8.288908004760742,-1.529996395111084,-1.9523738622665405,-0.07199639827013016,-3.0898454189300537,0.3239837884902954,-1.1510118246078491,-0.4701148569583893,-0.9922065734863281
2,620720,620722,-0.001369347795844078,-0.04006028175354004,1.0188169479370117,7.840414524078369,-3.898664951324463,-1.7857146263122559,-0.08099594712257385,-3.080845832824707,0.3149842321872711,-1.0439810752868652,-0.3490782082080841,-1.010616421699524
3,620730,620732,-0.011544588021934032,-0.02936955727636814,1.0110937356948853,9.310874938964844,-6.706759929656982,-1.2541675567626953,-0.06749662756919861,-3.0943453311920166,0.3164841830730438,-1.0301731824874878,-0.35917264223098755,-1.0429631471633911
4,620740,620742,-0.0052742185071110725,-0.6120191216468811,1.027727723121643,10.053616523742676,-9.582235336303711,-0.5493663549423218,-0.0764961764216423,-3.0913453102111816,0.3224838674068451,-0.9052332043647766,-0.2776649296283722,-1.0544458627700806
5,620750,620752,-0.029834914952516556,-0.3093213438987732,1.0055159330368042,12.386075973510742,-10.726531028747559,-0.4438343942165375,-0.0764961764216423,-3.088345527648926,0.31948402523994446,-0.7494798302650452,-0.03167782351374626,-1.040178894996643
6,620760,620762,0.006773251574486494,-0.008305337280035019,1.032581090927124,13.43389892578125,-9.728285789489746,-0.13099028170108795,-0.07349632680416107,-3.082345724105835,0.31948402523994446,-0.6605912446975708,-0.04201030358672142,-1.0632387399673462
7,620770,620772,-0.09349488466978073,0.08345750719308853,1.0229099988937378,12.556665420532227,-7.382200717926025,0.007505832239985466,-0.06749662756919861,-3.088345527648926,0.3134843111038208,-0.5343194007873535,0.23021802306175232,-1.0481921434402466
8,620780,620782,-0.057187944650650024,-0.10107406973838806,1.0018856525421143,10.500916481018066,-3.9880154132843018,0.5809599161148071,-0.085495725274086,-3.088345527648926,0.3134843111038208,-0.45712563395500183,0.06479489803314209,-1.0782378911972046
9,620790,620792,-0.0032649519853293896,-0.04143029823899269,1.009233832359314,9.076810836791992,-1.127021074295044,1.105233073234558,-0.06899654865264893,-3.0928452014923096,0.3239837884902954,-0.49521222710609436,0.23790013790130615,-1.0643763542175293
10,620800,620802,-0.005538993515074253,-0.1422160267829895,1.0204249620437622,7.512326240539551,1.6106032133102417,1.5304263830184937,-0.08399579674005508,-3.0718462467193604,0.31798410415649414,-0.5011681914329529,0.3087666928768158,-1.0488895177841187
11,620810,620812,-0.0771869644522667,-0.126759335398674,1.0196412801742554,8.098701477050781,3.957139730453491,0.6398182511329651,-0.0764961764216423,-3.08534574508667,0.3224838674068451,-0.4749123752117157,0.3770873546600342,-1.0348913669586182
12,620820,620822,-0.018751900643110275,-0.13771261274814606,1.084514856338501,7.495590686798096,4.587574005126953,0.787782609462738,-0.07499624788761139,-3.083845853805542,0.33598318696022034,-0.5459485650062561,0.503842294216156,-1.022822618484497
13,620830,620832,-0.07438664883375168,-0.16464559733867645,1.0298357009887695,9.267404556274414,3.8385462760925293,0.9204070568084717,-0.0659966990351677,-3.0928452014923096,0.3239837884902954,-0.48507386445999146,0.5674499869346619,-1.0076820850372314
14,620840,620842,-0.07169944047927856,-0.18642479181289673,1.009161114692688,8.881708145141602,0.31430602073669434,0.6056386232376099,-0.07799609750509262,-3.0898454189300537,0.3209839463233948,-0.5315201878547668,0.6448893547058105,-0.9971105456352234
15,620850,620852,-0.04461713507771492,-0.14406993985176086,1.0354243516921997,8.868548393249512,-1.954898476600647,0.5252239108085632,-0.07799609750509262,-3.086845636367798,0.3209839463233948,-0.5260751247406006,0.7826433777809143,-0.9890859127044678
16,620860,620862,-0.03327979892492294,-0.09278233349323273,0.9708521962165833,8.380647659301758,-3.1768620014190674,0.6774436235427856,-0.07499624788761139,-3.0748462677001953,0.32998350262641907,-0.49635595083236694,0.7145971655845642,-0.9870128631591797
17,620870,620872,-0.1309589296579361,-0.15792497992515564,0.9352169632911682,7.129868507385254,-4.6182427406311035,0.605400562286377,-0.08249587565660477,-3.088345527648926,0.33748310804367065,-0.44532620906829834,0.8472268581390381,-0.9767329096794128
18,620880,620882,-0.20369718968868256,-0.26014983654022217,0.9650167226791382,2.579359531402588,-3.746302366256714,0.759649395942688,-0.07949602603912354,-3.079345941543579,0.3224838674068451,-0.38185006380081177,0.9210083484649658,-0.9704577922821045
19,620890,620892,-0.11053790152072906,-0.22269737720489502,0.9915146827697754,0.6940289735794067,-1.0916540622711182,0.7710486054420471,-0.07949602603912354,-3.079345941543579,0.3224838674068451,-0.416029155254364,0.8750419616699219,-0.9713748097419739
20,620900,620902,-0.022341515868902206,-0.027293691411614418,0.9871167540550232,2.8113815784454346,1.7949854135513306,0.8675548434257507,-0.10349482297897339,-3.0733463764190674,0.32848358154296875,-0.4298522472381592,0.9700391292572021,-0.9649608731269836
21,620910,620912,-0.0669875517487526,-0.012854204513132572,0.9600815773010254,2.70927357673645,4.103358745574951,1.0563396215438843,-0.08399579674005508,-3.0988450050354004,0.33898305892944336,-0.475805401802063,1.0020073652267456,-0.9549298882484436
22,620920,620922,-0.009181191213428974,-0.014644326642155647,0.9848091006278992,3.60042667388916,4.813193321228027,0.8628638982772827,-0.09149542450904846,-3.0763461589813232,0.3134843111038208,-0.549389660358429,1.1066089868545532,-0.9471806883811951
23,620930,620932,-0.020605601370334625,-0.0008754102163948119,0.9687460660934448,4.384154319763184,3.7567641735076904,1.1333649158477783,-0.09299534559249878,-3.077846050262451,0.3209839463233948,-0.410069078207016,1.1522096395492554,-0.9139801263809204
24,620940,620942,0.03804563730955124,0.06154239550232887,1.0466970205307007,3.619354248046875,2.1058146953582764,1.4231810569763184,-0.09599519520998001,-3.086845636367798,0.3239837884902954,-0.6109192371368408,1.2593986988067627,-0.9209763407707214
25,620950,620952,-0.0018579302122816443,0.10767020285129547,0.9978046417236328,2.488208293914795,-0.6911937594413757,1.634114384651184,-0.0944952741265297,-3.08534574508667,0.3164841830730438,-0.49180859327316284,1.345532774925232,-0.8838227391242981
26,620960,620962,-0.030575063079595566,0.029719972983002663,0.9575570821762085,-0.5882188677787781,-2.80191707611084,0.9674401879310608,-0.08999549597501755,-3.083845853805542,0.33898305892944336,-0.47298920154571533,1.386901617050171,-0.8681932091712952
27,620970,620972,-0.0036586574278771877,0.09280238300561905,1.0528191328048706,-3.6784629821777344,-2.7452046871185303,0.6743154525756836,-0.08249587565660477,-3.0733463764190674,0.3314834237098694,-0.5763704776763916,1.375594139099121,-0.8822673559188843
28,620980,620982,-0.005979261361062527,0.0015039516147226095,0.9767600297927856,-6.88223934173584,-2.619084358215332,0.9785684943199158,-0.085495725274086,-3.082345724105835,0.3314834237098694,-0.5205310583114624,1.3125741481781006,-0.8711901903152466
29,620990,620992,0.1417292058467865,-0.016034133732318878,0.9733700752258301,-8.879415512084961,-0.8127642869949341,1.4585586786270142,-0.08399579674005508,-3.077846050262451,0.32998350262641907,-0.502346396446228,1.2732748985290527,-0.8572505116462708
30,621000,621002,0.14976809918880463,0.027911392971873283,0.9187933802604675,-10.224005699157715,-0.8796819448471069,0.9827958941459656,-0.08849557489156723,-3.079345941543579,0.32848358154296875,-0.6909891963005066,1.1354787349700928,-0.8776983618736267
31,621010,621012,-0.006371919997036457,0.0017224467592313886,0.9255494475364685,-10.192197799682617,-1.5655653476715088,1.3270200490951538,-0.09149542450904846,-3.079345941543579,0.32848358154296875,-0.3058319687843323,0.9846926331520081,-0.7968886494636536
32,621020,621022,-0.03947298228740692,-0.02167503535747528,0.9302147626876831,-9.278968811035156,-1.5521142482757568,1.3579961061477661,-0.0764961764216423,-3.0733463764190674,0.3404829800128937,-0.4236370027065277,1.451045036315918,-0.8123733401298523
33,621030,621032,-0.013845102861523628,-0.03122726082801819,0.9394857883453369,-5.5901994705200195,-2.2766005992889404,1.7715967893600464,-0.08399579674005508,-3.077846050262451,0.3329833447933197,-0.24819302558898926,0.7635859251022339,-0.7631933689117432
34,621040,621042,0.029726149514317513,-0.02181476727128029,0.9530375599861145,-5.695786476135254,-0.25146952271461487,1.4784094095230103,-0.08699564635753632,-3.083845853805542,0.3239837884902954,-0.23477640748023987,0.6245118379592896,-0.7461196780204773
35,621050,621052,-0.0722825825214386,0.056867994368076324,0.8910041451454163,-4.876513481140137,0.7339112758636475,1.336963176727295,-0.08849557489156723,-3.0763461589813232,0.32848358154296875,-0.1117512434720993,0.6966900825500488,-0.7138633728027344
36,621060,621062,-0.03771016001701355,-0.025048526003956795,0.9156614542007446,-2.5452427864074707,4.092807292938232,1.2001910209655762,-0.07049647718667984,-3.0673465728759766,0.33748310804367065,-0.18226446211338043,0.7858027815818787,-0.7114477753639221
37,621070,621072,-0.008124490268528461,-0.03576970845460892,0.9556558132171631,-1.4190807342529297,6.631968021392822,1.7568156719207764,-0.08399579674005508,-3.080845832824707,0.3329833447933197,-0.22726242244243622,0.6208879351615906,-0.690370500087738
38,621080,621082,-0.02315927855670452,-0.04178452864289284,1.025437355041504,-1.9331464767456055,7.570096492767334,1.8829952478408813,-0.0764961764216423,-3.088345527648926,0.33448326587677,-1.0366058349609375,1.2120769023895264,-0.8080070614814758
39,621090,621092,-0.02809206396341324,-0.09902623295783997,0.9721224308013916,-0.9836156368255615,8.81181526184082,2.7862842082977295,-0.09749512374401093,-3.0733463764190674,0.32848358154296875,-0.920820415019989,1.074999213218689,-0.7545461058616638
40,621100,621102,-0.03670972213149071,-0.024061786010861397,0.9276502132415771,-3.6525068283081055,3.468768358230591,2.653085231781006,-0.07799609750509262,-3.077846050262451,0.32998350262641907,-0.5135762691497803,0.5319914817810059,-0.6424456834793091
41,621110,621112,-0.02249945141375065,0.011246607638895512,0.9431771636009216,-9.070880889892578,-4.8142781257629395,2.479799270629883,-0.085495725274086,-3.082345724105835,0.31948402523994446,-0.44004154205322266,0.43956395983695984,-0.6022317409515381
42,621120,621122,0.06935828179121017,-0.06034928187727928,0.933537483215332,-12.294221878051758,-10.07371997833252,2.4065675735473633,-0.07949602603912354,-3.082345724105835,0.3314834237098694,-0.34550583362579346,0.3500012457370758,-0.5715877413749695
43,621130,621132,0.028216255828738213,-0.11942559480667114,0.8910059928894043,-11.648298263549805,-11.633150100708008,2.5450327396392822,-0.08699564635753632,-3.0718462467193604,0.34498274326324463,-0.18935856223106384,0.0368170402944088,-0.5374220013618469
44,621140,621142,-0.01516273245215416,-0.024861613288521767,0.9202953577041626,-6.977779388427734,-7.781322479248047,2.637807607650757,-0.07799609750509262,-3.0718462467193604,0.30898454785346985,-0.7300556898117065,0.45357972383499146,-0.5980374217033386
45,621150,621152,-0.035845912992954254,-0.016908342018723488,0.974409818649292,-1.6490451097488403,-2.3410933017730713,3.2973313331604004,-0.07949602603912354,-3.0643467903137207,0.34648266434669495,-1.0129166841506958,0.9711294770240784,-0.6165613532066345
46,621160,621162,-0.010212703607976437,0.07574252039194107,1.034711241722107,-0.029463205486536026,-0.00275243679061532,3.680867910385132,-0.07499624788761139,-3.080845832824707,0.3239837884902954,-0.9821023941040039,0.879952609539032,-0.5829838514328003
47,621170,621172,-0.0007961969240568578,0.09506893903017044,0.9888571500778198,-1.2196980714797974,-0.31124189496040344,3.3456783294677734,-0.08099594712257385,-3.0718462467193604,0.33598318696022034,-0.9094111323356628,0.8068602085113525,-0.5382339954376221
48,621180,621182,0.005861311219632626,0.022707553580403328,0.9667699933052063,-6.512392044067383,-4.524808883666992,2.903291940689087,-0.08999549597501755,-3.0628468990325928,0.3239837884902954,-0.8056321144104004,0.6785327792167664,-0.4976278245449066
49,621190,621192,-0.04170145466923714,0.15524235367774963,0.9987901449203491,-13.987592697143555,-13.523397445678711,2.9731106758117676,-0.09299534559249878,-3.0718462467193604,0.341982901096344,-0.6653841733932495,0.45613595843315125,-0.46477726101875305
50,621200,621202,-0.0014754851581528783,0.02695383131504059,0.9783251881599426,-20.1630802154541,-18.261333465576172,3.555307626724243,-0.06749662756919861,-3.0763461589813232,0.32848358154296875,-0.4309295415878296,0.26693958044052124,-0.42568910121917725
51,621210,621212,0.0076559362933039665,-0.017518360167741776,0.9766335487365723,-22.742679595947266,-21.001541137695312,3.8449621200561523,-0.09149542450904846,-3.088345527648926,0.3314834237098694,-0.20597396790981293,-0.05522703751921654,-0.38740837574005127
52,621220,621222,0.005203776527196169,0.020240524783730507,0.9795361161231995,-19.394224166870117,-20.27773094177246,3.907515048980713,-0.07349632680416107,-3.0733463764190674,0.33748310804367065,-0.04087498039007187,-0.22112908959388733,-0.35185950994491577
53,621230,621232,0.04714355990290642,-0.05506601184606552,0.9813159108161926,-13.715174674987793,-15.020817756652832,3.788834810256958,-0.07349632680416107,-3.0733463764190674,0.33448326587677,0.2872382700443268,-0.5234745740890503,-0.3011327385902405
54,621240,621242,-0.042090315371751785,-0.05771997570991516,0.9192957282066345,-5.295197486877441,-10.033384323120117,3.8045427799224854,-0.06749662756919861,-3.08534574508667,0.33448326587677,0.3163633644580841,-0.42511144280433655,-0.27279719710350037
55,621250,621252,-0.013540796004235744,-0.007013556081801653,0.9683765172958374,1.516933560371399,-3.1924381256103516,3.8182361125946045,-0.05399730056524277,-3.0718462467193604,0.32998350262641907,0.39794957637786865,-0.4966224431991577,-0.2343643456697464
56,621260,621262,-0.05058866739273071,-0.08878234028816223,0.9600419998168945,5.58786678314209,1.3314552307128906,3.568997859954834,-0.05999699980020523,-3.0658466815948486,0.33598318696022034,0.45878079533576965,-0.47986307740211487,-0.19571004807949066
57,621270,621272,0.017812445759773254,-0.017021682113409042,0.9818111658096313,6.052608966827393,5.303305625915527,3.0723254680633545,-0.06149692460894585,-3.0703463554382324,0.32848358154296875,0.3709034323692322,-0.6280996799468994,-0.14571325480937958
58,621280,621282,0.019428430125117302,-0.0025783951859921217,1.0645402669906616,3.1580893993377686,6.271812915802002,3.130831480026245,-0.07349632680416107,-3.079345941543579,0.32848358154296875,0.31443995237350464,-0.5790002942085266,-0.11377771198749542
59,621290,621292,-0.5705909729003906,0.022797247394919395,1.0233755111694336,1.9030964374542236,5.416699409484863,2.7766354084014893,-0.04949752241373062,-3.088345527648926,0.3314834237098694,0.32975631952285767,-0.5532526969909668,-0.08702161908149719
60,621300,621302,-0.5816676616668701,0.03201713040471077,0.9912914633750916,0.8200647234916687,1.3043937683105469,2.718796491622925,-0.06149692460894585,-3.0703463554382324,0.3314834237098694,0.31472069025039673,-0.5474128127098083,-0.06008989363908768
61,621310,621312,-0.05103122815489769,0.013791173696517944,0.9957776665687561,0.2432464212179184,-2.161165952682495,2.551924467086792,-0.06299684941768646,-3.0718462467193604,0.32698363065719604,0.35905659198760986,-0.5549449324607849,-0.03530129790306091
62,621320,621322,-0.0043009258806705475,-0.018623117357492447,1.0308316946029663,-0.8531935811042786,-4.873777389526367,2.1944291591644287,-0.0764961764216423,-3.0643467903137207,0.3224838674068451,0.3092097043991089,-0.5750813484191895,-0.003942984156310558
63,621330,621332,0.03353600203990936,-0.07864629477262497,1.0529816150665283,-0.9639770984649658,-4.92153263092041,1.8254802227020264,-0.07799609750509262,-3.077846050262451,0.32998350262641907,0.42040541768074036,-0.5342821478843689,0.006807384546846151
64,621340,621342,0.08523201197385788,-0.11979896575212479,1.022220492362976,0.3707940876483917,-4.189512252807617,2.2136685848236084,-0.06749662756919861,-3.08534574508667,0.3404829800128937,0.3829992413520813,-0.6203873753547668,0.04256179556250572
65,621350,621352,0.09521883726119995,-0.0657099261879921,0.9751311540603638,2.293649673461914,-3.2898311614990234,2.1300432682037354,-0.08249587565660477,-3.082345724105835,0.32848358154296875,0.479055255651474,-0.599303126335144,0.059656597673892975
66,621360,621362,0.038008324801921844,-0.08740906417369843,0.9434354901313782,2.0072004795074463,-3.318934679031372,1.893846869468689,-0.0764961764216423,-3.0733463764190674,0.33448326587677,0.4961521029472351,-0.5691499710083008,0.0802174061536789
67,621370,621372,-0.1525087058544159,-0.1905299425125122,0.9337102770805359,1.9432719945907593,-2.129891872406006,1.4737744331359863,-0.08399579674005508,-3.0718462467193604,0.3329833447933197,0.5046451687812805,-0.6142369508743286,0.10955002903938293
68,621380,621382,-0.0676116794347763,-0.06328876316547394,0.9543083310127258,2.7951714992523193,-0.4579201936721802,1.1674654483795166,-0.07799609750509262,-3.0688464641571045,0.33898305892944336,0.6231545805931091,-0.5733909606933594,0.11043809354305267
69,621390,621392,0.05799858272075653,-0.07637573778629303,1.041948676109314,2.303504467010498,2.391059637069702,1.843247652053833,-0.06299684941768646,-3.080845832824707,0.3209839463233948,0.6266955137252808,-0.5979871153831482,0.1325003057718277
70,621400,621402,-0.03952762112021446,-0.040012288838624954,1.0426973104476929,5.752156734466553,4.736966609954834,1.7558796405792236,-0.07049647718667984,-3.082345724105835,0.3404829800128937,0.5904244184494019,-0.5292673707008362,0.14715513586997986
71,621410,621412,-0.10119999200105667,0.031182926148176193,0.9782408475875854,7.063018321990967,5.148596286773682,1.3206151723861694,-0.07049647718667984,-3.0673465728759766,0.3314834237098694,0.5311861038208008,-0.55915367603302,0.17878428101539612
72,621420,621422,-0.11747284233570099,0.14097286760807037,1.0085554122924805,8.849074363708496,4.892676830291748,0.6070213317871094,-0.06899654865264893,-3.083845853805542,0.33898305892944336,0.4720708429813385,-0.41715991497039795,0.17967143654823303
73,621430,621432,-0.05682316794991493,0.13490784168243408,1.0772576332092285,7.957155227661133,5.409784317016602,0.12523692846298218,-0.07049647718667984,-3.079345941543579,0.3404829800128937,0.4073915481567383,-0.27522534132003784,0.17620815336704254
74,621440,621442,0.04605745151638985,0.05222051218152046,1.0703938007354736,6.509523868560791,6.1310954093933105,-0.15071362257003784,-0.0764961764216423,-3.0763461589813232,0.3404829800128937,0.33010950684547424,-0.22652862966060638,0.18255330622196198
75,621450,621452,0.1339683085680008,-0.04446680471301079,1.026289701461792,5.3710222244262695,4.489996910095215,0.40717583894729614,-0.07049647718667984,-3.0673465728759766,0.34648266434669495,0.2630777657032013,-0.1910213679075241,0.18781572580337524
76,621460,621462,0.14988991618156433,-0.048996180295944214,1.0136080980300903,2.82731556892395,0.9405204057693481,0.7045285105705261,-0.07349632680416107,-3.0703463554382324,0.32848358154296875,0.24315597116947174,-0.11416946351528168,0.18666644394397736
77,621470,621472,0.00805381964892149,0.023168325424194336,0.96045982837677,1.4658203125,-4.25559663772583,0.45086485147476196,-0.08999549597501755,-3.056847095489502,0.32698363065719604,0.29917290806770325,-0.07552197575569153,0.18333010375499725
78,621480,621482,-0.053750623017549515,0.029526541009545326,0.9172137379646301,-0.5840596556663513,-4.355722904205322,0.8291043043136597,-0.07499624788761139,-3.0688464641571045,0.33598318696022034,0.38327932357788086,-0.06014610081911087,0.18405790627002716
79,621490,621492,-0.017723066732287407,0.08344095945358276,1.0066962242126465,-1.8434371948242188,-4.410208702087402,0.31413841247558594,-0.07349632680416107,-3.0763461589813232,0.3434828221797943,0.46509358286857605,-0.21688538789749146,0.20779363811016083
80,621500,621502,-0.00741287786513567,0.09106495976448059,1.0495742559432983,-2.7112152576446533,-1.4698156118392944,-0.04091900214552879,-0.07799609750509262,-3.0628468990325928,0.3329833447933197,0.5198413729667664,-0.23968353867530823,0.20900104939937592
81,621510,621512,0.039598334580659866,-0.03702599182724953,1.023384928703308,0.13155905902385712,3.514047861099243,-0.26740792393684387,-0.07799609750509262,-3.0628468990325928,0.3329833447933197,0.5059777498245239,-0.24535876512527466,0.20743930339813232
82,621520,621522,0.11219983547925949,0.00878441147506237,0.9535302519798279,5.875826835632324,6.407240867614746,-0.05664398521184921,-0.07799609750509262,-3.0628468990325928,0.3329833447933197,0.43189701437950134,-0.3161277770996094,0.2213970422744751
83,621530,621532,0.011022202670574188,0.07532070577144623,0.8355008959770203,9.30645751953125,9.46430778503418,-0.11115425080060959,-0.07799609750509262,-3.0628468990325928,0.3329833447933197,0.31127920746803284,-0.23562422394752502,0.22370050847530365
84,621540,621542,-0.04306613653898239,0.04940818250179291,0.8472328186035156,11.228981971740723,9.932891845703125,-0.6818472146987915,-0.06749662756919861,-3.0643467903137207,0.33448326587677,0.169587641954422,-0.11559542268514633,0.22144059836864471
85,621550,621552,-0.07205171138048172,-0.05229144170880318,0.8480115532875061,12.570420265197754,8.282309532165527,-0.7133275270462036,-0.05999699980020523,-3.077846050262451,0.3329833447933197,0.17904916405677795,-0.10326937586069107,0.22070203721523285
86,621560,621562,0.041138965636491776,-0.06528495997190475,0.962486207485199,10.360822677612305,7.236647129058838,-0.7246652841567993,-0.07499624788761139,-3.0748462677001953,0.31798410415649414,0.18043000996112823,0.045683443546295166,0.2024308145046234
87,621570,621572,-0.009311605244874954,-0.02917098067700863,0.9966583847999573,6.828667163848877,4.0211029052734375,-1.1091722249984741,-0.0659966990351677,-3.077846050262451,0.32998350262641907,0.09093479812145233,0.07296785712242126,0.20434032380580902
88,621580,621582,-0.05421935394406319,0.023018278181552887,0.9780852198600769,3.4606661796569824,1.828117847442627,-1.2071391344070435,-0.06149692460894585,-3.079345941543579,0.3164841830730438,0.04418938234448433,0.12325935810804367,0.19610916078090668
89,621590,621592,-0.030990567058324814,0.05792330205440521,0.9479798674583435,1.948207974433899,0.06640531867742538,-1.2758328914642334,-0.06449677050113678,-3.08534574508667,0.3224838674068451,0.10047405958175659,0.1326807588338852,0.18197108805179596
90,621600,621602,-0.08803354948759079,0.1124950498342514,0.9179372787475586,3.3617231845855713,-1.8905552625656128,-1.129305124282837,-0.06449677050113678,-3.103344678878784,0.30748462677001953,0.11360809206962585,0.21570870280265808,0.1631903052330017
91,621610,621612,-0.09998565167188644,0.12031178921461105,0.9785975813865662,4.438892841339111,-2.0837244987487793,-1.2046011686325073,-0.06299684941768646,-3.0898454189300537,0.3119843900203705,0.14434070885181427,0.24558421969413757,0.15081045031547546
92,621620,621622,0.008600739762187004,0.012980005703866482,1.023789882659912,2.8706061840057373,2.64729642868042,-0.3898005783557892,-0.06299684941768646,-3.0988450050354004,0.3209839463233948,0.18932455778121948,0.33470848202705383,0.13543426990509033
93,621630,621632,-0.030408548191189766,-0.028391631320118904,1.0188369750976562,3.684425115585327,4.427797794342041,-0.06957246363162994,-0.07199639827013016,-3.086845636367798,0.30898454785346985,0.1219085082411766,0.41428142786026,0.1289728581905365
94,621640,621642,-0.002503626048564911,0.007591758854687214,0.9709306359291077,5.194744110107422,7.293442726135254,-0.3721100091934204,-0.06149692460894585,-3.106344699859619,0.3224838674068451,0.08531814813613892,0.5099387764930725,0.12321437895298004
95,621650,621652,-0.07221207767724991,0.026821544393897057,0.9156144261360168,4.923916339874268,8.504836082458496,-1.0125629901885986,-0.05249737575650215,-3.08534574508667,0.31948402523994446,0.016236599534749985,0.5411717891693115,0.11837868392467499
96,621660,621662,-0.08497833460569382,-0.3944333493709564,0.9311099052429199,3.0516316890716553,8.189520835876465,-1.4004250764846802,-0.0659966990351677,-3.0958452224731445,0.3059847056865692,-0.05297612398862839,0.5578614473342896,0.10937249660491943
97,621670,621672,-0.08832540363073349,-0.6020047664642334,0.9801151156425476,0.8661431670188904,8.502365112304688,-0.16860823333263397,-0.06299684941768646,-3.0988450050354004,0.3149842321872711,-0.20528286695480347,0.6083917617797852,0.09870313853025436
98,621680,621682,-0.01980099081993103,-0.10383676737546921,0.9526222348213196,0.4430159330368042,8.011788368225098,-0.508520781993866,-0.06149692460894585,-3.0913453102111816,0.3224838674068451,-0.20560863614082336,0.7069987654685974,0.09263987094163895
99,621690,621692,-0.010579116642475128,0.06894136965274811,0.9070897102355957,-0.7785437703132629,4.660420894622803,-1.54180109500885,-0.05249737575650215,-3.0943453311920166,0.31948402523994446,-0.3147638738155365,0.712689220905304,0.0849905014038086
100,621700,621702,-0.01226616557687521,0.049332454800605774,0.9610477685928345,-1.7372554540634155,1.2396519184112549,-1.7499905824661255,-0.05999699980020523,-3.0988450050354004,0.30898454785346985,-0.3658687472343445,0.5616748929023743,0.07642222940921783
101,621710,621712,0.045999158173799515,-0.045603226870298386,1.0444587469100952,-4.791031837463379,0.8913916945457458,-0.9893555045127869,-0.06149692460894585,-3.0913453102111816,0.3014849126338959,-0.38968294858932495,0.5960116386413574,0.05775587633252144
102,621720,621722,0.10174564272165298,0.0009771360782906413,1.0609543323516846,-3.9917678833007812,0.387173056602478,-0.12510132789611816,-0.056997150182724,-3.113844156265259,0.3059847056865692,-0.3382331430912018,0.6020382642745972,0.050383493304252625
103,621730,621732,0.05711705610156059,0.06413744390010834,1.0465809106826782,-2.5898070335388184,-1.6518276929855347,-0.5661134123802185,-0.06899654865264893,-3.0928452014923096,0.30898454785346985,-0.2687177360057831,0.5569297075271606,0.05116923898458481
104,621740,621742,0.016037939116358757,0.018723148852586746,1.0333877801895142,-1.9395874738693237,-4.015500545501709,-1.0275160074234009,-0.07199639827013016,-3.104844808578491,0.31798410415649414,-0.304386705160141,0.52556973695755,0.04018194228410721
105,621750,621752,-0.03397444635629654,-0.0189713966101408,1.0302168130874634,-0.6683359742164612,-1.7955567836761475,-1.4946649074554443,-0.0659966990351677,-3.0928452014923096,0.3209839463233948,-0.27109000086784363,0.5092651844024658,0.02742144465446472
106,621760,621762,0.03653845563530922,-0.0328090600669384,1.0395762920379639,0.012860775925219059,2.1860194206237793,-1.1597943305969238,-0.06149692460894585,-3.08534574508667,0.31048446893692017,-0.2878091633319855,0.5107967853546143,0.011830422095954418
107,621770,621772,-0.009067446924746037,0.02833123877644539,1.0215322971343994,-1.9591258764266968,5.348533630371094,-0.7170250415802002,-0.07799609750509262,-3.107844591140747,0.3149842321872711,-0.28642910718917847,0.5631874203681946,0.0025641117244958878
108,621780,621782,-0.04712079465389252,-0.01648673415184021,1.0086643695831299,-3.248619556427002,6.069958686828613,-0.8097760081291199,-0.06899654865264893,-3.0958452224731445,0.3149842321872711,-0.3843286633491516,0.5125275254249573,-0.007903967052698135
109,621790,621792,0.010952568612992764,-0.00718755042180419,1.0393450260162354,-4.35524320602417,6.26119327545166,-0.6090378761291504,-0.06299684941768646,-3.0988450050354004,0.3029848337173462,-0.4184766113758087,0.45004141330718994,-0.013203136622905731
110,621800,621802,-0.15208610892295837,0.1250716745853424,0.9563722610473633,-3.8337409496307373,2.6217808723449707,-0.4071083962917328,-0.06449677050113678,-3.08534574508667,0.31948402523994446,-0.4239203929901123,0.39153167605400085,-0.016261326149106026
111,621810,621812,-0.014998847618699074,0.027298858389258385,1.033948302268982,-4.306841850280762,4.07593297958374,0.07469534873962402,-0.07049647718667984,-3.08534574508667,0.3224838674068451,-0.3513883948326111,0.32555699348449707,-0.013149293139576912
112,621820,621822,-0.010755879804491997,0.0041307806968688965,1.0540871620178223,-3.3067033290863037,2.3000926971435547,-0.09711296111345291,-0.06299684941768646,-3.077846050262451,0.29998499155044556,-0.48681530356407166,0.2684532105922699,-0.019586246460676193
113,621830,621832,-0.029801778495311737,-0.03671780228614807,1.0168253183364868,-1.8947217464447021,2.207240581512451,-0.1483376920223236,-0.07049647718667984,-3.088345527648926,0.31948402523994446,-0.5306899547576904,0.22957828640937805,-0.02213703840970993
114,621840,621842,-0.053851667791604996,0.15913715958595276,1.0356773138046265,1.132696509361267,-0.8519212007522583,-0.1111580953001976,-0.07199639827013016,-3.077846050262451,0.31798410415649414,-0.472634881734848,0.29964810609817505,-0.0173883605748415
115,621850,621852,-0.06870391219854355,0.15176963806152344,1.0793460607528687,-0.16626928746700287,0.46339547634124756,0.4069565534591675,-0.07799609750509262,-3.080845832824707,0.3059847056865692,-0.4135271906852722,0.30460429191589355,-0.015278116799890995
116,621860,621862,0.03600558266043663,0.13447333872318268,1.137454867362976,0.6208279132843018,3.346068859100342,1.226506233215332,-0.0659966990351677,-3.0928452014923096,0.33598318696022034,-0.4609955847263336,0.3747324049472809,-0.00823640450835228
117,621870,621872,0.03364745154976845,0.09858438372612,1.0613377094268799,-0.8378481864929199,4.079124927520752,1.8828425407409668,-0.085495725274086,-3.0703463554382324,0.3254837095737457,-0.5324223041534424,0.36767807602882385,0.003985771909356117
118,621880,621882,-0.006432368885725737,0.06542431563138962,1.0279920101165771,-2.3451931476593018,3.086244821548462,0.9132658839225769,-0.06449677050113678,-3.08534574508667,0.3164841830730438,-0.5258128643035889,0.3286747336387634,0.0205531008541584
119,621890,621892,0.01172945648431778,0.03139779716730118,1.1192184686660767,-3.463517189025879,0.8365769386291504,0.7309026718139648,-0.07049647718667984,-3.08534574508667,0.32848358154296875,-0.5676291584968567,0.27236029505729675,0.027584699913859367
120,621900,621902,0.027436962351202965,-0.0153224291279912,1.118748664855957,-6.681473255157471,2.295375108718872,1.0600547790527344,-0.0764961764216423,-3.088345527648926,0.3134843111038208,-0.6049114465713501,0.17984844744205475,0.032353464514017105
121,621910,621912,0.027881363406777382,-0.051561906933784485,1.0346046686172485,-5.791673183441162,1.0391987562179565,1.615410327911377,-0.085495725274086,-3.0763461589813232,0.3254837095737457,-0.6378799676895142,0.281460702419281,0.0540195107460022
122,621920,621922,-0.09430937469005585,-0.03514295443892479,0.9861722588539124,-3.8443782329559326,-1.0427603721618652,1.2327138185501099,-0.08999549597501755,-3.0688464641571045,0.3329833447933197,-0.6397382020950317,0.19129329919815063,0.0670822262763977
123,621930,621932,-0.04070911929011345,0.015674065798521042,0.9915379285812378,-2.6108646392822266,2.1108946800231934,0.9182587265968323,-0.07349632680416107,-3.0673465728759766,0.33748310804367065,-0.6514938473701477,0.19494697451591492,0.08004527539014816
124,621940,621942,-0.0738498792052269,-0.036024559289216995,1.0587127208709717,-3.693913698196411,0.03104761242866516,0.5932715535163879,-0.09899504482746124,-3.0718462467193604,0.33898305892944336,-0.6635807752609253,0.1274111419916153,0.08488614112138748
125,621950,621952,-0.039709337055683136,-0.0070436373353004456,1.0815740823745728,-3.857097625732422,1.286208987236023,0.6536638140678406,-0.085495725274086,-3.0613467693328857,0.33448326587677,-0.6758553385734558,0.12081138044595718,0.09307430684566498
126,621960,621962,-0.006368258502334356,0.04698166251182556,1.0600063800811768,-1.866774320602417,1.034751057624817,0.9383807182312012,-0.08699564635753632,-3.059846878051758,0.33898305892944336,-0.6938678026199341,0.05961480736732483,0.0981413871049881
127,621970,621972,-0.01793413795530796,0.08623696118593216,1.0311483144760132,-1.65093195438385,-0.7678526043891907,0.7498151659965515,-0.08699564635753632,-3.0628468990325928,0.33898305892944336,-0.693851888179779,0.019111264497041702,0.10537916421890259
128,621980,621982,-0.07338250428438187,-0.042314834892749786,0.9276824593544006,-0.21061255037784576,-1.5580477714538574,0.6098772883415222,-0.09149542450904846,-3.0643467903137207,0.33748310804367065,-0.6737199425697327,-0.005473557859659195,0.11118756234645844
129,621990,621992,-0.05363001674413681,-0.040431443601846695,0.9231377840042114,-2.118453025817871,-1.4037076234817505,1.2171345949172974,-0.08099594712257385,-3.0718462467193604,0.3329833447933197,-0.6460225582122803,-0.037807561457157135,0.11652982234954834
130,622000,622002,-0.018241412937641144,-0.12348337471485138,0.9663227200508118,-2.8193013668060303,-2.0806727409362793,0.8463679552078247,-0.09299534559249878,-3.056847095489502,0.34798258543014526,-0.613788902759552,-0.08622539043426514,0.12530477344989777
131,622010,622012,-0.019604310393333435,-0.009086225181818008,0.9657672643661499,-3.6325392723083496,-2.2889564037323,1.4654797315597534,-0.07949602603912354,-3.05834698677063,0.3404829800128937,-0.5785816311836243,-0.07931523025035858,0.1387329399585724
132,622020,622022,-0.035371918231248856,0.01310938410460949,0.9370819330215454,-2.440423011779785,-3.040893316268921,2.0218772888183594,-0.08249587565660477,-3.0613467693328857,0.33748310804367065,-0.5353719592094421,-0.13267871737480164,0.15306679904460907
133,622030,622032,0.00575281074270606,-0.04227173700928688,0.9485347867012024,0.06051681190729141,-0.6670597791671753,2.417670965194702,-0.0659966990351677,-3.059846878051758,0.3509824573993683,-0.5094611644744873,-0.1609748899936676,0.17521241307258606
134,622040,622042,0.000851680408231914,0.062241919338703156,0.964905321598053,2.4451680183410645,-0.6055265665054321,2.3575823307037354,-0.08099594712257385,-3.059846878051758,0.341982901096344,-0.4997703433036804,-0.14840932190418243,0.19988663494586945
135,622050,622052,-0.08239462226629257,0.17032985389232635,0.9160544872283936,1.989620566368103,-1.0007237195968628,1.8418524265289307,-0.085495725274086,-3.0703463554382324,0.33748310804367065,-0.48736605048179626,-0.11966615170240402,0.22273798286914825
136,622060,622062,-0.07754940539598465,0.19659702479839325,0.947261393070221,1.4710190296173096,0.028166858479380608,1.064781665802002,-0.08249587565660477,-3.0643467903137207,0.33748310804367065,-0.5516520738601685,-0.09873683750629425,0.24023732542991638
137,622070,622072,-0.09150783717632294,0.07346721738576889,0.999049723148346,1.7587523460388184,0.4051905870437622,0.28455647826194763,-0.09749512374401093,-3.0613467693328857,0.3434828221797943,-0.5605432987213135,-0.0842374786734581,0.24510721862316132
138,622080,622082,-0.02368895523250103,-0.006408168468624353,0.9625280499458313,-0.2269509881734848,-0.7454679012298584,1.143717885017395,-0.08849557489156723,-3.0613467693328857,0.33448326587677,-0.6205601096153259,-0.08417017757892609,0.25095856189727783
139,622090,622092,0.07258448004722595,-0.15157772600650787,0.940311849117279,-2.292344331741333,0.6007641553878784,0.850506603717804,-0.08099594712257385,-3.077846050262451,0.3329833447933197,-0.6096379160881042,-0.11058841645717621,0.25904524326324463
140,622100,622102,0.07423876971006393,-0.20548349618911743,0.8425927758216858,-2.5610105991363525,-1.034538745880127,1.5103322267532349,-0.085495725274086,-3.0733463764190674,0.3404829800128937,-0.590941846370697,-0.15340423583984375,0.2670152485370636
141,622110,622112,0.0934993326663971,0.01495002955198288,0.9752832651138306,-2.4392621517181396,-3.270453929901123,1.4432021379470825,-0.08249587565660477,-3.0703463554382324,0.3434828221797943,-0.5417410135269165,-0.19490931928157806,0.27893975377082825
142,622120,622122,0.026941336691379547,0.05785435810685158,0.9809722304344177,-0.4149610698223114,-4.125027656555176,0.9821161031723022,-0.07499624788761139,-3.059846878051758,0.33898305892944336,-0.46827614307403564,-0.2169659584760666,0.2919546067714691
143,622130,622132,0.01043718308210373,0.1285857856273651,0.9104041457176208,0.011542186141014099,-3.9353771209716797,1.1154385805130005,-0.07349632680416107,-3.0733463764190674,0.3254837095737457,-0.4642700254917145,-0.2247987985610962,0.3040338456630707
144,622140,622142,-0.04199637100100517,0.172458678483963,0.9358705878257751,2.6092052459716797,-2.9727535247802734,0.8092318773269653,-0.07499624788761139,-3.077846050262451,0.3239837884902954,-0.46156996488571167,-0.20252664387226105,0.3166964054107666
145,622150,622152,-0.0782102569937706,0.16336898505687714,0.9181351661682129,4.00980806350708,-2.7658181190490723,0.1542830914258957,-0.07049647718667984,-3.0643467903137207,0.3254837095737457,-0.39786460995674133,-0.15009842813014984,0.3223966360092163
146,622160,622162,-0.02195451408624649,0.04110114648938179,0.9465514421463013,2.712907075881958,-1.5514428615570068,1.0455166101455688,-0.06299684941768646,-3.0718462467193604,0.3209839463233948,-0.349914014339447,-0.09741382300853729,0.3265098035335541
147,622170,622172,-0.025242893025279045,-0.05119515210390091,0.9350973963737488,3.022120475769043,-2.03173565864563,0.7525810599327087,-0.07349632680416107,-3.0673465728759766,0.31948402523994446,-0.3744044899940491,0.1562037616968155,0.3519751727581024
148,622180,622182,-0.024290138855576515,-0.01681545376777649,0.9604316353797913,-0.4832812547683716,-1.5407100915908813,0.30150333046913147,-0.07349632680416107,-3.088345527648926,0.3314834237098694,-0.3303010165691376,0.22205732762813568,0.3608616888523102
149,622190,622192,0.003591551212593913,-0.03027539700269699,0.8926380276679993,-1.8972212076187134,-1.5971602201461792,0.32114264369010925,-0.07199639827013016,-3.086845636367798,0.31798410415649414,-0.2904333472251892,0.1732219159603119,0.3628697395324707
150,622200,622202,-0.03527073934674263,-0.017205283045768738,0.9299628138542175,-6.829143524169922,-2.1006109714508057,-0.5770828127861023,-0.07199639827013016,-3.080845832824707,0.3239837884902954,-0.24652904272079468,-0.13675513863563538,0.3485196828842163
151,622210,622212,-0.058374155312776566,0.21105627715587616,0.9845520853996277,-8.119566917419434,-3.8400185108184814,0.1073571965098381,-0.06449677050113678,-3.0913453102111816,0.3134843111038208,-0.18428941071033478,-0.1238708645105362,0.3459596037864685
152,622220,622222,-0.02462693303823471,0.086277537047863,1.0103963613510132,-8.194972038269043,-2.7909750938415527,-0.10462944954633713,-0.07349632680416107,-3.082345724105835,0.32848358154296875,-0.12102209031581879,-0.06001528725028038,0.35041096806526184
153,622230,622232,-0.035541754215955734,0.18008379638195038,1.0555639266967773,-7.117805004119873,-3.123783588409424,0.02392319031059742,-0.05399730056524277,-3.0748462677001953,0.32698363065719604,-0.0576874278485775,-0.20494119822978973,0.3462491035461426
154,622240,622242,-0.007409271784126759,0.06706684082746506,1.0445051193237305,-3.7299466133117676,-2.2447829246520996,0.3305431008338928,-0.05399730056524277,-3.077846050262451,0.31798410415649414,-0.003162671811878681,-0.16479171812534332,0.3487181067466736
155,622250,622252,0.03664276376366615,0.13754381239414215,0.9744997620582581,-0.8890516757965088,0.5614389777183533,-0.2808809280395508,-0.05249737575650215,-3.08534574508667,0.3254837095737457,-0.12201734632253647,-0.22189916670322418,0.35487261414527893
156,622260,622262,-0.024472776800394058,0.16515980660915375,0.9106858968734741,1.9720054864883423,0.19953568279743195,-0.7930817604064941,-0.06899654865264893,-3.0748462677001953,0.32698363065719604,-0.1138206422328949,-0.22670461237430573,0.3501693606376648
157,622270,622272,-0.013673479668796062,0.0431961789727211,0.9739422798156738,1.0572158098220825,3.1140263080596924,-0.44614556431770325,-0.07799609750509262,-3.077846050262451,0.3239837884902954,-0.1321803778409958,-0.21960708498954773,0.3428092896938324
158,622280,622282,0.006961698178201914,0.018244517967104912,1.0412896871566772,-0.6357135772705078,4.127509593963623,-0.3006018400192261,-0.07499624788761139,-3.0928452014923096,0.3329833447933197,-0.17271505296230316,-0.23233218491077423,0.3379259407520294
159,622290,622292,0.08910390734672546,0.05902841314673424,1.0684943199157715,-0.8194884061813354,5.02052640914917,0.675508439540863,-0.06899654865264893,-3.083845853805542,0.3239837884902954,-0.15281249582767487,-0.18883585929870605,0.33306026458740234
160,622300,622302,0.012232745997607708,0.024698786437511444,1.0176432132720947,-1.9571369886398315,-1.3077137470245361,0.5353717803955078,-0.05549722537398338,-3.0913453102111816,0.3134843111038208,-0.16234080493450165,-0.23151364922523499,0.33681046962738037
161,622310,622312,-0.004519931972026825,0.026278823614120483,1.0128304958343506,-2.4989914894104004,-4.374759674072266,0.025568198412656784,-0.058497074991464615,-3.0733463764190674,0.32848358154296875,-0.17475830018520355,-0.21148230135440826,0.3433593213558197
162,622320,622322,-0.012463455088436604,-0.0013327101478353143,0.9959166646003723,-3.25244402885437,-5.300746917724609,-0.3657599091529846,-0.0764961764216423,-3.082345724105835,0.3224838674068451,-0.08522351086139679,-0.2778542637825012,0.3424772322177887
163,622330,622332,0.005583350546658039,-0.023353107273578644,1.0098474025726318,-3.5422110557556152,-6.167240142822266,-0.6227986216545105,-0.07499624788761139,-3.080845832824707,0.3239837884902954,0.014553933404386044,-0.344929963350296,0.33706358075141907
164,622340,622342,0.07999292016029358,-0.1329365372657776,0.9965448379516602,-3.9588515758514404,-0.7706448435783386,-1.0054676532745361,-0.07049647718667984,-3.08534574508667,0.3224838674068451,0.07510489970445633,-0.4188597798347473,0.33058035373687744
165,622350,622352,0.10010595619678497,-0.17822004854679108,0.9572734236717224,-1.9501065015792847,-0.45435822010040283,-0.7031146287918091,-0.05999699980020523,-3.077846050262451,0.32998350262641907,0.023854635655879974,-0.3402160704135895,0.3238823115825653
166,622360,622362,-0.018153510987758636,-0.21125786006450653,0.9191219806671143,-1.2619504928588867,-2.4962785243988037,-0.767583966255188,-0.07049647718667984,-3.082345724105835,0.3224838674068451,0.05179695785045624,-0.38872411847114563,0.31822866201400757
167,622370,622372,-0.012895354069769382,-0.24052399396896362,1.013919472694397,-1.3256837129592896,-0.1483062356710434,-0.21435317397117615,-0.058497074991464615,-3.0763461589813232,0.3314834237098694,0.07018440216779709,-0.4310987889766693,0.31385159492492676
168,622380,622382,0.03503197059035301,-0.24797451496124268,1.0733789205551147,-1.3434163331985474,4.489469528198242,0.6469778418540955,-0.06449677050113678,-3.0733463764190674,0.3314834237098694,0.03756967931985855,-0.4645480215549469,0.31518328189849854
169,622390,622392,0.07542289048433304,-0.22551055252552032,1.0371452569961548,1.2798287868499756,5.1591386795043945,0.9535620808601379,-0.0659966990351677,-3.083845853805542,0.32698363065719604,-0.030788473784923553,-0.4750373363494873,0.3208526074886322
170,622400,622402,-0.025585811585187912,-0.23538151383399963,0.9676844477653503,1.339287281036377,3.3958301544189453,-0.22786009311676025,-0.04649767279624939,-3.0763461589813232,0.3224838674068451,-0.08726780861616135,-0.46518659591674805,0.3268824815750122
171,622410,622412,-0.2818929851055145,-0.559967041015625,0.9248977303504944,2.1596341133117676,0.8401718735694885,-0.793347179889679,-0.07949602603912354,-3.0763461589813232,0.32848358154296875,-0.11750268936157227,-0.4517543911933899,0.32455113530158997
172,622420,622422,-0.125101238489151,-0.4005903899669647,1.0050889253616333,2.257849931716919,-0.8000427484512329,-1.1203532218933105,-0.05999699980020523,-3.0898454189300537,0.34498274326324463,-0.11223310232162476,-0.4240308403968811,0.31835439801216125
173,622430,622432,-0.009291695430874825,-0.21620981395244598,0.9940598607063293,1.5792285203933716,-2.041344165802002,-0.12297268211841583,-0.08399579674005508,-3.0748462677001953,0.31798410415649414,-0.08175984025001526,-0.4690728187561035,0.3131236433982849
174,622440,622442,0.003038224996998906,-0.16273345053195953,0.9160904884338379,2.75964093208313,-3.7896618843078613,0.020347246900200844,-0.08399579674005508,-3.080845832824707,0.32998350262641907,-0.028305092826485634,-0.3675056993961334,0.30717867612838745
175,622450,622452,-0.10678603500127792,-0.11944536119699478,0.8635621070861816,2.429373025894165,-6.136857509613037,-0.3576010465621948,-0.06449677050113678,-3.079345941543579,0.33448326587677,0.04851379618048668,-0.40383103489875793,0.3055022954940796
176,622460,622462,-0.1638970822095871,-0.07462861388921738,0.892142653465271,0.4568002223968506,-5.487680435180664,-0.483085036277771,-0.07349632680416107,-3.0643467903137207,0.3254837095737457,0.12688283622264862,-0.38634365797042847,0.29978975653648376
177,622470,622472,-0.15197473764419556,-0.08605551719665527,0.9867106080055237,-0.21434229612350464,-2.0498087406158447,-0.4562963843345642,-0.07049647718667984,-3.0733463764190674,0.31948402523994446,0.16917593777179718,-0.38432735204696655,0.2934478521347046
178,622480,622482,0.021571850404143333,0.0612211637198925,0.9641315340995789,1.3371158838272095,7.656699180603027,0.05082979425787926,-0.06149692460894585,-3.0703463554382324,0.32848358154296875,0.1210373118519783,-0.30963680148124695,0.2874249219894409
179,622490,622492,-0.04925425723195076,0.0667317658662796,0.9295765161514282,0.018184706568717957,3.836284637451172,-0.01073813159018755,-0.05399730056524277,-3.077846050262451,0.3209839463233948,0.03684769570827484,-0.3817679286003113,0.2891249358654022
180,622500,622502,-0.12790589034557343,0.17543500661849976,0.9447863698005676,1.8097478151321411,3.0580036640167236,-0.745429277420044,-0.058497074991464615,-3.088345527648926,0.31948402523994446,-0.025559188798069954,-0.36412370204925537,0.28601810336112976
181,622510,622512,-0.1595192551612854,0.17406508326530457,1.0030986070632935,2.913120746612549,1.9731723070144653,-1.47928786277771,-0.05999699980020523,-3.086845636367798,0.31798410415649414,-0.07071097195148468,-0.32951095700263977,0.2780609428882599
182,622520,622522,-0.058171696960926056,0.03458499163389206,1.0274150371551514,3.195551872253418,5.003046035766602,-0.78522127866745,-0.05549722537398338,-3.1003448963165283,0.3164841830730438,-0.06142011284828186,-0.3487701714038849,0.2648910880088806
183,622530,622532,0.027948684990406036,0.11314026266336441,1.0147440433502197,2.1115503311157227,2.0404605865478516,-1.180274248123169,-0.050997450947761536,-3.0928452014923096,0.32998350262641907,-0.1120511144399643,-0.3672768473625183,0.25703540444374084
184,622540,622542,-0.034829281270504,0.15656985342502594,0.9334442615509033,2.7250723838806152,-1.249672293663025,-1.2308517694473267,-0.07049647718667984,-3.0943453311920166,0.32848358154296875,-0.11747005581855774,-0.3889666199684143,0.2441040426492691
185,622550,622552,-0.0009650557767599821,0.0942564606666565,1.0337404012680054,4.164613723754883,-1.040344476699829,-1.1184386014938354,-0.06449677050113678,-3.0763461589813232,0.3254837095737457,-0.09861097484827042,-0.3185407519340515,0.2282937467098236
186,622560,622562,-0.03471258655190468,0.10751539468765259,1.0871350765228271,3.739473342895508,-0.9825583696365356,-0.8775039315223694,-0.058497074991464615,-3.08534574508667,0.3404829800128937,-0.005896293558180332,-0.3105422258377075,0.21100404858589172
187,622570,622572,0.030890783295035362,0.10655224323272705,1.1040081977844238,4.22123384475708,1.060202717781067,-0.16274315118789673,-0.05999699980020523,-3.083845853805542,0.33598318696022034,-0.0009767061565071344,-0.2318049818277359,0.19820071756839752
188,622580,622582,0.0471990630030632,0.17530471086502075,1.0662606954574585,5.463204860687256,0.895892322063446,-0.5865916609764099,-0.0764961764216423,-3.079345941543579,0.3134843111038208,-0.010036898776888847,-0.13900010287761688,0.18890312314033508
189,622590,622592,-0.003627947298809886,0.07141826301813126,1.0353682041168213,5.496891975402832,-0.6808409690856934,-1.7242822647094727,-0.06899654865264893,-3.0718462467193604,0.3209839463233948,-0.011840468272566795,-0.04344235733151436,0.17652589082717896
190,622600,622602,0.015531657263636589,0.04675766080617905,1.1110079288482666,3.215766191482544,1.5452824831008911,-2.0652148723602295,-0.05999699980020523,-3.0898454189300537,0.3239837884902954,-0.022381918504834175,-0.10284353047609329,0.1636246293783188
191,622610,622612,0.07746277004480362,0.010207506828010082,1.0964858531951904,1.5333621501922607,2.4424662590026855,-1.4706225395202637,-0.07199639827013016,-3.083845853805542,0.33598318696022034,-0.05445081368088722,-0.045801520347595215,0.14254043996334076
192,622620,622622,-0.014913776889443398,0.0048018950037658215,1.0236419439315796,2.358154058456421,-0.4776478111743927,-1.3650104999542236,-0.07949602603912354,-3.079345941543579,0.3164841830730438,-0.07980555295944214,-0.006685898173600435,0.12592682242393494
193,622630,622632,-0.010862566530704498,0.030903350561857224,1.0242081880569458,2.2707884311676025,2.8116660118103027,-1.8764331340789795,-0.06899654865264893,-3.083845853805542,0.32698363065719604,-0.044487446546554565,-0.025256533175706863,0.11029064655303955
194,622640,622642,-0.031079765409231186,-0.06769010424613953,1.0755432844161987,0.025572052225470543,2.9831490516662598,-1.9847043752670288,-0.085495725274086,-3.079345941543579,0.3314834237098694,-0.10278201103210449,0.0029652584344148636,0.08970722556114197
195,622650,622652,0.014742962084710598,-0.04526761546730995,1.0752681493759155,1.2613720893859863,3.0934484004974365,-1.25510573387146,-0.08399579674005508,-3.0748462677001953,0.32998350262641907,-0.15941573679447174,-0.03908919170498848,0.07167011499404907
196,622660,622662,-0.04182007908821106,0.028383387252688408,1.0235893726348877,4.352489948272705,0.9891060590744019,-1.5250413417816162,-0.07949602603912354,-3.079345941543579,0.33748310804367065,-0.1326930671930313,0.021493764594197273,0.053662654012441635
197,622670,622672,-0.10402434319257736,0.0824948325753212,1.0379018783569336,3.8473641872406006,-0.5942789912223816,-2.1324994564056396,-0.06449677050113678,-3.0733463764190674,0.3434828221797943,-0.22350159287452698,0.09679818898439407,0.03927342966198921
198,622680,622682,-0.01843254640698433,0.0328596830368042,1.0133839845657349,4.640737533569336,0.9040579795837402,-1.3443429470062256,-0.07349632680416107,-3.0673465728759766,0.3164841830730438,-0.16712139546871185,0.17582392692565918,0.01985851302742958
199,622690,622692,0.05416255444288254,-0.058096058666706085,1.0710774660110474,4.10666561126709,2.861708641052246,-2.0225632190704346,-0.08399579674005508,-3.0658466815948486,0.3329833447933197,-0.20301558077335358,0.25565826892852783,0.005338161252439022
200,622700,622702,0.035402845591306686,0.004232448060065508,1.0230522155761719,3.43654727935791,0.41253259778022766,-1.5006375312805176,-0.08699564635753632,-3.077846050262451,0.3329833447933197,-0.16495823860168457,0.24976028501987457,-0.011560563929378986
201,622710,622712,-0.006431563291698694,-0.11596324294805527,0.8807766437530518,2.0631754398345947,0.5815550684928894,-1.4194127321243286,-0.085495725274086,-3.0703463554382324,0.33448326587677,-0.18869085609912872,0.2960718274116516,-0.024224504828453064
202,622720,622722,-0.022471247240900993,-0.14546112716197968,0.8997580409049988,-1.1022690534591675,0.15282690525054932,-1.3947949409484863,-0.08099594712257385,-3.053847312927246,0.3329833447933197,-0.20403769612312317,0.2970688045024872,-0.03453654795885086
203,622730,622732,0.0021782105322927237,-0.14985154569149017,1.0182013511657715,-4.3315300941467285,2.9669687747955322,-0.5743266940116882,-0.08699564635753632,-3.0658466815948486,0.33898305892944336,-0.23357908427715302,0.25484713912010193,-0.043581798672676086
204,622740,622742,0.06476227939128876,-0.19966396689414978,0.9896290898323059,-5.832194805145264,6.3352370262146,0.3952729105949402,-0.08399579674005508,-3.0718462467193604,0.3329833447933197,-0.29188236594200134,0.04123038798570633,-0.046246156096458435
205,622750,622752,0.06870375573635101,-0.13562902808189392,0.8780357241630554,-5.369115829467773,5.829107761383057,0.7981501817703247,-0.085495725274086,-3.0733463764190674,0.33748310804367065,-0.42668530344963074,0.10787827521562576,-0.04768160358071327
206,622760,622762,0.04007367789745331,0.023181378841400146,0.8738192319869995,-1.47321617603302,2.151905059814453,0.46275514364242554,-0.085495725274086,-3.0733463764190674,0.33748310804367065,-0.4469517171382904,0.062392961233854294,-0.0436856634914875
207,622770,622772,0.006823771633207798,0.019374750554561615,0.9362625479698181,2.844001293182373,-3.3619792461395264,-0.1594131886959076,-0.085495725274086,-3.0733463764190674,0.33748310804367065,-0.4105190336704254,0.08708211779594421,-0.04051480069756508
208,622780,622782,-0.04919130355119705,0.16025513410568237,0.9923778176307678,5.262760162353516,-6.128661632537842,-1.5486440658569336,-0.085495725274086,-3.0733463764190674,0.33748310804367065,-0.39587411284446716,0.1601121425628662,-0.042593780905008316
209,622790,622792,-0.060995545238256454,0.18148304522037506,0.9907918572425842,3.5324723720550537,-6.228801250457764,-1.4188636541366577,-0.08099594712257385,-3.077846050262451,0.33598318696022034,-0.22585342824459076,0.24332016706466675,-0.049647100269794464
210,622800,622802,-0.030433669686317444,0.1277429461479187,0.9840974807739258,2.9474711418151855,-3.8508825302124023,-0.9218811988830566,-0.08399579674005508,-3.083845853805542,0.33598318696022034,-0.21560680866241455,0.30509263277053833,-0.05818384513258934
211,622810,622812,0.036562204360961914,0.11385306715965271,0.9742817878723145,2.6521670818328857,-1.8031331300735474,-0.1374083161354065,-0.07349632680416107,-3.079345941543579,0.3314834237098694,-0.16522818803787231,0.14739887416362762,-0.0632743313908577
212,622820,622822,-0.08989690989255905,0.09770514816045761,0.8599578738212585,1.1357499361038208,-1.406995177268982,-0.0628075897693634,-0.06449677050113678,-3.079345941543579,0.33748310804367065,-0.1351015716791153,0.19301652908325195,-0.06208416074514389
213,622830,622832,-0.0510200634598732,0.03323540464043617,0.9108342528343201,-0.6186670660972595,-0.40318727493286133,0.02606295421719551,-0.07799609750509262,-3.0748462677001953,0.3239837884902954,-0.26022061705589294,0.2049347162246704,-0.06639844924211502
214,622840,622842,-0.02364913560450077,0.015792198479175568,0.9708675742149353,-3.439138174057007,0.33950158953666687,-0.15053613483905792,-0.06899654865264893,-3.0748462677001953,0.3239837884902954,-0.2521797716617584,0.18007130920886993,-0.06646011024713516
215,622850,622852,-0.006120656151324511,-0.020674243569374084,0.982111930847168,-2.5288965702056885,-0.7452794909477234,-0.05135589465498924,-0.0764961764216423,-3.079345941543579,0.3314834237098694,-0.17239587008953094,0.35348281264305115,-0.06186193227767944
216,622860,622862,0.0329180471599102,-0.0007352206739597023,1.0008708238601685,0.6594927906990051,-3.3835978507995605,-0.2560851573944092,-0.06899654865264893,-3.0718462467193604,0.3209839463233948,-0.13403666019439697,0.33443790674209595,-0.06172860413789749
217,622870,622872,-0.0665392056107521,-0.08821742236614227,0.9283208847045898,0.6795985102653503,-7.2754106521606445,0.9311714172363281,-0.07349632680416107,-3.0763461589813232,0.3224838674068451,-0.04979049041867256,0.1351408064365387,-0.06449935585260391
218,622880,622882,-0.012705127708613873,-0.03266321122646332,0.9600009322166443,-0.3070628046989441,-3.784245014190674,-0.36735799908638,-0.07499624788761139,-3.077846050262451,0.3329833447933197,-0.04296417534351349,0.1484021097421646,-0.06585144996643066
219,622890,622892,0.0022556628100574017,0.008668924681842327,0.9793378114700317,-0.8749337196350098,-2.1787238121032715,-0.8099798560142517,-0.0764961764216423,-3.0943453311920166,0.3254837095737457,0.003675563260912895,0.2858504056930542,-0.07097679376602173
220,622900,622902,-0.08799758553504944,-0.009210005402565002,1.0524834394454956,-1.3025660514831543,-2.987750291824341,-0.49324843287467957,-0.06749662756919861,-3.088345527648926,0.3224838674068451,0.037839554250240326,0.2676861584186554,-0.07777492702007294
221,622910,622912,-0.018397385254502296,-0.039460476487874985,1.0963903665542603,-1.2284116744995117,3.778883457183838,0.21891140937805176,-0.0764961764216423,-3.08534574508667,0.3134843111038208,0.023636847734451294,0.18344728648662567,-0.08409278839826584
222,622920,622922,-0.009146645665168762,-0.03368355333805084,1.007912039756775,0.7383893728256226,3.398189067840576,-0.21729011833667755,-0.06899654865264893,-3.0688464641571045,0.32698363065719604,-0.025659842416644096,0.2621018588542938,-0.08733920007944107
223,622930,622932,-0.0149891572073102,0.08282314240932465,0.9920339584350586,1.8287209272384644,4.743941783905029,-0.21509593725204468,-0.0659966990351677,-3.0688464641571045,0.32998350262641907,-0.012466681189835072,0.2111407369375229,-0.08771557360887527
224,622940,622942,-0.014015589840710163,0.10092047601938248,1.0378059148788452,-1.249801516532898,4.1966938972473145,-1.331586480140686,-0.07499624788761139,-3.0748462677001953,0.32698363065719604,-0.14503179490566254,0.2132391333580017,-0.0944463461637497
225,622950,622952,0.03430561721324921,0.01611792854964733,1.0603587627410889,-1.0970306396484375,4.13954496383667,-1.2999283075332642,-0.08099594712257385,-3.0748462677001953,0.3239837884902954,-0.1896263211965561,0.2640373408794403,-0.10443377494812012
226,622960,622962,0.09585243463516235,-0.05774389207363129,1.0219745635986328,-0.7696381211280823,5.168234348297119,-0.6276974678039551,-0.07049647718667984,-3.0673465728759766,0.3314834237098694,-0.15859946608543396,0.31244194507598877,-0.11034973710775375
227,622970,622972,0.1537061482667923,-0.029000479727983475,0.9750931859016418,-0.7101684808731079,3.440514087677002,0.19247905910015106,-0.06749662756919861,-3.0733463764190674,0.3224838674068451,-0.1828637272119522,0.2915802597999573,-0.11442779004573822
228,622980,622982,0.03507465869188309,-0.008601156063377857,0.9602407217025757,-3.8764970302581787,-5.048872470855713,0.20696446299552917,-0.07799609750509262,-3.0688464641571045,0.33598318696022034,-0.20120669901371002,0.24387376010417938,-0.11436382681131363
229,622990,622992,0.019826268777251244,-0.008498561568558216,0.9600617289543152,-2.417992115020752,-3.8336737155914307,-0.806150496006012,-0.06299684941768646,-3.080845832824707,0.3329833447933197,-0.10556409507989883,0.18710502982139587,-0.11098413914442062
230,623000,623002,0.08206472545862198,-0.06237329915165901,0.9900242686271667,-4.398146152496338,-2.2587108612060547,-0.9283241629600525,-0.07199639827013016,-3.0658466815948486,0.33598318696022034,-0.030569367110729218,0.12364520132541656,-0.11452871561050415
231,623010,623012,0.12171420454978943,-0.12875542044639587,0.9622148275375366,-5.823286533355713,-2.034573793411255,0.5089715719223022,-0.0764961764216423,-3.0763461589813232,0.3224838674068451,-0.10651586204767227,0.04265595227479935,-0.12528684735298157
232,623020,623022,0.04489954188466072,-0.07815150171518326,0.8801210522651672,-4.15610408782959,-2.392887592315674,1.0845588445663452,-0.06149692460894585,-3.0703463554382324,0.31948402523994446,-0.04390900209546089,-0.02974313497543335,-0.12102735787630081
233,623030,623032,-0.02057177945971489,0.11567474156618118,0.8882555961608887,-0.6531540155410767,-2.9640250205993652,0.40308842062950134,-0.0764961764216423,-3.0733463764190674,0.32848358154296875,0.07510584592819214,-0.05914388597011566,-0.11173901706933975
234,623040,623042,-0.11302720755338669,0.18866181373596191,0.9557893872261047,0.9131278395652771,-5.419877052307129,-0.6411448121070862,-0.058497074991464615,-3.079345941543579,0.31948402523994446,0.1258573979139328,-0.05205152556300163,-0.10999847948551178
235,623050,623052,-0.15839123725891113,0.11588754504919052,0.9957934021949768,2.8390393257141113,-3.8784427642822266,-0.49538522958755493,-0.07499624788761139,-3.0688464641571045,0.31798410415649414,0.17044620215892792,-0.011975497007369995,-0.11305412650108337
236,623060,623062,-0.10009200125932693,0.07395099848508835,1.0039680004119873,2.066793441772461,0.31764787435531616,0.20288851857185364,-0.06299684941768646,-3.077846050262451,0.3149842321872711,0.172263503074646,0.03595586493611336,-0.11510568857192993
237,623070,623072,-0.0694865882396698,0.05681304261088371,0.9676727652549744,2.831115484237671,1.1782710552215576,0.9303706884384155,-0.07799609750509262,-3.0718462467193604,0.30898454785346985,0.14353597164154053,-0.12356926500797272,-0.10694212466478348
238,623080,623082,-0.026576079428195953,0.007599894423037767,0.9592799544334412,0.3549053370952606,4.702110290527344,0.38831740617752075,-0.06899654865264893,-3.080845832824707,0.3329833447933197,0.08532311767339706,0.12279953807592392,-0.10813780874013901
239,623090,623092,-0.060419365763664246,0.044142648577690125,0.9854083061218262,2.849482774734497,1.573352575302124,-0.3871733844280243,-0.06899654865264893,-3.0718462467193604,0.3209839463233948,0.09703610092401505,0.14437362551689148,-0.10373706370592117
240,623100,623102,-0.04278417304158211,-0.030632834881544113,0.9998012781143188,1.7419224977493286,2.152736186981201,-0.9381049871444702,-0.06899654865264893,-3.083845853805542,0.32998350262641907,0.1206275224685669,0.10165367275476456,-0.10013028979301453
241,623110,623112,-0.0056615290232002735,-0.1749860942363739,0.9925479292869568,-1.1723393201828003,4.931283473968506,-0.6153163909912109,-0.06299684941768646,-3.0748462677001953,0.32698363065719604,0.05820932984352112,0.10112355649471283,-0.1048724427819252
242,623120,623122,-0.0019897054880857468,-0.08460133522748947,0.9458849430084229,-1.7143466472625732,3.150001287460327,0.6376838088035583,-0.056997150182724,-3.086845636367798,0.3209839463233948,0.07902920246124268,0.0770321786403656,-0.10837876796722412
243,623130,623132,-0.00427900580689311,-0.12355900555849075,0.8954766392707825,-2.164499282836914,0.4061301052570343,0.3947029709815979,-0.085495725274086,-3.08534574508667,0.3254837095737457,0.0471312589943409,0.11454437673091888,-0.10621216893196106
244,623140,623142,-0.06888306885957718,-0.13885313272476196,0.9253053069114685,-2.1864497661590576,-0.4756527245044708,-0.1163782998919487,-0.07049647718667984,-3.0733463764190674,0.3314834237098694,0.10390714555978775,0.07046708464622498,-0.10085652023553848
245,623150,623152,-0.04676467180252075,-0.1558498591184616,1.0265144109725952,-3.0849671363830566,0.7426921129226685,-0.5110186338424683,-0.0659966990351677,-3.083845853805542,0.3239837884902954,0.08312369138002396,0.026936598122119904,-0.09998466819524765
246,623160,623162,0.019460337236523628,-0.25828441977500916,1.0230200290679932,-3.2894842624664307,2.5101940631866455,0.6036355495452881,-0.0659966990351677,-3.0988450050354004,0.3239837884902954,0.048583317548036575,-0.021208109334111214,-0.10170339792966843
247,623170,623172,0.0009843276347965002,-0.2432367205619812,0.9659104943275452,-1.2655552625656128,1.1709588766098022,0.9362647533416748,-0.0659966990351677,-3.080845832824707,0.3209839463233948,0.0116380350664258,-0.052236158400774,-0.10106705874204636
248,623180,623182,-0.06028015539050102,-0.15701569616794586,0.9484166502952576,0.50871342420578,0.6540443301200867,0.3123868405818939,-0.06449677050113678,-3.079345941543579,0.31948402523994446,-0.01995832473039627,-0.05494005233049393,-0.10076280683279037
249,623190,623192,-0.11163057386875153,-0.1447167694568634,1.0405690670013428,1.6153773069381714,2.4662535190582275,-0.7625125050544739,-0.06299684941768646,-3.086845636367798,0.3239837884902954,-0.06562765687704086,-0.032836806029081345,-0.10595063865184784
250,623200,623202,0.007558831013739109,-0.12520907819271088,1.1060112714767456,1.0854103565216064,7.0543742179870605,0.021236374974250793,-0.06449677050113678,-3.0613467693328857,0.31948402523994446,-0.15419968962669373,-0.0051868935115635395,-0.11918371170759201
251,623210,623212,0.011999656446278095,-0.06134205311536789,1.070752501487732,3.5685818195343018,6.647881507873535,0.3231896460056305,-0.06749662756919861,-3.0673465728759766,0.31048446893692017,-0.11494898051023483,-0.031790561974048615,-0.12463471293449402
252,623220,623222,-0.021322179585695267,-0.08440952748060226,1.0115044116973877,3.145995616912842,2.218003034591675,-0.42193421721458435,-0.06299684941768646,-3.0718462467193604,0.3149842321872711,-0.18567447364330292,0.029132405295968056,-0.131631001830101
253,623230,623232,-0.04438702389597893,-0.0888744443655014,1.0429186820983887,0.5030225515365601,-0.7372907400131226,-1.6206873655319214,-0.05999699980020523,-3.0688464641571045,0.3119843900203705,-0.2071312814950943,0.1284470558166504,-0.14181822538375854
254,623240,623242,-0.024298878386616707,-0.09363697469234467,1.0813010931015015,-1.5084619522094727,0.3907601833343506,-1.0921275615692139,-0.07949602603912354,-3.082345724105835,0.3224838674068451,-0.2107044905424118,0.05142435431480408,-0.1543397307395935
255,623250,623252,0.0065099382773041725,-0.10046744346618652,1.0323026180267334,0.09521165490150452,-1.5434629917144775,-0.49679645895957947,-0.06449677050113678,-3.088345527648926,0.3224838674068451,-0.2629111111164093,0.053724370896816254,-0.16519694030284882
256,623260,623262,-0.07082674652338028,-0.0571848526597023,0.9727020859718323,-2.193211793899536,-4.572869777679443,-0.4405028223991394,-0.07799609750509262,-3.080845832824707,0.3329833447933197,-0.1427500694990158,0.036361537873744965,-0.1701020747423172
257,623270,623272,-0.1148424968123436,-0.11280283331871033,1.021708369255066,-4.364274024963379,-4.206173419952393,-0.9981598854064941,-0.07049647718667984,-3.0763461589813232,0.3314834237098694,-0.08343663066625595,-0.015301723964512348,-0.17404617369174957
258,623280,623282,-0.024470848962664604,-0.0878719761967659,1.1103700399398804,-3.797703504562378,1.2954833507537842,0.04297948628664017,-0.06899654865264893,-3.0748462677001953,0.33898305892944336,-0.07382795959711075,-0.07020047307014465,-0.1808931678533554
259,623290,623292,0.01532761100679636,-0.05186670273542404,1.0827223062515259,-0.3773961067199707,5.638021945953369,0.4445480406284332,-0.06899654865264893,-3.083845853805542,0.32998350262641907,-0.1353885531425476,-0.017592187970876694,-0.18236766755580902
260,623300,623302,-0.040383659303188324,0.06002137437462807,1.050304651260376,2.7034361362457275,5.47940731048584,0.03269984573125839,-0.07799609750509262,-3.0718462467193604,0.3209839463233948,-0.22389036417007446,-0.060970574617385864,-0.18090353906154633
261,623310,623312,-0.06795593351125717,0.07999280095100403,1.089032769203186,2.632809638977051,6.54239559173584,-1.1589144468307495,-0.07199639827013016,-3.086845636367798,0.3149842321872711,-0.25204312801361084,-0.015453715808689594,-0.18455125391483307
262,623320,623322,-0.04972505569458008,0.024089647457003593,1.0381494760513306,3.9344987869262695,3.1378729343414307,-0.48541727662086487,-0.08999549597501755,-3.0688464641571045,0.3239837884902954,-0.25947314500808716,0.04428437352180481,-0.19383524358272552
263,623330,623332,0.04930279031395912,0.08105115592479706,1.032894492149353,1.7086139917373657,5.428833484649658,0.154743492603302,-0.08399579674005508,-3.080845832824707,0.3209839463233948,-0.32914024591445923,0.08865587413311005,-0.19751469790935516
264,623340,623342,0.038125231862068176,0.13023993372917175,1.0211468935012817,0.8355756998062134,1.2066930532455444,-0.175457164645195,-0.09149542450904846,-3.0703463554382324,0.32848358154296875,-0.36810585856437683,0.1073312908411026,-0.19760532677173615
265,623350,623352,0.03305947408080101,0.05044364184141159,1.0289689302444458,-0.5736836194992065,-2.624476671218872,-0.38571494817733765,-0.08249587565660477,-3.079345941543579,0.3224838674068451,-0.34543681144714355,0.1066872701048851,-0.1998623162508011
266,623360,623362,-0.0006987711531110108,-0.04223378747701645,0.9914705753326416,-2.7307376861572266,-3.3476507663726807,-0.667680561542511,-0.07799609750509262,-3.0718462467193604,0.33598318696022034,-0.2963550388813019,0.07216354459524155,-0.20541512966156006
267,623370,623372,0.019226403906941414,-0.020850833505392075,1.0091381072998047,-3.3984389305114746,-2.67252779006958,-0.5373802781105042,-0.07199639827013016,-3.080845832824707,0.31798410415649414,-0.24959321320056915,0.018224257975816727,-0.21085286140441895
268,623380,623382,-0.07309851795434952,-0.005354727618396282,0.9791535139083862,-1.740979552268982,-1.8017792701721191,-0.5285907983779907,-0.06899654865264893,-3.083845853805542,0.3239837884902954,-0.21534402668476105,-0.018121890723705292,-0.21534645557403564
269,623390,623392,-0.029684681445360184,0.006627130787819624,0.9886128306388855,-1.7513158321380615,-0.023215414956212044,-0.6626087427139282,-0.06899654865264893,-3.0958452224731445,0.3239837884902954,-0.13273273408412933,0.026206064969301224,-0.21898621320724487
270,623400,623402,0.026602117344737053,0.025246741250157356,1.0189491510391235,-0.1487405151128769,2.3015992641448975,-1.096193552017212,-0.0764961764216423,-3.082345724105835,0.32848358154296875,-0.16305866837501526,0.005752438213676214,-0.22608432173728943
271,623410,623412,0.14070038497447968,0.05337022989988327,1.0470921993255615,1.8805783987045288,5.887033939361572,-0.43028488755226135,-0.07199639827013016,-3.083845853805542,0.3239837884902954,-0.235829159617424,0.02422480098903179,-0.2330777645111084
272,623420,623422,0.1231088638305664,0.11051303893327713,0.9817435145378113,2.101083517074585,6.893310070037842,0.11794277280569077,-0.08249587565660477,-3.079345941543579,0.3314834237098694,-0.3398068845272064,0.05478733405470848,-0.2361876368522644
273,623430,623432,0.02288459986448288,0.14592589437961578,0.9063807129859924,2.4751954078674316,4.449763298034668,-1.0081028938293457,-0.0764961764216423,-3.0763461589813232,0.3314834237098694,-0.42333984375,0.07992568612098694,-0.23806345462799072
274,623440,623442,0.02035496011376381,0.1437745988368988,0.9551662802696228,2.2339491844177246,1.2048786878585815,-1.751383662223816,-0.08249587565660477,-3.079345941543579,0.3314834237098694,-0.3921499252319336,0.11110977083444595,-0.24924404919147491
275,623450,623452,0.04726625606417656,0.0914558544754982,1.0072346925735474,0.09817618876695633,1.2841702699661255,-1.643415927886963,-0.06449677050113678,-3.079345941543579,0.3134843111038208,-0.4093463122844696,0.12362083792686462,-0.26510223746299744
276,623460,623462,0.09569629281759262,0.09886059165000916,0.9583163857460022,-1.286263346672058,0.4568064510822296,-0.3761625289916992,-0.06299684941768646,-3.0688464641571045,0.31798410415649414,-0.41387999057769775,0.1030992716550827,-0.2783893644809723
277,623470,623472,0.05078854784369469,0.08872270584106445,0.8868028521537781,-1.8936151266098022,-3.8272716999053955,-0.9039283990859985,-0.08249587565660477,-3.0703463554382324,0.31048446893692017,-0.3751550614833832,0.0728030800819397,-0.2845466434955597
278,623480,623482,-0.12214545905590057,0.05661469325423241,0.8851064443588257,-5.964940547943115,-5.516988754272461,-1.4820345640182495,-0.07199639827013016,-3.0748462677001953,0.32698363065719604,-0.30697497725486755,-0.004435908980667591,-0.2960944175720215
279,623490,623492,-0.32057374715805054,-0.06276282668113708,0.9283540844917297,-4.719979763031006,-3.7536919116973877,-1.262635588645935,-0.06299684941768646,-3.086845636367798,0.3239837884902954,-0.24266545474529266,-0.09297053515911102,-0.3084756135940552
280,623500,623502,-0.0846947580575943,-0.14240208268165588,0.9481379389762878,-3.094297170639038,-1.9512498378753662,-0.10740333050489426,-0.05399730056524277,-3.0748462677001953,0.3239837884902954,-0.2044438272714615,-0.08233412355184555,-0.31538671255111694
281,623510,623512,-0.0016984168905764818,-0.15732824802398682,0.8908215165138245,0.6651086807250977,-2.6248133182525635,-0.40395426750183105,-0.06299684941768646,-3.080845832824707,0.3149842321872711,-0.3176273703575134,0.03850718215107918,-0.3130824565887451
282,623520,623522,-0.08708595484495163,-0.1912451684474945,0.8978394865989685,1.634771466255188,-3.0711653232574463,-0.8685057759284973,-0.06899654865264893,-3.080845832824707,0.3149842321872711,-0.13717970252037048,-0.10301652550697327,-0.32348737120628357
283,623530,623532,-0.16577763855457306,-0.2300197184085846,0.9726074934005737,1.7469011545181274,0.41761910915374756,-0.7644888758659363,-0.06899654865264893,-3.0898454189300537,0.3239837884902954,-0.1398887038230896,-0.003578255185857415,-0.32935094833374023
284,623540,623542,-0.07573548704385757,-0.09689371287822723,0.996428370475769,0.6958128809928894,4.188399791717529,-0.7345035672187805,-0.07049647718667984,-3.0913453102111816,0.3134843111038208,-0.19007378816604614,0.011173086240887642,-0.33587226271629333
285,623550,623552,-0.09324128180742264,-0.042035751044750214,0.9498810172080994,2.272949695587158,2.5312411785125732,0.17238609492778778,-0.05999699980020523,-3.077846050262451,0.31798410415649414,-0.11149317771196365,0.027251826599240303,-0.34356072545051575
286,623560,623562,-0.07793983072042465,-0.1261666715145111,0.9745602011680603,-1.8994330167770386,2.9227941036224365,-1.229867935180664,-0.056997150182724,-3.0898454189300537,0.3209839463233948,-0.17298583686351776,0.015811707824468613,-0.3470134139060974
287,623570,623572,-0.032700590789318085,-0.25399354100227356,0.9922412037849426,-4.1604509353637695,5.3224334716796875,-1.2657546997070312,-0.058497074991464615,-3.0913453102111816,0.3134843111038208,-0.2499617040157318,-0.03654984012246132,-0.3596022129058838
288,623580,623582,0.028992006555199623,-0.08418898284435272,0.973753809928894,-3.294778823852539,2.4033632278442383,-0.525833010673523,-0.04949752241373062,-3.1003448963165283,0.3164841830730438,-0.2456052601337433,-0.09833274036645889,-0.3721601665019989
289,623590,623592,-0.0060118092224001884,0.03812580183148384,0.9921656847000122,-2.5896565914154053,1.5804333686828613,-0.6285147666931152,-0.058497074991464615,-3.088345527648926,0.3224838674068451,-0.2862212657928467,-0.1489536315202713,-0.3804072439670563
290,623600,623602,-0.024862417951226234,-0.05179254710674286,1.005420207977295,-1.6767857074737549,-0.9102842211723328,-0.4476606547832489,-0.05999699980020523,-3.086845636367798,0.3149842321872711,-0.4349426329135895,-0.11495938897132874,-0.3852653205394745
291,623610,623612,-0.004206523299217224,0.05045836791396141,0.9755382537841797,-0.7317612171173096,-2.0981225967407227,-0.9279240965843201,-0.06449677050113678,-3.0763461589813232,0.31048446893692017,-0.40707939863204956,-0.06861236691474915,-0.38938218355178833
292,623620,623622,-0.032045383006334305,0.09481782466173172,0.9452185034751892,3.242018938064575,-7.446071624755859,-1.3548845052719116,-0.05399730056524277,-3.0958452224731445,0.3059847056865692,-0.3324158489704132,-0.0555758997797966,-0.3985340893268585
293,623630,623632,-0.03296007961034775,0.04491829127073288,1.0087448358535767,1.0711486339569092,-5.0214362144470215,-0.8521317839622498,-0.06149692460894585,-3.079345941543579,0.3224838674068451,-0.23942093551158905,-0.03618910163640976,-0.41170260310173035
294,623640,623642,0.005138246342539787,0.13900808990001678,1.040549635887146,2.0549492835998535,-1.3441981077194214,-0.9152465462684631,-0.07349632680416107,-3.082345724105835,0.3224838674068451,-0.1922966092824936,-0.026529960334300995,-0.4201684296131134
295,623650,623652,-0.004806490149348974,0.3016461133956909,1.0247043371200562,0.5922906994819641,-3.4486613273620605,-1.7735923528671265,-0.0659966990351677,-3.0748462677001953,0.3119843900203705,-0.15576346218585968,-0.09356433153152466,-0.43134650588035583
296,623660,623662,-0.11137501150369644,0.23849180340766907,1.009830355644226,-2.891849994659424,-2.223224401473999,-2.6502249240875244,-0.06749662756919861,-3.0973451137542725,0.30748462677001953,-0.12286574393510818,-0.051571886986494064,-0.4446024000644684
297,623670,623672,-0.0728573277592659,0.10167471319437027,1.0192304849624634,-3.6962459087371826,2.0192716121673584,-0.5228424668312073,-0.0659966990351677,-3.080845832824707,0.32698363065719604,-0.1350090503692627,-0.11250222474336624,-0.4618869721889496
298,623680,623682,0.009518190287053585,0.2101713865995407,1.0379729270935059,-2.5548274517059326,1.1282682418823242,-0.12976470589637756,-0.0659966990351677,-3.0748462677001953,0.3209839463233948,-0.16926462948322296,-0.17490318417549133,-0.4667353928089142
299,623690,623692,-0.027957485988736153,0.14534923434257507,1.0440630912780762,-4.115450859069824,1.3330721855163574,-1.0945625305175781,-0.06749662756919861,-3.079345941543579,0.32848358154296875,-0.2014070302248001,-0.1631433069705963,-0.47033196687698364
300,623700,623702,0.1182846650481224,0.0713357999920845,1.1911141872406006,-1.7376527786254883,6.41690731048584,1.0868785381317139,-0.07049647718667984,-3.0763461589813232,0.32848358154296875,-0.29013776779174805,-0.21838553249835968,-0.4710395336151123
301,623710,623712,0.08027395606040955,0.21551513671875,1.0953649282455444,2.075942277908325,2.3679769039154053,0.7485496401786804,-0.0659966990351677,-3.080845832824707,0.3149842321872711,-0.35011738538742065,-0.22331954538822174,-0.4649538993835449
302,623720,623722,0.01976829208433628,0.06870949268341064,1.0575520992279053,1.520424485206604,-1.141441822052002,-1.0799717903137207,-0.07049647718667984,-3.0673465728759766,0.33448326587677,-0.347782164812088,-0.19699442386627197,-0.4658769965171814
303,623730,623732,0.07238113135099411,-0.02578657679259777,1.0942336320877075,1.3915594816207886,-2.2069485187530518,-0.9944317936897278,-0.07949602603912354,-3.0763461589813232,0.33448326587677,-0.30371132493019104,-0.17232204973697662,-0.4766443371772766
304,623740,623742,0.08667357265949249,-0.06718221306800842,1.0330932140350342,1.1189507246017456,-2.807201623916626,-0.1244196817278862,-0.07949602603912354,-3.0673465728759766,0.3224838674068451,-0.3852314054965973,-0.15594719350337982,-0.4820840656757355
305,623750,623752,0.0014711024705320597,-0.04533304646611214,0.9422905445098877,1.985517144203186,-5.866872787475586,-0.526262640953064,-0.08399579674005508,-3.0688464641571045,0.33598318696022034,-0.29245805740356445,-0.13103853166103363,-0.487811803817749
306,623760,623762,0.003978208173066378,-0.09309056401252747,1.0135406255722046,-0.37565872073173523,-4.776778697967529,-0.9371446371078491,-0.0659966990351677,-3.0628468990325928,0.33898305892944336,-0.19711102545261383,-0.11627134680747986,-0.4963701069355011
307,623770,623772,-0.0033201558981090784,-0.029798274859786034,1.0263200998306274,0.8028654456138611,-2.568046808242798,-0.8093132972717285,-0.06449677050113678,-3.0673465728759766,0.33748310804367065,-0.1322041153907776,-0.11263243854045868,-0.505481481552124
308,623780,623782,0.03182258829474449,0.05379068851470947,1.0106966495513916,-1.2174975872039795,0.6930795907974243,0.047069575637578964,-0.07949602603912354,-3.05834698677063,0.33448326587677,-0.17803601920604706,-0.12931887805461884,-0.5106095671653748
309,623790,623792,-0.12217837572097778,0.0913727730512619,0.9590380191802979,-1.5637158155441284,1.7891253232955933,-0.18164348602294922,-0.08849557489156723,-3.0613467693328857,0.3404829800128937,-0.2005654275417328,-0.1591886281967163,-0.5080749988555908
310,623800,623802,-0.05244335159659386,0.2036016434431076,1.032907247543335,-0.7233945727348328,1.017918348312378,-0.3512081205844879,-0.09749512374401093,-3.0613467693328857,0.3434828221797943,-0.21817201375961304,-0.17950277030467987,-0.5092664957046509
311,623810,623812,0.018133271485567093,0.24554620683193207,1.0938767194747925,-2.1621623039245605,1.670206904411316,0.2842996418476105,-0.08249587565660477,-3.052347421646118,0.33748310804367065,-0.235539510846138,-0.2081708461046219,-0.5108523964881897
312,623820,623822,-0.05819176137447357,0.2402198612689972,1.0185190439224243,-2.149319887161255,1.2094773054122925,0.2907315492630005,-0.07349632680416107,-3.055347204208374,0.34648266434669495,-0.2548636794090271,-0.24531593918800354,-0.5060948729515076
313,623830,623832,-0.05854981020092964,0.2926101088523865,0.9614591002464294,1.9747847318649292,-2.057635545730591,0.36073657870292664,-0.08099594712257385,-3.050847291946411,0.33898305892944336,-0.23977647721767426,-0.17388540506362915,-0.5010247230529785
314,623840,623842,-0.12359441071748734,0.24682112038135529,0.9523252844810486,1.393262267112732,-3.6193339824676514,0.2866663336753845,-0.08699564635753632,-3.056847095489502,0.33598318696022034,-0.1852213591337204,-0.23301784694194794,-0.4993512034416199
315,623850,623852,-0.12145518511533737,0.14231158792972565,1.0227349996566772,3.427034378051758,-2.9305434226989746,0.12405949831008911,-0.09299534559249878,-3.050847291946411,0.341982901096344,-0.11285460740327835,-0.1883116364479065,-0.4983244240283966
316,623860,623862,-0.05104823037981987,-0.009226903319358826,1.0481325387954712,3.6878364086151123,-1.0797038078308105,0.5158228278160095,-0.08699564635753632,-3.0658466815948486,0.33898305892944336,-0.0708451196551323,-0.1330229640007019,-0.49825987219810486
317,623870,623872,0.07047342509031296,-0.17438949644565582,1.012911081314087,3.4899799823760986,2.2326200008392334,0.6567452549934387,-0.09749512374401093,-3.0643467903137207,0.3404829800128937,-0.07548539340496063,-0.14567409455776215,-0.4951109290122986
318,623880,623882,0.048384565860033035,-0.08181699365377426,0.9728001356124878,3.703579902648926,2.342710494995117,0.4575411081314087,-0.07949602603912354,-3.052347421646118,0.33748310804367065,-0.11655685305595398,-0.0874408408999443,-0.4887066185474396
319,623890,623892,-0.03671424090862274,0.07773459702730179,0.9697709679603577,0.6414100527763367,1.8265091180801392,0.6271080374717712,-0.09149542450904846,-3.0613467693328857,0.3434828221797943,-0.12272842228412628,-0.05462269112467766,-0.48886293172836304
320,623900,623902,-0.020397678017616272,0.0370793454349041,0.9325231909751892,-0.26882657408714294,3.861860513687134,0.6079296469688416,-0.08699564635753632,-3.0688464641571045,0.33598318696022034,-0.02884422428905964,-0.19777600467205048,-0.48555988073349
321,623910,623912,-0.040782030671834946,-0.03178120031952858,0.895495593547821,-1.0636532306671143,3.2995638847351074,0.7764965295791626,-0.08699564635753632,-3.059846878051758,0.3329833447933197,-0.0869460329413414,-0.20193444192409515,-0.4785541296005249
322,623920,623922,-0.029919156804680824,0.009732617065310478,0.917416512966156,-0.3991483151912689,3.273850917816162,0.774594783782959,-0.07799609750509262,-3.059846878051758,0.33898305892944336,-0.1989397406578064,-0.20476366579532623,-0.46840548515319824
323,623930,623932,-0.02472718246281147,0.008825902827084064,0.9596797227859497,0.41728177666664124,1.4985705614089966,0.9733041524887085,-0.08849557489156723,-3.05834698677063,0.33748310804367065,-0.21868263185024261,-0.05823373794555664,-0.46036213636398315
324,623940,623942,-0.02021373249590397,-0.011702872812747955,0.9249657988548279,2.408574104309082,0.42500385642051697,0.8647598028182983,-0.07799609750509262,-3.059846878051758,0.33598318696022034,-0.08599911630153656,-0.10727372765541077,-0.45546936988830566
325,623950,623952,-0.0033529498614370823,0.019212566316127777,0.9364232420921326,3.7908825874328613,-0.6265857815742493,0.5740121006965637,-0.08699564635753632,-3.0658466815948486,0.32698363065719604,-0.0912267193198204,-0.051230598241090775,-0.4473671317100525
326,623960,623962,0.016521142795681953,0.013725697062909603,0.9498192667961121,5.171131610870361,-1.3108407258987427,0.5977091789245605,-0.07949602603912354,-3.0673465728759766,0.3434828221797943,-0.08410585671663284,-0.04906474053859711,-0.4415102005004883
327,623970,623972,-0.011512362398207188,-0.053299274295568466,0.9055426120758057,5.133541584014893,0.27626869082450867,0.32148420810699463,-0.0944952741265297,-3.0733463764190674,0.3314834237098694,-0.016246894374489784,-0.030215991660952568,-0.43647080659866333
328,623980,623982,-0.0281523410230875,-0.02871091291308403,0.8649265170097351,4.120014667510986,1.3424627780914307,0.36645033955574036,-0.07049647718667984,-3.0763461589813232,0.3254837095737457,-0.2513895034790039,0.05105220153927803,-0.42768314480781555
329,623990,623992,-0.0691903606057167,-2.1021111024310812e-05,0.8595336675643921,1.161993384361267,1.551924705505371,0.09692491590976715,-0.08399579674005508,-3.0748462677001953,0.32698363065719604,-0.2042820155620575,0.09189271181821823,-0.42507198452949524
330,624000,624002,-0.07159337401390076,0.08944407850503922,0.9676053524017334,-2.271313428878784,3.0052528381347656,0.14342135190963745,-0.07199639827013016,-3.0628468990325928,0.3209839463233948,0.035034749656915665,0.08660580962896347,-0.4265284538269043
331,624010,624012,-0.05158436298370361,0.1024228185415268,1.0156519412994385,-2.600226640701294,2.960277557373047,0.04125891625881195,-0.07199639827013016,-3.0628468990325928,0.3209839463233948,-0.032106827944517136,0.044797979295253754,-0.4233842194080353
332,624020,624022,-0.11214462667703629,0.02953670173883438,0.9492092132568359,-1.3735568523406982,2.888296127319336,0.0741286426782608,-0.07199639827013016,-3.0628468990325928,0.3209839463233948,-0.09067710489034653,0.020546941086649895,-0.4217756688594818
333,624030,624032,-0.14049285650253296,0.021655898541212082,0.9349597692489624,0.8360892534255981,2.8873202800750732,0.11543403565883636,-0.07199639827013016,-3.0628468990325928,0.3209839463233948,-0.07355720549821854,0.01689339429140091,-0.42054474353790283
334,624040,624042,-0.134153813123703,0.007788781076669693,0.977257251739502,2.6365833282470703,3.26544189453125,0.1899179369211197,-0.0764961764216423,-3.0763461589813232,0.3254837095737457,-0.1299857348203659,0.05284956097602844,-0.41880878806114197
335,624050,624052,-0.1154974177479744,-0.11199808865785599,1.010921835899353,2.6105923652648926,4.116093635559082,0.022502800449728966,-0.07049647718667984,-3.0673465728759766,0.3224838674068451,-0.04967046156525612,0.09548881649971008,-0.4174572825431824
336,624060,624062,-0.005040190648287535,-0.18317505717277527,1.0346922874450684,3.084113597869873,6.903146743774414,0.2633189260959625,-0.07199639827013016,-3.080845832824707,0.32698363065719604,-0.1543641835451126,0.14521943032741547,-0.41677600145339966
337,624070,624072,0.10700397193431854,-0.15749713778495789,1.022826075553894,1.5442770719528198,8.584187507629395,0.6778014302253723,-0.06749662756919861,-3.079345941543579,0.3134843111038208,-0.29603758454322815,0.18106025457382202,-0.4126647412776947
338,624080,624082,0.11698246747255325,-0.09612725675106049,0.9775194525718689,2.888845682144165,7.128406047821045,0.8491159677505493,-0.07049647718667984,-3.0703463554382324,0.3224838674068451,-0.3655458390712738,0.2163005769252777,-0.4043738543987274
339,624090,624092,0.05230363830924034,-0.06324676424264908,0.9648270606994629,0.45629575848579407,4.217095851898193,0.24884845316410065,-0.07499624788761139,-3.080845832824707,0.3239837884902954,-0.4650217294692993,0.24030189216136932,-0.3976576030254364
340,624100,624102,0.07748889178037643,-0.07730948179960251,1.0495731830596924,-1.1446599960327148,1.9162583351135254,-0.12406442314386368,-0.06299684941768646,-3.083845853805542,0.3209839463233948,-0.5138389468193054,0.22857600450515747,-0.3973352909088135
341,624110,624112,0.14003457129001617,-0.13317732512950897,1.0937349796295166,-3.314476490020752,0.2587519586086273,0.34758734703063965,-0.07199639827013016,-3.0748462677001953,0.3119843900203705,-0.3936075270175934,0.18477857112884521,-0.39632195234298706
342,624120,624122,0.09601765871047974,-0.011602075770497322,1.0540740489959717,-4.536384105682373,-5.987215518951416,-0.02140459418296814,-0.0659966990351677,-3.077846050262451,0.3239837884902954,-0.37100744247436523,0.11921342462301254,-0.39082327485084534
343,624130,624132,0.012648050673305988,-0.04006614908576012,0.9623522758483887,-2.3188297748565674,-4.267116069793701,0.07489269226789474,-0.08699564635753632,-3.0748462677001953,0.3239837884902954,-0.37209343910217285,0.062496740370988846,-0.39121830463409424
344,624140,624142,0.09554526954889297,-0.03446318209171295,1.0302252769470215,-3.7627673149108887,-3.0453619956970215,-0.18730460107326508,-0.06449677050113678,-3.0913453102111816,0.3164841830730438,-0.3961491286754608,0.018792815506458282,-0.39400333166122437
345,624150,624152,-0.0012030182406306267,-0.05058438703417778,0.988920271396637,-2.619744300842285,-2.1942713260650635,0.2290540635585785,-0.07199639827013016,-3.077846050262451,0.32698363065719604,-0.43611136078834534,-0.023334642872214317,-0.39725446701049805
346,624160,624162,0.0800526887178421,-0.004898320883512497,0.9826216101646423,-1.9157028198242188,1.9370498657226562,0.685133695602417,-0.06899654865264893,-3.0718462467193604,0.3239837884902954,-0.43413475155830383,-0.05281088873744011,-0.39424750208854675
347,624170,624172,0.05827278643846512,-0.0062348442152142525,0.905883252620697,3.5944812297821045,1.571277379989624,0.7616245746612549,-0.07949602603912354,-3.055347204208374,0.3254837095737457,-0.47293394804000854,-0.020879266783595085,-0.38554269075393677
348,624180,624182,0.02349502220749855,0.013303394429385662,0.9612240195274353,5.487236022949219,-0.4375998377799988,1.2679303884506226,-0.07499624788761139,-3.0628468990325928,0.3329833447933197,-0.47864168882369995,0.06036323308944702,-0.3768957853317261
349,624190,624192,0.03697539120912552,-0.05740542709827423,0.9964737892150879,6.26368522644043,0.08082874864339828,1.0178362131118774,-0.07199639827013016,-3.0748462677001953,0.32698363065719604,-0.4704149067401886,0.08890198171138763,-0.36597001552581787
350,624200,624202,0.04298986494541168,-0.08344052731990814,0.9413019418716431,4.063316822052002,0.4216777980327606,0.9370631575584412,-0.07199639827013016,-3.0688464641571045,0.3209839463233948,-0.47796568274497986,0.16873735189437866,-0.35449934005737305
351,624210,624212,0.02680026739835739,0.015929732471704483,0.9257723689079285,3.0145397186279297,-0.9796176552772522,0.6326249241828918,-0.07049647718667984,-3.0673465728759766,0.31948402523994446,-0.47714072465896606,0.1523739993572235,-0.34587469696998596
352,624220,624222,-0.06136465072631836,0.042144663631916046,0.9511286020278931,1.2121940851211548,-3.359550714492798,0.09312497079372406,-0.05999699980020523,-3.083845853805542,0.31798410415649414,-0.43821462988853455,0.1933070421218872,-0.33879128098487854
353,624230,624232,0.01699979230761528,0.057125262916088104,1.058241844177246,-2.0044898986816406,-3.24837589263916,0.6270397305488586,-0.05999699980020523,-3.0748462677001953,0.33598318696022034,-0.3877805769443512,0.1833314299583435,-0.3362017571926117
354,624240,624242,0.012406392954289913,-0.02813723310828209,1.037217378616333,-2.234266996383667,-3.668118476867676,0.4863756000995636,-0.07199639827013016,-3.077846050262451,0.32998350262641907,-0.3392750322818756,0.15138377249240875,-0.3268220126628876
355,624250,624252,0.0006189224077388644,0.04977064207196236,1.021822214126587,-2.8248801231384277,-4.257402420043945,0.3919409215450287,-0.05399730056524277,-3.077846050262451,0.30898454785346985,-0.33904531598091125,0.18243443965911865,-0.3202739953994751
356,624260,624262,-0.045172546058893204,-0.0015620363410562277,0.9748584628105164,-3.4708337783813477,-2.016732931137085,0.3256061375141144,-0.0659966990351677,-3.0748462677001953,0.31798410415649414,-0.28582945466041565,0.060876891016960144,-0.3198096454143524
357,624270,624272,0.0334186777472496,0.11640461534261703,1.0717540979385376,-2.63376522064209,-0.9182561039924622,-0.10188205540180206,-0.0659966990351677,-3.080845832824707,0.3239837884902954,-0.254802405834198,0.019584044814109802,-0.31775233149528503
358,624280,624282,0.10528570413589478,0.14965921640396118,1.0979353189468384,-1.4159460067749023,-0.07228488475084305,0.14384065568447113,-0.06899654865264893,-3.083845853805542,0.3239837884902954,-0.25063085556030273,-0.008158927783370018,-0.3168524205684662
359,624290,624292,0.04311232268810272,0.08083368837833405,1.0486578941345215,1.943893313407898,-0.8035659193992615,0.3115167021751404,-0.08399579674005508,-3.0748462677001953,0.3239837884902954,-0.31948423385620117,0.0730118677020073,-0.31187960505485535
360,624300,624302,-0.005594517104327679,0.025280537083745003,1.042209267616272,4.3155364990234375,-1.4438917636871338,0.36611708998680115,-0.07499624788761139,-3.080845832824707,0.31798410415649414,-0.2934248447418213,0.058361709117889404,-0.3089268207550049
361,624310,624312,0.018381033092737198,0.08300422132015228,1.0973572731018066,5.191967010498047,-1.8920183181762695,0.44322171807289124,-0.08099594712257385,-3.083845853805542,0.3239837884902954,-0.26499462127685547,0.13651715219020844,-0.3040660321712494
362,624320,624322,-0.15498694777488708,-0.001283487188629806,1.0806734561920166,3.737248659133911,-0.3177838921546936,0.6030102372169495,-0.0764961764216423,-3.079345941543579,0.3314834237098694,-0.25745025277137756,0.19802755117416382,-0.2928342819213867
363,624330,624332,-0.16166694462299347,-0.08327467739582062,0.992242157459259,1.5847201347351074,-0.1594727784395218,0.31903159618377686,-0.07349632680416107,-3.08534574508667,0.3254837095737457,-0.24687018990516663,0.23741202056407928,-0.2892581522464752
364,624340,624342,0.02041824348270893,0.03399738669395447,1.046773076057434,-0.26600122451782227,-0.4445696771144867,0.013303076848387718,-0.06749662756919861,-3.079345941543579,0.31948402523994446,-0.16524456441402435,0.11078409105539322,-0.29000598192214966
365,624350,624352,-0.03533507138490677,0.022187042981386185,1.012520670890808,-3.3604581356048584,-1.0565835237503052,0.5389301180839539,-0.08249587565660477,-3.088345527648926,0.32848358154296875,-0.3610936403274536,0.161330908536911,-0.29471132159233093
366,624360,624362,-0.033608268946409225,0.01983281970024109,1.0168266296386719,-2.7529361248016357,-1.7770006656646729,0.7513428926467896,-0.07349632680416107,-3.0763461589813232,0.3164841830730438,-0.1765129715204239,0.04311719909310341,-0.2885352075099945
367,624370,624372,-0.023431874811649323,-0.02901514060795307,1.0126104354858398,-3.0330004692077637,-1.602339744567871,0.48671165108680725,-0.05249737575650215,-3.0943453311920166,0.32848358154296875,-0.14706279337406158,0.0015004726592451334,-0.28309786319732666
368,624380,624382,-0.0029162520077079535,0.029107851907610893,1.0560365915298462,-2.9061570167541504,-2.756033182144165,0.04691869020462036,-0.06899654865264893,-3.077846050262451,0.3149842321872711,-0.17676599323749542,0.1778055876493454,-0.27651485800743103
369,624390,624392,0.01811298355460167,0.007562687620520592,1.0834888219833374,1.986617922782898,-3.4683890342712402,-0.01508970558643341,-0.07499624788761139,-3.083845853805542,0.3149842321872711,-0.2032438963651657,0.09187930822372437,-0.27768754959106445
370,624400,624402,-0.0223312359303236,0.0452742800116539,1.0103213787078857,2.2379226684570312,-2.049143075942993,-0.08250986784696579,-0.0764961764216423,-3.082345724105835,0.3254837095737457,-0.14681820571422577,0.12826061248779297,-0.27885743975639343
371,624410,624412,-0.030604200437664986,-0.021127507090568542,1.027580976486206,3.7015702724456787,-0.3606887459754944,-0.40441450476646423,-0.047997597604990005,-3.0898454189300537,0.31798410415649414,-0.11909837275743484,0.17820589244365692,-0.28043195605278015
372,624420,624422,-0.03562098741531372,-0.024892790243029594,1.038907527923584,2.7170889377593994,1.5595371723175049,-0.38260266184806824,-0.06449677050113678,-3.0703463554382324,0.3224838674068451,-0.045421794056892395,0.07730452716350555,-0.2832207679748535
373,624430,624432,-0.09354201704263687,-0.004088074434548616,1.022621989250183,0.9955518841743469,1.567253828048706,-0.19317269325256348,-0.06899654865264893,-3.0928452014923096,0.31798410415649414,-0.13288182020187378,0.18723610043525696,-0.28955790400505066
374,624440,624442,-0.2147166132926941,-0.36191895604133606,0.981286346912384,0.0858168825507164,2.9505064487457275,0.025756219401955605,-0.06749662756919861,-3.079345941543579,0.3224838674068451,-0.15864166617393494,0.2654571235179901,-0.2926364839076996
375,624450,624452,-0.03699968755245209,-0.3262159824371338,1.0789211988449097,0.4205572307109833,1.6043065786361694,0.1842835396528244,-0.06749662756919861,-3.0703463554382324,0.3224838674068451,-0.18328213691711426,0.271108478307724,-0.2882080674171448
376,624460,624462,0.028026899322867393,-0.15259437263011932,1.0880248546600342,-1.2067011594772339,0.1842411458492279,0.1448764055967331,-0.06749662756919861,-3.08534574508667,0.3164841830730438,-0.1908540278673172,0.24756348133087158,-0.28574079275131226
377,624470,624472,0.06767058372497559,-0.09491068124771118,1.0496281385421753,-2.1909661293029785,-0.5327185392379761,0.3711760342121124,-0.07199639827013016,-3.0718462467193604,0.3239837884902954,-0.1876254379749298,0.2066217064857483,-0.2769957482814789
378,624480,624482,-0.02332751825451851,-0.014273696579039097,1.0289864540100098,-3.0637800693511963,-3.289048671722412,0.21786682307720184,-0.06299684941768646,-3.077846050262451,0.3149842321872711,-0.14824612438678741,0.15505577623844147,-0.27065950632095337
379,624490,624492,-0.07513195276260376,-0.09204387664794922,1.0375430583953857,-3.2909703254699707,-4.861584186553955,-0.00012443390733096749,-0.06749662756919861,-3.088345527648926,0.3224838674068451,-0.06435355544090271,0.09731742739677429,-0.2706988453865051
380,624500,624502,-0.01925690658390522,-0.22048239409923553,1.0177011489868164,-1.8380873203277588,-4.649020195007324,-0.47370362281799316,-0.06299684941768646,-3.0658466815948486,0.32698363065719604,0.021677114069461823,0.12506595253944397,-0.27319878339767456
381,624510,624512,-0.09433654695749283,-0.2394426017999649,0.952515184879303,-1.09707772731781,-3.4531004428863525,-0.09993822127580643,-0.06299684941768646,-3.080845832824707,0.32698363065719604,0.09081526100635529,0.16085213422775269,-0.27260977029800415
382,624520,624522,-0.1273002177476883,-0.21438615024089813,0.9800918698310852,0.06834252178668976,-0.5529404282569885,-0.004936949349939823,-0.06449677050113678,-3.0763461589813232,0.31948402523994446,0.1353321373462677,0.1450778990983963,-0.2702854871749878
383,624530,624532,-0.0899069756269455,-0.2288147658109665,1.0303928852081299,-1.4105395078659058,3.673157215118408,-0.1668480932712555,-0.0659966990351677,-3.080845832824707,0.3149842321872711,0.11897607147693634,0.12655441462993622,-0.2706719636917114
384,624540,624542,-0.08717460185289383,-0.15652599930763245,1.0175144672393799,-1.9804656505584717,7.512309551239014,-0.11748088151216507,-0.07049647718667984,-3.0703463554382324,0.3224838674068451,0.2324519008398056,0.08204387128353119,-0.261025071144104
385,624550,624552,-0.08711625635623932,-0.37164607644081116,0.9806808829307556,-2.726247787475586,10.111076354980469,-0.1642879843711853,-0.0659966990351677,-3.086845636367798,0.3239837884902954,0.0034174600150436163,0.04395504668354988,-0.2600109577178955
386,624560,624562,-0.028548693284392357,-0.44111236929893494,1.0211143493652344,-1.8902099132537842,9.464871406555176,-0.1894562840461731,-0.07049647718667984,-3.082345724105835,0.33448326587677,-0.07720634341239929,0.005169403273612261,-0.2619321644306183
387,624570,624572,-0.005425761919468641,-0.11352762579917908,1.0050816535949707,-1.7212501764297485,7.787870407104492,0.15770551562309265,-0.06299684941768646,-3.080845832824707,0.31798410415649414,-0.1487257480621338,-0.028435463085770607,-0.2618984282016754
388,624580,624582,-0.013182483613491058,-0.05227508768439293,0.9928814768791199,-1.6589844226837158,4.356411933898926,0.6969211101531982,-0.07349632680416107,-3.0673465728759766,0.31048446893692017,-0.181340292096138,0.14888733625411987,-0.26110002398490906
389,624590,624592,-0.08996357768774033,-0.006340883672237396,0.9719468355178833,-1.4617043733596802,0.8824000358581543,1.0184059143066406,-0.07199639827013016,-3.077846050262451,0.3119843900203705,-0.21773415803909302,0.1095026433467865,-0.2534986436367035
390,624600,624602,-0.11763919144868851,-0.1343136429786682,0.9605088233947754,-1.2880192995071411,-1.7597664594650269,0.9547017216682434,-0.07049647718667984,-3.079345941543579,0.32848358154296875,-0.1960040032863617,0.0772492066025734,-0.24660028517246246
391,624610,624612,-0.029758593067526817,-0.09733805060386658,1.0030958652496338,-1.3436650037765503,-3.2222650051116943,1.0698086023330688,-0.05549722537398338,-3.0733463764190674,0.31048446893692017,-0.15601429343223572,0.033102359622716904,-0.24121315777301788
392,624620,624622,-0.025983735918998718,-0.07438120245933533,0.9817847609519958,-0.9217620491981506,-3.392657995223999,1.0947964191436768,-0.056997150182724,-3.0898454189300537,0.31798410415649414,-0.10960475355386734,0.004813301842659712,-0.2303900569677353
393,624630,624632,-0.11924844980239868,-0.144118070602417,0.9346169829368591,-3.192903757095337,-1.7055046558380127,0.8932417631149292,-0.06749662756919861,-3.0733463764190674,0.32848358154296875,-0.058034345507621765,0.025189343839883804,-0.22129416465759277
394,624640,624642,-0.09006752818822861,-0.1503397524356842,0.9759989380836487,-5.061952590942383,1.0976166725158691,1.0193146467208862,-0.05549722537398338,-3.08534574508667,0.31048446893692017,-0.11392203718423843,-0.05522625520825386,-0.21431276202201843
395,624650,624652,0.013081050477921963,-0.11699091643095016,0.9957736134529114,-3.4220693111419678,3.6727712154388428,1.1739702224731445,-0.06899654865264893,-3.0898454189300537,0.30898454785346985,-0.09316753596067429,-0.06820757687091827,-0.20182731747627258
396,624660,624662,-0.2849271595478058,-0.10137995332479477,0.9357166886329651,-4.3318257331848145,6.164857387542725,1.0989378690719604,-0.06299684941768646,-3.086845636367798,0.3059847056865692,-0.18140916526317596,-0.13639642298221588,-0.1862434595823288
397,624670,624672,-0.20270998775959015,-0.20761658251285553,0.9441739320755005,-3.239549160003662,6.549743175506592,0.8700736165046692,-0.056997150182724,-3.0718462467193604,0.3209839463233948,-0.2776518166065216,-0.2687932550907135,-0.1797923743724823
398,624680,624682,0.020239049568772316,-0.07677973061800003,1.0061956644058228,-1.440553069114685,5.51201868057251,1.0274239778518677,-0.04649767279624939,-3.079345941543579,0.3134843111038208,-0.2318190336227417,-0.3042084276676178,-0.17651399970054626
399,624690,624692,0.004385198000818491,0.019106512889266014,0.9175410866737366,0.6211352944374084,3.1356985569000244,1.2083051204681396,-0.06449677050113678,-3.079345941543579,0.2924853563308716,-0.3145653009414673,-0.30169305205345154,-0.16766400635242462
400,624700,624702,-0.0656735748052597,0.09274529665708542,0.9586052894592285,3.4641144275665283,-1.3314396142959595,1.355168342590332,-0.06299684941768646,-3.0748462677001953,0.3149842321872711,-0.31875157356262207,-0.2562352120876312,-0.16143570840358734
401,624710,624712,-0.036724429577589035,0.11136084794998169,1.0270178318023682,4.4637980461120605,-3.269091844558716,1.2631759643554688,-0.05249737575650215,-3.08534574508667,0.2954852283000946,-0.20348888635635376,-0.19107161462306976,-0.15657493472099304
402,624720,624722,0.048623066395521164,0.055045608431100845,1.0257940292358398,4.446719169616699,-4.088379383087158,1.5479247570037842,-0.05999699980020523,-3.080845832824707,0.3239837884902954,-0.15950877964496613,-0.05415402725338936,-0.14409172534942627
403,624730,624732,0.005692214239388704,0.12421810626983643,1.0140622854232788,4.995450019836426,-4.1110615730285645,0.9773682355880737,-0.06299684941768646,-3.083845853805542,0.3119843900203705,-0.1084495484828949,0.01938856765627861,-0.12540534138679504
404,624740,624742,-0.05537615343928337,0.12913140654563904,1.0256279706954956,3.057194232940674,-2.7880184650421143,0.6246105432510376,-0.07349632680416107,-3.088345527648926,0.31948402523994446,-0.061042316257953644,0.07294072210788727,-0.11817261576652527
405,624750,624752,0.055650241672992706,0.14942975342273712,1.1213797330856323,-2.6499149799346924,2.6854138374328613,0.7943299412727356,-0.06149692460894585,-3.079345941543579,0.3134843111038208,-0.1047043651342392,0.04936152696609497,-0.107511967420578
406,624760,624762,-0.010238447226583958,0.15091952681541443,1.0595391988754272,-5.6211113929748535,4.874719142913818,1.2248049974441528,-0.0659966990351677,-3.0688464641571045,0.3239837884902954,-0.12137052416801453,-0.034155815839767456,-0.0949913039803505
407,624770,624772,-0.04931345582008362,0.046056922525167465,1.0964373350143433,-8.808084487915039,5.694746971130371,1.0197649002075195,-0.06899654865264893,-3.0718462467193604,0.3239837884902954,-0.20752280950546265,-0.1669471263885498,-0.08502057939767838
408,624780,624782,-0.023538997396826744,-0.007623585872352123,1.0930671691894531,-7.005605220794678,5.376270771026611,1.434799075126648,-0.07799609750509262,-3.0688464641571045,0.32698363065719604,-0.29850897192955017,-0.3033628463745117,-0.06975492835044861
409,624790,624792,-0.07807056605815887,-0.046321138739585876,1.020249605178833,-5.088665008544922,5.5621867179870605,1.4713772535324097,-0.08099594712257385,-3.0748462677001953,0.32998350262641907,-0.3890020251274109,-0.39434054493904114,-0.05428515002131462
410,624800,624802,-0.06941904127597809,-0.026801053434610367,1.0733652114868164,1.906323790550232,2.579862117767334,1.6631050109863281,-0.07199639827013016,-3.0448477268218994,0.3329833447933197,-0.43701931834220886,-0.3359968960285187,-0.03472865745425224
411,624810,624812,-0.036617740988731384,-0.11793219298124313,1.0974401235580444,6.649309158325195,1.0558634996414185,1.480804681777954,-0.07349632680416107,-3.0673465728759766,0.3314834237098694,-0.4557032585144043,-0.26697102189064026,-0.01685301959514618
412,624820,624822,0.0241084061563015,-0.11800103634595871,1.0321509838104248,8.529947280883789,0.5804634094238281,1.6461364030838013,-0.09149542450904846,-3.0643467903137207,0.3434828221797943,-0.4022236168384552,-0.1467103362083435,0.001226781285367906
413,624830,624832,-0.03388698026537895,-0.09242554008960724,0.9671038389205933,8.682951927185059,-0.07129764556884766,1.8229711055755615,-0.07799609750509262,-3.0448477268218994,0.33598318696022034,-0.4093131721019745,-0.016475871205329895,0.022706955671310425
414,624840,624842,-0.07761027663946152,-0.02644965797662735,0.9747894406318665,7.447196006774902,-1.3604472875595093,2.11755633354187,-0.085495725274086,-3.05834698677063,0.3404829800128937,-0.38764461874961853,0.03376234322786331,0.04181324690580368
415,624850,624852,-0.03401324525475502,-0.006959361489862204,0.9771665334701538,1.8199148178100586,-1.1562249660491943,1.9758508205413818,-0.09299534559249878,-3.053847312927246,0.32698363065719604,-0.36867615580558777,0.030840743333101273,0.061368100345134735
416,624860,624862,-0.00019559747306630015,-0.0019139234209433198,0.9892269372940063,-2.1159827709198,-0.8155131936073303,2.0685386657714844,-0.08999549597501755,-3.053847312927246,0.341982901096344,-0.28397244215011597,0.09527737647294998,0.08068212121725082
417,624870,624872,-0.02641480602324009,-0.005344505421817303,0.9885647892951965,-4.817660331726074,-0.3077419698238373,2.1159512996673584,-0.085495725274086,-3.052347421646118,0.3404829800128937,-0.2787730395793915,0.026862092316150665,0.10203510522842407
418,624880,624882,-0.04646620154380798,0.08135581016540527,0.9729526042938232,-7.083920001983643,1.0804712772369385,1.947081208229065,-0.10349482297897339,-3.052347421646118,0.3434828221797943,-0.28451618552207947,-0.07693715393543243,0.12149602174758911
419,624890,624892,-0.06561245024204254,0.11479971557855606,0.9738107323646545,-7.15044641494751,1.511116862297058,1.7413767576217651,-0.08399579674005508,-3.0448477268218994,0.33598318696022034,-0.36733460426330566,-0.19632354378700256,0.1371118724346161
420,624900,624902,-0.05977818742394447,0.025755614042282104,0.9647679924964905,-5.3562798500061035,2.747454881668091,1.3250843286514282,-0.10049497336149216,-3.052347421646118,0.3434828221797943,-0.3307247757911682,-0.15357226133346558,0.14988666772842407
421,624910,624912,0.05392138659954071,-0.06433950364589691,0.9681055545806885,-2.5809640884399414,2.801473617553711,1.4282993078231812,-0.08249587565660477,-3.055347204208374,0.3404829800128937,-0.3902592062950134,-0.22107382118701935,0.15931446850299835
422,624920,624922,0.10778220742940903,-0.07120593637228012,0.965489387512207,0.2178008109331131,1.5597580671310425,1.6466237306594849,-0.08399579674005508,-3.059846878051758,0.3509824573993683,-0.44782885909080505,-0.24181288480758667,0.17116883397102356
423,624930,624932,-0.015334469266235828,-0.012341444380581379,0.914975643157959,6.340876579284668,-1.059268593788147,1.4587904214859009,-0.09299534559249878,-3.0478475093841553,0.341982901096344,-0.4537389874458313,-0.18534456193447113,0.1886078119277954
424,624940,624942,-0.000760518538299948,0.004000432789325714,0.9310048222541809,6.753363609313965,-1.166064739227295,1.520485281944275,-0.08699564635753632,-3.0688464641571045,0.33598318696022034,-0.43940597772598267,-0.09151967614889145,0.20472051203250885
425,624950,624952,-0.00044279207941144705,0.002411584137007594,0.9224585890769958,7.087458610534668,-0.9550162553787231,1.3590903282165527,-0.08249587565660477,-3.0613467693328857,0.33448326587677,-0.35252514481544495,-0.05083232745528221,0.21586187183856964
426,624960,624962,-0.02290847897529602,-0.01079439278692007,0.9132367372512817,5.552241802215576,-0.3238770663738251,0.8629445433616638,-0.08699564635753632,-3.056847095489502,0.3329833447933197,-0.3442084789276123,0.046913549304008484,0.22938482463359833
427,624970,624972,-0.07107535004615784,0.03238387033343315,0.9468665719032288,1.3252239227294922,0.15036752820014954,0.6557773351669312,-0.0764961764216423,-3.05834698677063,0.3254837095737457,-0.3350454866886139,0.09403110295534134,0.23739135265350342
428,624980,624982,-0.25625061988830566,0.07099746912717819,0.9576612114906311,0.20853492617607117,0.5884231925010681,0.20814968645572662,-0.085495725274086,-3.05834698677063,0.3314834237098694,-0.32273513078689575,0.09818337112665176,0.2371329516172409
429,624990,624992,-0.06318061798810959,0.001787391141988337,0.9232269525527954,-3.8156464099884033,1.467841386795044,0.2130853831768036,-0.08999549597501755,-3.059846878051758,0.3329833447933197,-0.33614781498908997,0.058954935520887375,0.237714022397995
430,625000,625002,0.014737308956682682,-0.02495720237493515,0.9267778992652893,-7.355458736419678,2.146681308746338,0.3586393892765045,-0.0764961764216423,-3.05834698677063,0.34648266434669495,-0.366934210062027,-0.040427837520837784,0.23785938322544098
431,625010,625012,0.11958577483892441,-0.12440134584903717,0.9197620153427124,-6.158560752868652,1.4921290874481201,0.3590314984321594,-0.0764961764216423,-3.0643467903137207,0.3314834237098694,-0.42070040106773376,-0.1463324874639511,0.24302086234092712
432,625020,625022,0.13143523037433624,-0.03172110393643379,0.8995039463043213,-6.336523532867432,-0.19996674358844757,0.4075044095516205,-0.0944952741265297,-3.0643467903137207,0.33748310804367065,-0.45547914505004883,-0.17428448796272278,0.25278446078300476
433,625030,625032,0.06518218666315079,0.12703269720077515,0.9433751702308655,-2.066763401031494,-3.207745313644409,0.4859484136104584,-0.085495725274086,-3.055347204208374,0.3254837095737457,-0.43990573287010193,-0.17115356028079987,0.2640134394168854
434,625040,625042,-0.03977864235639572,0.07418962568044662,0.9241746664047241,-0.4951683282852173,-5.4970221519470215,0.6201769113540649,-0.07499624788761139,-3.0658466815948486,0.3329833447933197,-0.37374362349510193,-0.1964786797761917,0.267916202545166
435,625050,625052,-0.058784931898117065,0.2064274549484253,0.9413589239120483,4.606915473937988,-6.614589214324951,0.44620847702026367,-0.07499624788761139,-3.0688464641571045,0.32698363065719604,-0.26816850900650024,-0.16566865146160126,0.274546355009079
436,625060,625062,-0.02019190974533558,0.027628015726804733,0.9517818689346313,6.043781280517578,-5.470549583435059,0.050047241151332855,-0.07049647718667984,-3.0733463764190674,0.31948402523994446,-0.2440997213125229,-0.01789703778922558,0.28203657269477844
437,625070,625072,-0.05216977372765541,-0.04979141801595688,0.9325870275497437,5.725093364715576,-1.906531572341919,-0.02303052693605423,-0.07349632680416107,-3.0643467903137207,0.3224838674068451,-0.18830014765262604,-0.07798565179109573,0.27712714672088623
438,625080,625082,-0.018763123080134392,-0.03820498287677765,0.991916835308075,4.45844841003418,1.046141505241394,-0.6340287327766418,-0.056997150182724,-3.0748462677001953,0.32698363065719604,-0.18512701988220215,-0.0668562799692154,0.27162426710128784
439,625090,625092,0.019497167319059372,-0.005793019197881222,0.9733973145484924,1.8521579504013062,3.910353899002075,-0.7912815809249878,-0.06299684941768646,-3.0658466815948486,0.3239837884902954,-0.23557467758655548,-0.02747977152466774,0.26692745089530945
440,625100,625102,0.0289610642939806,-0.13302795588970184,0.9378110766410828,-1.8597835302352905,4.213626861572266,-0.9057056903839111,-0.05999699980020523,-3.080845832824707,0.32698363065719604,-0.24128751456737518,-0.027258113026618958,0.2638227045536041
441,625110,625112,0.02294364757835865,-0.026613395661115646,0.9781550765037537,-3.5146830081939697,4.13895320892334,-0.5833775401115417,-0.06749662756919861,-3.0763461589813232,0.31948402523994446,-0.31204721331596375,0.002619002712890506,0.2575730085372925
442,625120,625122,-0.01704532466828823,-0.08823093771934509,0.9823679327964783,-3.039759635925293,1.445378065109253,-0.6360180974006653,-0.058497074991464615,-3.0763461589813232,0.3254837095737457,-0.35365501046180725,-0.06054534763097763,0.253545880317688
443,625130,625132,-0.001125024282373488,-0.15253935754299164,1.0123786926269531,-2.056448221206665,-1.5650957822799683,-0.6489326357841492,-0.07949602603912354,-3.0703463554382324,0.3164841830730438,-0.35418760776519775,-0.10825157910585403,0.2481960952281952
444,625140,625142,0.08549681305885315,-0.12010674923658371,1.0238215923309326,1.0280840396881104,-4.598561763763428,-0.7196168303489685,-0.06899654865264893,-3.0718462467193604,0.32998350262641907,-0.3171219229698181,-0.11538160592317581,0.24667829275131226
445,625150,625152,0.036528877913951874,-0.05641113594174385,0.9904171228408813,1.5512678623199463,-5.910548210144043,-0.6763451099395752,-0.06449677050113678,-3.0763461589813232,0.3224838674068451,-0.2526822090148926,-0.10207127034664154,0.24509155750274658
446,625160,625162,-0.1086721122264862,0.04111072048544884,1.0006227493286133,2.3781206607818604,-6.172650337219238,-0.7545273900032043,-0.06149692460894585,-3.0763461589813232,0.3044847846031189,-0.23638758063316345,-0.07228632271289825,0.2436557561159134
447,625170,625172,-0.07167591154575348,0.09731002151966095,1.0542246103286743,3.276970386505127,-6.205737590789795,-0.5869338512420654,-0.07049647718667984,-3.079345941543579,0.3224838674068451,-0.13627947866916656,-0.023314181715250015,0.23662668466567993
448,625180,625182,0.015474255196750164,0.07492085546255112,1.106810212135315,1.1800436973571777,-4.1997294425964355,-0.8078538179397583,-0.06449677050113678,-3.0673465728759766,0.31948402523994446,-0.0718643069267273,-0.0010425596265122294,0.22746945917606354
449,625190,625192,0.04194529727101326,0.12137016654014587,1.0669260025024414,0.9581776857376099,-2.0366482734680176,-0.542294979095459,-0.07199639827013016,-3.0688464641571045,0.32998350262641907,-0.05168047919869423,0.07740358263254166,0.2215849757194519
450,625200,625202,-0.021672246977686882,0.1328243464231491,0.9606553912162781,1.1199829578399658,1.0602458715438843,-0.4358796775341034,-0.07499624788761139,-3.0748462677001953,0.3239837884902954,-0.13346585631370544,0.08248584717512131,0.21820907294750214
451,625210,625212,-0.08585184812545776,0.10935904830694199,0.9896270036697388,1.6188045740127563,2.640953779220581,-0.6107319593429565,-0.06899654865264893,-3.0688464641571045,0.3209839463233948,-0.16012106835842133,0.01954757235944271,0.20954151451587677
452,625220,625222,-0.015484197996556759,0.08747228235006332,1.053958773612976,-2.4722001552581787,5.665395736694336,-0.5230867266654968,-0.07799609750509262,-3.083845853805542,0.32698363065719604,-0.23387812077999115,-0.008404227904975414,0.20111604034900665
453,625230,625232,0.0837109163403511,0.0034607730340212584,1.0590226650238037,-2.9493463039398193,5.167753219604492,-0.16006574034690857,-0.07049647718667984,-3.0643467903137207,0.33448326587677,-0.33082860708236694,0.004433198366314173,0.19861391186714172
454,625240,625242,-0.022689949721097946,0.05759628489613533,0.9918051362037659,-1.414790153503418,2.30399751663208,0.008789298124611378,-0.06299684941768646,-3.0718462467193604,0.3239837884902954,-0.38116058707237244,-0.035554707050323486,0.20180203020572662
455,625250,625252,-0.06976225972175598,0.07647676765918732,0.9764865040779114,-0.5004270672798157,-0.9466374516487122,-0.016229942440986633,-0.0764961764216423,-3.0613467693328857,0.33748310804367065,-0.3704400658607483,-0.1204913854598999,0.20047621428966522
456,625260,625262,0.0013719132402911782,0.045330360531806946,1.0363963842391968,1.0409162044525146,-4.419242858886719,0.36725911498069763,-0.0764961764216423,-3.0613467693328857,0.33748310804367065,-0.31275293231010437,0.023108312860131264,0.20022010803222656
457,625270,625272,0.05342276766896248,-0.009456650353968143,1.03776216506958,0.922684371471405,-6.301611423492432,0.572597086429596,-0.0764961764216423,-3.0613467693328857,0.33748310804367065,-0.22516874969005585,0.0232907235622406,0.2048850953578949
458,625280,625282,0.10236603766679764,0.0755140483379364,1.028011679649353,2.8065345287323,-6.724749565124512,0.591581404209137,-0.0764961764216423,-3.0613467693328857,0.33748310804367065,-0.12710918486118317,-0.025267448276281357,0.21215347945690155
459,625290,625292,0.005157660227268934,0.1620878428220749,1.0016846656799316,1.019395112991333,-6.28904914855957,0.63427734375,-0.07049647718667984,-3.079345941543579,0.3404829800128937,-0.026814967393875122,0.002132991561666131,0.22002357244491577
460,625300,625302,0.006139833480119705,0.16089986264705658,1.0565860271453857,-1.2498581409454346,-3.844719409942627,0.43782150745391846,-0.07349632680416107,-3.0673465728759766,0.33748310804367065,0.04777391254901886,-0.004587180912494659,0.22160221636295319
461,625310,625312,0.011961331591010094,0.1401056945323944,1.064013123512268,-1.8289237022399902,-0.5902063250541687,0.738906741142273,-0.07799609750509262,-3.0628468990325928,0.3239837884902954,0.06842242926359177,-0.10554266721010208,0.2257835566997528
462,625320,625322,0.02711639739573002,0.15558823943138123,0.9881230592727661,-3.7638397216796875,3.3429605960845947,0.8671966195106506,-0.07049647718667984,-3.0733463764190674,0.32848358154296875,0.019747145473957062,-0.07704133540391922,0.23458346724510193
463,625330,625332,-0.020146062597632408,0.13202022016048431,0.8698475360870361,-3.2154273986816406,5.86135721206665,0.5846571922302246,-0.07349632680416107,-3.0733463764190674,0.33448326587677,-0.07609821856021881,-0.19728639721870422,0.2452004998922348
464,625340,625342,-0.04566812142729759,0.10325382649898529,0.8933110237121582,-1.4879552125930786,6.0330023765563965,0.568571150302887,-0.06749662756919861,-3.0733463764190674,0.3224838674068451,-0.17369605600833893,-0.21877411007881165,0.24886812269687653
465,625350,625352,-0.07021430879831314,0.057897113263607025,0.9225039482116699,1.0798425674438477,5.342890739440918,0.5774078965187073,-0.07349632680416107,-3.0643467903137207,0.3254837095737457,-0.2563992440700531,-0.06546784192323685,0.2473587840795517
466,625360,625362,-0.005750175565481186,0.004797116853296757,0.9907689690589905,3.9918787479400635,3.7298593521118164,0.5409058928489685,-0.05999699980020523,-3.0718462467193604,0.3209839463233948,-0.3253445029258728,-0.09931392967700958,0.24976281821727753
