,timestamp_start,timestamp_end,acc.x,acc.y,acc.z,gyro.x,gyro.y,gyro.z,mag.x,mag.y,mag.z,stabilizer.pitch,stabilizer.roll,stabilizer.yaw
0,20667,20668,0.029666177928447723,0.08601677417755127,0.9215744137763977,-7.671939849853516,38.95481872558594,-6.043411731719971,-0.10349482297897339,-3.031348466873169,0.3584820628166199,5.3806867599487305,-1.0105054378509521,1.7337435483932495
1,20677,20678,-0.030842330306768417,0.06844987720251083,0.8620815873146057,-18.006893157958984,35.17681121826172,-6.864850044250488,-0.0944952741265297,-3.0403478145599365,0.35548222064971924,4.506317138671875,-1.0883325338363647,1.7053263187408447
2,20687,20688,-0.06821230053901672,0.0077248215675354,0.8491475582122803,-23.83131980895996,34.45820999145508,-6.499966144561768,-0.10349482297897339,-3.0373480319976807,0.3614819049835205,4.376590251922607,-1.2200278043746948,1.522657036781311
3,20697,20698,-0.125318706035614,-0.12695050239562988,0.8495036959648132,-20.89337730407715,27.453433990478516,-5.137713432312012,-0.10349482297897339,-3.031348466873169,0.3614819049835205,3.9788949489593506,-2.5603930950164795,2.4702670574188232
4,20707,20708,-0.07990492880344391,-0.12413232773542404,0.7679083347320557,-9.237439155578613,15.159392356872559,-7.878899097442627,-0.10049497336149216,-3.0373480319976807,0.3584820628166199,3.9382834434509277,-3.0453643798828125,2.632577419281006
5,20717,20718,-0.4323953688144684,0.029750335961580276,0.6851799488067627,8.426681518554688,8.353774070739746,-9.720054626464844,-0.10049497336149216,-3.0373480319976807,0.3584820628166199,3.6781599521636963,-2.912404775619507,2.450378179550171
6,20727,20728,-0.33205485343933105,0.14395500719547272,0.7123638987541199,28.656442642211914,7.284444808959961,-8.887941360473633,-0.10049497336149216,-3.0373480319976807,0.3584820628166199,3.4715731143951416,-2.569385528564453,2.245514154434204
7,20737,20738,-0.037804633378982544,0.026726385578513145,0.8131646513938904,40.823333740234375,12.041643142700195,-6.261133193969727,-0.10049497336149216,-3.0373480319976807,0.3584820628166199,3.3922767639160156,-1.9887986183166504,1.989438533782959
8,20747,20748,0.032157789915800095,-0.04722072184085846,0.7950674891471863,47.14891815185547,17.261295318603516,-4.4931230545043945,-0.10949452221393585,-3.0433478355407715,0.3524823784828186,2.8673155307769775,-1.458628535270691,1.9700195789337158
9,20757,20758,-0.020368942990899086,0.01415776927024126,0.7866993546485901,48.69923400878906,18.264856338500977,-4.999457836151123,-0.113994300365448,-3.059846878051758,0.34798258543014526,2.587803602218628,-0.6315717697143555,1.727843999862671
10,20767,20768,-0.0740804523229599,0.015038905665278435,0.8169155716896057,41.10566329956055,19.588443756103516,-6.315240383148193,-0.10649467259645462,-3.0673465728759766,0.3434828221797943,2.483295202255249,0.03966871649026871,1.523980736732483
11,20777,20778,-0.1927432268857956,0.025074033066630363,0.7835860848426819,30.305164337158203,16.024412155151367,-6.108002662658691,-0.09749512374401093,-3.0613467693328857,0.3584820628166199,1.8357583284378052,0.4120783805847168,1.5535805225372314
12,20787,20788,-0.1492721438407898,0.018009109422564507,0.7173371911048889,13.871779441833496,13.720355987548828,-6.165794849395752,-0.11099445074796677,-3.0658466815948486,0.34798258543014526,1.640567421913147,0.5771800875663757,1.5456544160842896
13,20797,20798,-0.1357736438512802,0.0431860126554966,0.7104296684265137,-5.598138332366943,9.79807186126709,-7.1298298835754395,-0.085495725274086,-3.0703463554382324,0.3224838674068451,1.4497050046920776,0.656477153301239,1.4875109195709229
14,20807,20808,-0.13894805312156677,0.033736325800418854,0.7798808217048645,-21.310077667236328,4.631187915802002,-8.08281135559082,-0.10349482297897339,-3.0733463764190674,0.33448326587677,1.44503915309906,0.6307868957519531,1.3682421445846558
15,20817,20818,-0.10340023040771484,-0.022501224651932716,0.8436146378517151,-29.563688278198242,2.5191118717193604,-8.435992240905762,-0.08849557489156723,-3.088345527648926,0.34648266434669495,1.3984370231628418,0.2985113859176636,1.322011113166809
16,20827,20828,-0.0739608183503151,0.054639287292957306,0.9224429726600647,-29.308551788330078,-6.087273120880127,-7.395366668701172,-0.085495725274086,-3.0733463764190674,0.32848358154296875,1.3725953102111816,0.17307880520820618,1.191220760345459
17,20837,20838,-0.031656861305236816,-0.1478419005870819,0.8788214921951294,-26.77561378479004,-15.536553382873535,-6.4608964920043945,-0.08699564635753632,-3.0748462677001953,0.31798410415649414,1.6182643175125122,-0.2781893312931061,1.166283369064331
18,20847,20848,-0.06323660165071487,-0.19758030772209167,0.7896790504455566,-20.753877639770508,-19.21255874633789,-5.789204120635986,-0.09299534559249878,-3.083845853805542,0.3149842321872711,1.194824457168579,-0.30664485692977905,1.0491424798965454
19,20857,20858,-0.10955928266048431,-0.015931103378534317,0.8807402849197388,-8.476634979248047,-21.561193466186523,-6.460338115692139,-0.07799609750509262,-3.0898454189300537,0.33598318696022034,1.5658570528030396,-0.4073445498943329,0.9796220660209656
20,20867,20868,-0.039295170456171036,0.06766874343156815,0.930745542049408,4.014431953430176,-28.12358856201172,-6.670503616333008,-0.08999549597501755,-3.0958452224731445,0.33598318696022034,1.8454363346099854,-0.5025523900985718,0.9267351627349854
21,20877,20878,0.0429842434823513,0.08145811408758163,0.9573879241943359,13.330843925476074,-29.01481056213379,-5.461051940917969,-0.08699564635753632,-3.107844591140747,0.3239837884902954,1.7803901433944702,-0.2905655801296234,0.8341911435127258
22,20887,20888,0.00803065113723278,-0.04238211363554001,0.8974899649620056,14.028783798217773,-22.41718101501465,-4.641944885253906,-0.06449677050113678,-3.082345724105835,0.3224838674068451,2.061026096343994,-0.09166300296783447,0.7750617265701294
23,20897,20898,-0.051384784281253815,-0.043080758303403854,0.9420464038848877,10.132405281066895,-12.084258079528809,-5.211611747741699,-0.07199639827013016,-3.0988450050354004,0.3239837884902954,2.4567527770996094,0.017257049679756165,0.7403814792633057
24,20907,20908,-0.11931679397821426,-0.016151128336787224,0.9546449184417725,4.92299222946167,-4.9973578453063965,-4.343926429748535,-0.07499624788761139,-3.0928452014923096,0.32998350262641907,2.681868553161621,0.11597715318202972,0.695624053478241
25,20917,20918,-0.10382798314094543,0.02589479833841324,0.8561503291130066,5.117562294006348,-0.8714151978492737,-4.640130043029785,-0.07499624788761139,-3.104844808578491,0.3119843900203705,2.2682900428771973,0.17186260223388672,0.6354401111602783
26,20927,20928,0.048328086733818054,0.03609905391931534,0.9077245593070984,7.226861000061035,2.0240187644958496,-7.823182106018066,-0.085495725274086,-3.103344678878784,0.3254837095737457,2.3795273303985596,0.2518348693847656,0.5872035622596741
27,20937,20938,0.007591968402266502,0.12724919617176056,1.003049612045288,6.51263427734375,3.8730273246765137,-10.00575065612793,-0.07349632680416107,-3.0943453311920166,0.32848358154296875,2.3400278091430664,0.3502633571624756,0.4976921081542969
28,20947,20948,-0.0802944153547287,0.03867258131504059,0.9981350898742676,4.908153533935547,2.440778970718384,-8.9679536819458,-0.07049647718667984,-3.0973451137542725,0.3164841830730438,2.209552049636841,0.420598566532135,0.39296039938926697
29,20957,20958,-0.07097485661506653,0.06448434293270111,1.0458123683929443,1.225806474685669,-4.5771684646606445,-7.716635227203369,-0.07199639827013016,-3.0988450050354004,0.3209839463233948,2.3575596809387207,0.43313607573509216,0.3216310143470764
30,20967,20968,0.022481253370642662,-0.08670780062675476,0.9454522132873535,-4.311721324920654,-11.760405540466309,-6.6114702224731445,-0.07349632680416107,-3.106344699859619,0.3164841830730438,2.5193557739257812,0.377116858959198,0.2656574845314026
31,20977,20978,0.09091244637966156,-0.150115504860878,0.965218186378479,-5.904387474060059,-17.74249839782715,-6.457894325256348,-0.0764961764216423,-3.0973451137542725,0.3164841830730438,2.8605241775512695,0.3433865010738373,0.21889567375183105
32,20987,20988,-0.08339337259531021,-0.14863534271717072,0.9598902463912964,-5.420828342437744,-17.375934600830078,-5.594967365264893,-0.08849557489156723,-3.0943453311920166,0.31948402523994446,2.631610155105591,0.31170815229415894,0.10635760426521301
33,20997,20998,-0.10571608692407608,-0.03845575824379921,1.0248944759368896,-6.2767109870910645,-10.71303653717041,-2.502919912338257,-0.085495725274086,-3.112344264984131,0.3224838674068451,2.794127941131592,0.3381442725658417,0.04717279598116875
34,21007,21008,-0.1175527572631836,0.03903445973992348,1.0212347507476807,-9.42602825164795,-8.35589599609375,0.016868174076080322,-0.06299684941768646,-3.104844808578491,0.3209839463233948,3.0608327388763428,0.17831169068813324,0.06264421343803406
35,21017,21018,-0.11677665263414383,-0.009578555822372437,0.9617471694946289,-16.434715270996094,-7.300597667694092,-0.027336928993463516,-0.05549722537398338,-3.109344482421875,0.31048446893692017,3.1325743198394775,0.06640026718378067,0.062601737678051
36,21027,21028,-0.0011637374991551042,0.04714525490999222,1.0190242528915405,-22.31710433959961,-7.076075077056885,-1.7450674772262573,-0.058497074991464615,-3.0973451137542725,0.31948402523994446,3.2599077224731445,-0.2122194766998291,0.07853993773460388
37,21037,21038,-0.05474979057908058,-0.0125178387388587,0.9605317711830139,-25.151538848876953,-2.8498787879943848,-4.102234363555908,-0.07799609750509262,-3.0988450050354004,0.3119843900203705,2.9972434043884277,-0.34498685598373413,-0.0002908692695200443
38,21047,21048,-0.08133972436189651,0.04016904905438423,1.01963472366333,-17.954687118530273,1.504488229751587,-6.085385799407959,-0.0764961764216423,-3.0913453102111816,0.3164841830730438,3.0341379642486572,-0.5717572569847107,-0.04910561069846153
39,21057,21058,0.0017924343701452017,0.05760573968291283,1.0630426406860352,-9.087247848510742,5.445535659790039,-6.154104232788086,-0.06449677050113678,-3.0763461589813232,0.31048446893692017,3.0698184967041016,-0.7249811291694641,-0.10162505507469177
40,21067,21068,-0.05144071578979492,0.00563823664560914,1.0149625539779663,1.9861464500427246,5.926089763641357,-6.51438570022583,-0.07799609750509262,-3.0718462467193604,0.32698363065719604,3.065445899963379,-0.7841447591781616,-0.15959109365940094
41,21077,21078,-0.09083117544651031,0.01896613836288452,1.0010323524475098,11.964078903198242,6.780431270599365,-6.283871650695801,-0.08249587565660477,-3.08534574508667,0.3134843111038208,3.0383121967315674,-0.6004364490509033,-0.24488860368728638
42,21087,21088,-0.05426974222064018,0.008083781227469444,1.00751793384552,14.969932556152344,5.547999858856201,-4.990501403808594,-0.07349632680416107,-3.08534574508667,0.3404829800128937,2.9424266815185547,-0.39823970198631287,-0.3187393844127655
43,21097,21098,-0.03870675712823868,0.01270040962845087,1.0322333574295044,12.237285614013672,6.503183364868164,-3.1652748584747314,-0.0659966990351677,-3.0898454189300537,0.3209839463233948,2.912025213241577,-0.28105953335762024,-0.35595494508743286
44,21107,21108,-0.05803251639008522,-0.04458845034241676,0.9643084406852722,2.423987627029419,8.703185081481934,-2.7741262912750244,-0.07199639827013016,-3.0898454189300537,0.3119843900203705,2.839482069015503,-0.27646368741989136,-0.37025415897369385
45,21117,21118,-0.08730592578649521,-0.004961645696312189,0.9865531325340271,-6.856515884399414,11.200093269348145,-2.1846556663513184,-0.07349632680416107,-3.0913453102111816,0.3254837095737457,2.7207539081573486,-0.35352879762649536,-0.38585802912712097
46,21127,21128,-0.0067736683413386345,0.0439232736825943,1.030561089515686,-14.708230972290039,11.106082916259766,-0.7125943303108215,-0.07199639827013016,-3.080845832824707,0.3239837884902954,2.652379035949707,-0.4868590533733368,-0.3909800350666046
47,21137,21138,-0.0859123095870018,-0.011737560853362083,1.0065425634384155,-16.61449432373047,7.667425155639648,-0.08874020725488663,-0.07799609750509262,-3.0898454189300537,0.3209839463233948,2.5454635620117188,-0.6896234154701233,-0.39044076204299927
48,21147,21148,-0.02592316083610058,0.02581733837723732,1.0311098098754883,-10.434663772583008,3.1828501224517822,2.7412850856781006,-0.0764961764216423,-3.0973451137542725,0.3134843111038208,2.498380661010742,-0.8405511379241943,-0.38322383165359497
49,21157,21158,-0.09814751893281937,0.04334471747279167,1.0081963539123535,-1.6700326204299927,2.5196847915649414,7.523281097412109,-0.07799609750509262,-3.086845636367798,0.33598318696022034,2.4842963218688965,-0.9284750819206238,-0.3334033787250519
50,21167,21168,-0.06313078105449677,-0.06673618406057358,0.894275426864624,7.753053665161133,6.386259078979492,11.02103328704834,-0.07349632680416107,-3.1003448963165283,0.32848358154296875,2.491072416305542,-0.870010495185852,-0.25186529755592346
51,21177,21178,0.05623600631952286,-0.08263899385929108,1.1067421436309814,13.67489242553711,11.489421844482422,14.30849838256836,-0.07349632680416107,-3.0913453102111816,0.32848358154296875,2.3394718170166016,-0.6932365298271179,-0.14017005264759064
52,21187,21188,-0.07389518618583679,-0.018374381586909294,1.0393986701965332,15.246957778930664,13.695056915283203,15.750425338745117,-0.07349632680416107,-3.079345941543579,0.31948402523994446,2.293984889984131,-0.4768896996974945,-0.001457258127629757
53,21197,21198,-0.06211058422923088,0.05629931762814522,1.035597801208496,10.98216724395752,18.83731460571289,16.686847686767578,-0.08249587565660477,-3.082345724105835,0.31948402523994446,2.0272059440612793,-0.4306282103061676,0.17118360102176666
54,21207,21208,-0.04956227168440819,-0.0014442737447097898,1.0030852556228638,0.11361278593540192,22.49428939819336,16.076650619506836,-0.08099594712257385,-3.0898454189300537,0.31798410415649414,1.7620255947113037,-0.376267671585083,0.33832821249961853
55,21217,21218,-0.04931042715907097,0.05045183748006821,1.0176408290863037,-8.341400146484375,25.613285064697266,14.66574478149414,-0.08099594712257385,-3.0928452014923096,0.31798410415649414,1.444891333580017,-0.47997453808784485,0.49758651852607727
56,21227,21228,-0.012380926869809628,0.02417892776429653,1.0421476364135742,-12.397614479064941,23.148775100708008,13.746963500976562,-0.07799609750509262,-3.0898454189300537,0.3149842321872711,1.0687826871871948,-0.6569728851318359,0.64387446641922
57,21237,21238,-0.10990611463785172,-0.09985417872667313,1.042188048362732,-14.017528533935547,13.19819164276123,12.811125755310059,-0.07349632680416107,-3.079345941543579,0.31948402523994446,1.2293857336044312,-0.7986456751823425,0.7784250974655151
58,21247,21248,-0.047954268753528595,0.013433823361992836,1.0151499509811401,-9.225160598754883,2.4788551330566406,10.537403106689453,-0.08249587565660477,-3.088345527648926,0.3224838674068451,1.2555028200149536,-0.9034391045570374,0.898125946521759
59,21257,21258,-0.02093595266342163,0.025921721011400223,1.0284632444381714,-1.822893500328064,-5.969216346740723,7.776122570037842,-0.07949602603912354,-3.0943453311920166,0.3224838674068451,1.4257184267044067,-0.902999222278595,0.9926301836967468
60,21267,21268,-0.044248148798942566,0.02681318111717701,1.0018507242202759,5.061091423034668,-6.813732147216797,5.25609016418457,-0.08249587565660477,-3.088345527648926,0.3314834237098694,1.5038503408432007,-0.8612729907035828,1.0611995458602905
61,21277,21278,-0.06733456254005432,0.033169105648994446,1.0223098993301392,9.696884155273438,-0.9626123905181885,2.950592279434204,-0.07349632680416107,-3.088345527648926,0.3254837095737457,1.5885928869247437,-0.7308642268180847,1.10508394241333
62,21287,21288,-0.07800023257732391,-0.01611178368330002,0.9857733845710754,8.982954978942871,5.574387550354004,0.8833470344543457,-0.09149542450904846,-3.08534574508667,0.32848358154296875,1.4955929517745972,-0.5840484499931335,1.12993323802948
63,21297,21298,-0.06799247115850449,0.07521804422140121,0.9452208876609802,3.260061740875244,15.224702835083008,-1.3981531858444214,-0.08249587565660477,-3.079345941543579,0.33448326587677,1.2668277025222778,-0.49737903475761414,1.138342261314392
64,21307,21308,-0.06696517020463943,0.03867362439632416,0.9129537343978882,-0.3193930685520172,20.56214141845703,-3.225580930709839,-0.08999549597501755,-3.0898454189300537,0.3239837884902954,1.1628880500793457,-0.6099172830581665,1.1093791723251343
65,21317,21318,-0.13881322741508484,0.07122143357992172,0.9362882971763611,-0.6642754673957825,22.55142593383789,-5.007181644439697,-0.08699564635753632,-3.083845853805542,0.3329833447933197,0.8838422298431396,-0.60564124584198,1.067575216293335
66,21327,21328,-0.09752588719129562,0.11274250596761703,1.0421066284179688,-1.8082200288772583,22.251911163330078,-5.238785743713379,-0.07949602603912354,-3.0913453102111816,0.33748310804367065,0.5689806342124939,-0.5652592778205872,1.0139477252960205
67,21337,21338,-0.0021048195194453,0.09988657385110855,1.051848292350769,-0.19917701184749603,19.006624221801758,-3.4854023456573486,-0.0944952741265297,-3.079345941543579,0.3224838674068451,0.6157001852989197,-0.6493242979049683,0.9499099850654602
68,21347,21348,0.05794684216380119,0.11402440816164017,1.055601954460144,1.0692578554153442,13.927485466003418,-2.4124372005462646,-0.09749512374401093,-3.08534574508667,0.3314834237098694,0.5616998672485352,-0.6303313970565796,0.9158275723457336
69,21357,21358,0.11264464259147644,0.04108700156211853,0.956925630569458,3.7432401180267334,7.867866039276123,-2.04864239692688,-0.09749512374401093,-3.08534574508667,0.3224838674068451,0.45918959379196167,-0.5715115070343018,0.898758053779602
70,21367,21368,0.01638668030500412,0.02664264105260372,0.8357594013214111,6.664207458496094,7.310816287994385,-1.6712104082107544,-0.09749512374401093,-3.082345724105835,0.3254837095737457,0.282897025346756,-0.47180435061454773,0.8870753645896912
71,21377,21378,-0.08081727474927902,0.08128271996974945,0.8942760229110718,5.834291458129883,9.165467262268066,-0.23691004514694214,-0.10049497336149216,-3.0763461589813232,0.3254837095737457,0.253743976354599,-0.4318171739578247,0.867505669593811
72,21387,21388,-0.006166862323880196,0.0066857049241662025,0.9733104705810547,2.324753999710083,10.475892066955566,0.5690693855285645,-0.09899504482746124,-3.077846050262451,0.32698363065719604,0.17451827228069305,-0.3643040955066681,0.8689329624176025
73,21397,21398,0.01826494187116623,0.11678516864776611,1.0693933963775635,-0.800194501876831,10.27254867553711,1.2106834650039673,-0.10949452221393585,-3.079345941543579,0.3224838674068451,-0.05755525454878807,-0.3606441617012024,0.8736928105354309
74,21407,21408,0.04250823333859444,0.13447432219982147,1.0172549486160278,-7.275597095489502,10.810586929321289,1.8735294342041016,-0.09599519520998001,-3.080845832824707,0.3149842321872711,-0.09214742481708527,-0.4321061670780182,0.8784480690956116
75,21417,21418,0.0823502168059349,0.09806735813617706,0.9474648833274841,-10.574939727783203,9.417600631713867,3.4326071739196777,-0.10799460113048553,-3.083845853805542,0.32998350262641907,-0.25646594166755676,-0.5642603635787964,0.8926655650138855
76,21427,21428,-0.009378357790410519,-0.016515176743268967,0.8207101821899414,-11.532500267028809,9.61487865447998,4.355376720428467,-0.09149542450904846,-3.0913453102111816,0.3254837095737457,-0.10278842598199844,-0.7219023108482361,0.9144738912582397
77,21437,21438,-0.11021900177001953,0.06196855008602142,0.9284234642982483,-11.713258743286133,10.363889694213867,4.19462776184082,-0.09299534559249878,-3.0898454189300537,0.33598318696022034,-0.23469993472099304,-0.8150870203971863,0.9611220955848694
78,21447,21448,-0.17186784744262695,0.04975700005888939,0.9546725153923035,-7.419672966003418,10.830764770507812,3.450458288192749,-0.09899504482746124,-3.080845832824707,0.32998350262641907,-0.37000706791877747,-0.9438693523406982,0.9913603663444519
79,21457,21458,-0.04194090887904167,0.057953886687755585,1.0176371335983276,-1.6739534139633179,11.485710144042969,3.1168601512908936,-0.08999549597501755,-3.0898454189300537,0.3329833447933197,-0.47134917974472046,-0.9190177917480469,1.044655442237854
80,21467,21468,0.015818925574421883,0.1550554484128952,1.132300853729248,6.9446940422058105,13.868542671203613,1.9653207063674927,-0.09599519520998001,-3.083845853805542,0.3239837884902954,-0.6779692769050598,-0.8560638427734375,1.083064317703247
81,21477,21478,-0.019262492656707764,-0.045526210218667984,0.9738878011703491,15.826884269714355,15.722748756408691,1.3691489696502686,-0.09299534559249878,-3.080845832824707,0.3239837884902954,-0.9039593935012817,-0.7806294560432434,1.0898957252502441
82,21487,21488,0.03265642374753952,-0.11078297346830368,0.975201427936554,20.005489349365234,15.599669456481934,0.8307526707649231,-0.10649467259645462,-3.082345724105835,0.3314834237098694,-1.2064160108566284,-0.4599275588989258,1.1550860404968262
83,21497,21498,-0.02829340659081936,-0.04240521043539047,0.9570341110229492,18.101118087768555,13.053913116455078,-0.9595709443092346,-0.10199490189552307,-3.083845853805542,0.3239837884902954,-1.0483424663543701,-0.4124487340450287,1.0951348543167114
84,21507,21508,-0.07019691169261932,0.011756790801882744,0.8811905384063721,13.82917594909668,6.78164005279541,-2.7176895141601562,-0.1049947515130043,-3.0928452014923096,0.3149842321872711,-0.9025788307189941,-0.25701281428337097,1.0641041994094849
85,21517,21518,-0.08349032700061798,0.10229934751987457,0.9637230634689331,10.632740020751953,-1.5334630012512207,-3.2765889167785645,-0.10649467259645462,-3.082345724105835,0.3314834237098694,-0.915474534034729,-0.030228007584810257,1.0670418739318848
86,21527,21528,-0.14362850785255432,0.08465903997421265,0.9684242010116577,9.643686294555664,-5.342802047729492,-2.460059881210327,-0.10049497336149216,-3.082345724105835,0.3164841830730438,-0.9889527559280396,-0.1366862803697586,0.9528337717056274
87,21537,21538,-0.08848356455564499,0.14850808680057526,1.0633584260940552,2.7934253215789795,-4.454113006591797,-1.4284814596176147,-0.09149542450904846,-3.082345724105835,0.3044847846031189,-0.9939485192298889,-0.006676737684756517,0.9501139521598816
88,21547,21548,0.05094888061285019,0.09751976281404495,0.9637319445610046,-4.7419304847717285,-3.746201276779175,-1.264473557472229,-0.10049497336149216,-3.0913453102111816,0.3164841830730438,-1.0184682607650757,0.001967544201761484,0.9407227635383606
89,21557,21558,0.08616387844085693,0.008493669331073761,0.9790703654289246,-7.843997955322266,-5.506500720977783,-2.3705973625183105,-0.08849557489156723,-3.079345941543579,0.3254837095737457,-1.0194967985153198,-0.06019137054681778,0.9175189137458801
90,21567,21568,0.0006813061772845685,-0.049489159137010574,0.9409579038619995,-9.545839309692383,-6.921940326690674,-3.9726767539978027,-0.08999549597501755,-3.083845853805542,0.3149842321872711,-0.9646448493003845,-0.1685766577720642,0.8764481544494629
91,21577,21578,0.03019137494266033,0.11928284168243408,1.0785640478134155,-4.7020463943481445,-4.256739616394043,-5.728659629821777,-0.1049947515130043,-3.0898454189300537,0.3329833447933197,-0.8321537375450134,-0.26279014348983765,0.8350651860237122
92,21587,21588,-0.1379031091928482,-0.003028332954272628,1.0086023807525635,6.666353702545166,2.040208578109741,-5.4447808265686035,-0.09299534559249878,-3.0928452014923096,0.3209839463233948,-0.8551545739173889,-0.2179165929555893,0.8044989109039307
93,21597,21598,-0.12203582376241684,0.24571983516216278,1.0743494033813477,14.665459632873535,10.43242359161377,-3.9513230323791504,-0.09749512374401093,-3.0913453102111816,0.3224838674068451,-0.8510347008705139,-0.09330413490533829,0.7666723132133484
94,21607,21608,-0.05657815560698509,0.18646885454654694,1.1109185218811035,17.29656219482422,18.486257553100586,-3.7297332286834717,-0.09299534559249878,-3.0898454189300537,0.3149842321872711,-1.1364814043045044,0.10748419910669327,0.7395855188369751
95,21617,21618,-0.05985378473997116,-0.0689110979437828,1.0100932121276855,19.095687866210938,22.168855667114258,-3.732243061065674,-0.09599519520998001,-3.0898454189300537,0.3239837884902954,-1.3704042434692383,0.14790748059749603,0.640302300453186
96,21627,21628,-0.09108679741621017,-0.03294958174228668,0.9849529266357422,17.878366470336914,20.801788330078125,-3.8735063076019287,-0.11549422144889832,-3.079345941543579,0.3044847846031189,-1.6069557666778564,0.2063940018415451,0.5461376309394836
97,21637,21638,-0.018901845440268517,0.04472135379910469,1.0311387777328491,14.810145378112793,14.667159080505371,-4.296167373657227,-0.12149392068386078,-3.1003448963165283,0.31948402523994446,-1.906153678894043,0.3797588050365448,0.5024418830871582
98,21647,21648,-0.05911818891763687,0.04769809916615486,1.0349183082580566,13.63508129119873,3.7581324577331543,-4.303411483764648,-0.09749512374401093,-3.088345527648926,0.3314834237098694,-1.987782597541809,0.516089141368866,0.45755648612976074
99,21657,21658,-0.046333517879247665,0.11068069934844971,1.0254995822906494,8.746517181396484,-9.567373275756836,-2.810314178466797,-0.10649467259645462,-3.08534574508667,0.31948402523994446,-1.879271149635315,0.7348461747169495,0.47189730405807495
100,21667,21668,0.002563140820711851,-0.001990700140595436,0.9869335293769836,0.3119868338108063,-23.197263717651367,-2.288137912750244,-0.1049947515130043,-3.0928452014923096,0.3149842321872711,-1.631548523902893,0.7758599519729614,0.43982961773872375
101,21677,21678,-0.011740637011826038,-0.007922195829451084,0.9917436242103577,-7.390584945678711,-32.08698272705078,-3.377366065979004,-0.1049947515130043,-3.1018447875976562,0.3119843900203705,-1.276399850845337,0.6751327514648438,0.3786417543888092
102,21687,21688,-0.06737517565488815,-0.003390340367332101,0.9923654794692993,-9.520468711853027,-29.93009376525879,-2.5449044704437256,-0.08699564635753632,-3.086845636367798,0.31798410415649414,-0.8762080073356628,0.5696937441825867,0.33904534578323364
103,21697,21698,-0.1905461847782135,0.01438286155462265,1.008679986000061,-6.256430625915527,-19.924169540405273,-0.98082035779953,-0.10349482297897339,-3.088345527648926,0.33748310804367065,-0.7068381905555725,0.4807405471801758,0.3022485375404358
104,21707,21708,-0.09795912355184555,0.007867444306612015,0.9951359033584595,-0.869183361530304,-3.01564884185791,0.422229140996933,-0.10649467259645462,-3.0943453311920166,0.32848358154296875,-0.526444673538208,0.4687359631061554,0.31298041343688965
105,21717,21718,-0.19004014134407043,-0.049541447311639786,0.9342889785766602,6.440550804138184,13.13475227355957,1.229862928390503,-0.10949452221393585,-3.082345724105835,0.3254837095737457,-0.5742180943489075,0.5531182885169983,0.34688448905944824
106,21727,21728,-0.23050807416439056,0.004143137950450182,1.0680510997772217,14.127293586730957,28.018138885498047,1.1929134130477905,-0.10349482297897339,-3.0733463764190674,0.31948402523994446,-1.0554609298706055,0.6762495636940002,0.3377143442630768
107,21737,21738,-0.039351873099803925,0.03694232553243637,1.0283944606781006,19.174325942993164,38.32220458984375,1.2846593856811523,-0.10799460113048553,-3.0898454189300537,0.3209839463233948,-1.3343337774276733,0.8246085047721863,0.3558575510978699
108,21747,21748,0.17037075757980347,0.01403485145419836,1.1126915216445923,23.0211238861084,41.336219787597656,1.467157006263733,-0.10349482297897339,-3.1003448963165283,0.3254837095737457,-1.7647026777267456,1.052791953086853,0.39143693447113037
109,21757,21758,0.07948873937129974,-0.07330532371997833,0.9366474151611328,18.51165199279785,29.41057014465332,0.7519442439079285,-0.11999399960041046,-3.086845636367798,0.31798410415649414,-2.2254257202148438,1.1428358554840088,0.3511854112148285
110,21767,21768,-0.09173741936683655,-0.037164948880672455,0.9152495861053467,14.562633514404297,5.702129364013672,0.5372903347015381,-0.113994300365448,-3.0988450050354004,0.31798410415649414,-2.357447862625122,1.3071191310882568,0.37538009881973267
111,21777,21778,-0.1838412880897522,0.011525464244186878,0.9565374255180359,8.197089195251465,-20.094083786010742,1.1409977674484253,-0.1319933980703354,-3.1018447875976562,0.3029848337173462,-2.280759811401367,1.3918424844741821,0.37127888202667236
112,21787,21788,-0.26827314496040344,0.05330036208033562,0.9598347544670105,-1.3118926286697388,-39.57872772216797,0.17945054173469543,-0.10049497336149216,-3.106344699859619,0.31948402523994446,-1.9051029682159424,1.4826170206069946,0.40344467759132385
113,21797,21798,-0.13959911465644836,0.11884366720914841,1.0942295789718628,-7.308002948760986,-45.53362274169922,0.3106687068939209,-0.10049497336149216,-3.106344699859619,0.31948402523994446,-1.2957961559295654,1.361718773841858,0.3865146338939667
114,21807,21808,0.0385764054954052,-0.08359072357416153,1.0346113443374634,-16.98216438293457,-40.62809753417969,0.6527990102767944,-0.10349482297897339,-3.0973451137542725,0.3164841830730438,-0.9715451598167419,1.2039319276809692,0.3304309844970703
115,21817,21818,0.019158363342285156,-0.23671621084213257,0.8472567200660706,-26.926794052124023,-29.98883628845215,-1.890034556388855,-0.10349482297897339,-3.0973451137542725,0.3164841830730438,-0.37816742062568665,1.1073664426803589,0.4056796729564667
116,21827,21828,-0.026269257068634033,-0.07124130427837372,0.9457386136054993,-28.283000946044922,-15.88255500793457,-4.749642372131348,-0.10349482297897339,-3.0943453311920166,0.3224838674068451,-0.08244842290878296,0.754555881023407,0.3496392071247101
117,21837,21838,-0.15273579955101013,0.04642597958445549,0.996303379535675,-24.403270721435547,0.8148500919342041,-6.115609645843506,-0.0944952741265297,-3.08534574508667,0.3164841830730438,0.22093400359153748,0.4214944839477539,0.31297624111175537
118,21847,21848,-0.08060099929571152,-0.00958566926419735,1.0206108093261719,-14.967796325683594,19.600433349609375,-6.216931343078613,-0.10349482297897339,-3.0943453311920166,0.33748310804367065,-0.36496445536613464,0.40041473507881165,0.2243817001581192
119,21857,21858,0.0730522945523262,-0.08410686999559402,0.9483426213264465,-3.3842244148254395,32.66421127319336,-5.41605281829834,-0.10049497336149216,-3.08534574508667,0.31948402523994446,-0.6692933440208435,0.2652641534805298,0.15047703683376312
120,21867,21868,0.061374880373477936,0.02298114448785782,0.9857380390167236,7.854718208312988,31.557619094848633,-5.0105061531066895,-0.10799460113048553,-3.083845853805542,0.3209839463233948,-1.1038473844528198,0.3132919669151306,0.09765560179948807
121,21877,21878,0.027848638594150543,0.08250750601291656,1.033118724822998,19.172178268432617,21.856491088867188,-5.364950180053711,-0.09899504482746124,-3.0928452014923096,0.33898305892944336,-1.4945911169052124,0.5358994007110596,0.07278993725776672
122,21887,21888,-0.09178861975669861,0.031045034527778625,0.9519717693328857,27.93328857421875,10.247047424316406,-6.872726917266846,-0.12749361991882324,-3.079345941543579,0.33748310804367065,-1.5687724351882935,0.8521296977996826,0.07165364176034927
123,21897,21898,-0.05655544251203537,0.025528080761432648,0.9667954444885254,30.16335678100586,-6.612966060638428,-8.308478355407715,-0.10799460113048553,-3.104844808578491,0.3239837884902954,-1.4928390979766846,1.175868034362793,0.034618016332387924
124,21907,21908,-0.1539698839187622,0.17652831971645355,1.0436139106750488,28.024538040161133,-20.43895149230957,-7.820446491241455,-0.11699414998292923,-3.0988450050354004,0.32698363065719604,-1.244629979133606,1.429065227508545,-0.04539143294095993
125,21917,21918,-0.16061438620090485,0.013391195796430111,0.9719724059104919,20.01449966430664,-23.93777847290039,-5.143346309661865,-0.11849407106637955,-3.08534574508667,0.31948402523994446,-1.0891082286834717,1.6743488311767578,-0.14507055282592773
126,21927,21928,0.04020733758807182,-0.18588410317897797,0.9628627300262451,5.195992469787598,-19.877389907836914,-2.2345290184020996,-0.1049947515130043,-3.1018447875976562,0.3119843900203705,-0.7931543588638306,1.8155924081802368,-0.1960628479719162
127,21937,21938,-0.018843894824385643,-0.23007327318191528,0.8085184693336487,-11.307794570922852,-13.131285667419434,-1.1058794260025024,-0.11249437183141708,-3.1003448963165283,0.3224838674068451,-0.4970223903656006,1.7775228023529053,-0.21812240779399872
128,21947,21948,-0.2820175290107727,0.0017538511892780662,0.8689357042312622,-29.423524856567383,-11.609018325805664,-1.23446524143219,-0.11999399960041046,-3.104844808578491,0.32998350262641907,-0.33219894766807556,1.44296133518219,-0.2865655720233917
129,21957,21958,-0.14888282120227814,0.10574562847614288,1.0996098518371582,-44.16843795776367,-8.144145965576172,-1.6307755708694458,-0.10799460113048553,-3.0958452224731445,0.3149842321872711,-0.5261683464050293,1.2527211904525757,-0.3283471465110779
130,21967,21968,0.041413772851228714,-0.09658800810575485,1.064897060394287,-50.38336944580078,-3.7006454467773438,-0.9492989778518677,-0.08399579674005508,-3.1018447875976562,0.3149842321872711,-0.49733176827430725,0.538415789604187,-0.414660781621933
131,21977,21978,0.0946921855211258,-0.11522805690765381,0.9405761361122131,-47.002803802490234,-5.472994327545166,0.30556342005729675,-0.08849557489156723,-3.0943453311920166,0.3254837095737457,-0.613622784614563,0.17987148463726044,-0.41401711106300354
132,21987,21988,-0.04088172689080238,-0.05588625371456146,0.9482825398445129,-31.453310012817383,-12.578741073608398,0.11643777042627335,-0.08849557489156723,-3.0943453311920166,0.31948402523994446,-0.40826499462127686,-0.23857097327709198,-0.3856073021888733
133,21997,21998,-0.07766631990671158,0.047052375972270966,0.9193403720855713,-8.6913423538208,-15.26557731628418,0.19929859042167664,-0.08849557489156723,-3.0943453311920166,0.31948402523994446,-0.2008213847875595,-0.25948864221572876,-0.32012808322906494
134,22007,22008,-0.058392032980918884,0.06347690522670746,1.0588648319244385,10.50194263458252,-14.645734786987305,0.2432505339384079,-0.08849557489156723,-3.0943453311920166,0.31948402523994446,0.022865818813443184,-0.23769204318523407,-0.2978450059890747
135,22017,22018,-0.21685463190078735,-0.03138328716158867,1.0443483591079712,20.252450942993164,-9.47912883758545,-0.8074942231178284,-0.08849557489156723,-3.0943453311920166,0.31948402523994446,0.04265927895903587,0.00873052328824997,-0.2919985353946686
136,22027,22028,-0.12023389339447021,-0.06442738324403763,1.011970043182373,23.871397018432617,-2.40315580368042,-3.012929916381836,-0.09749512374401093,-3.08534574508667,0.32848358154296875,0.15211668610572815,0.1974579244852066,-0.30372047424316406
137,22037,22038,-0.04395178332924843,0.11912362277507782,1.0097500085830688,24.063764572143555,2.0204169750213623,-4.449728965759277,-0.09149542450904846,-3.08534574508667,0.3314834237098694,0.08602996915578842,0.48691195249557495,-0.33551064133644104
138,22047,22048,-0.04241226986050606,0.13173209130764008,0.9699007272720337,20.023279190063477,-0.25075915455818176,-6.098361492156982,-0.09899504482746124,-3.0898454189300537,0.32698363065719604,0.09215181320905685,0.6683692932128906,-0.3899252712726593
139,22057,22058,0.15619772672653198,-0.02878885343670845,1.0133992433547974,12.11706829071045,-5.09482479095459,-5.094331741333008,-0.09149542450904846,-3.082345724105835,0.3254837095737457,0.17093698680400848,0.8265629410743713,-0.44747963547706604
140,22067,22068,-0.02345115691423416,-0.013154636137187481,1.0155619382858276,1.7881875038146973,-9.54613208770752,-4.39162015914917,-0.08849557489156723,-3.088345527648926,0.33448326587677,0.33140119910240173,0.887951672077179,-0.4920370280742645
141,22077,22078,-0.09103479236364365,-0.04057559743523598,0.9448463916778564,-8.012903213500977,-11.833680152893066,-3.1090924739837646,-0.08099594712257385,-3.1018447875976562,0.32998350262641907,0.5221381783485413,0.7911449074745178,-0.5317593812942505
142,22087,22088,-0.03795291855931282,0.030562711879611015,0.9823376536369324,-21.673263549804688,-8.825981140136719,-2.6898694038391113,-0.09749512374401093,-3.106344699859619,0.3134843111038208,0.5550334453582764,0.6397726535797119,-0.5705108046531677
143,22097,22098,-0.010241099633276463,0.03180738165974617,0.9783018827438354,-26.185728073120117,-3.3382792472839355,-0.5486720204353333,-0.09299534559249878,-3.0898454189300537,0.31798410415649414,0.5928989052772522,0.3570133149623871,-0.599153995513916
144,22107,22108,0.09131243824958801,-0.046921506524086,0.9424050450325012,-22.635456085205078,4.2370924949646,2.1383421421051025,-0.09299534559249878,-3.1018447875976562,0.3209839463233948,0.6031510829925537,0.15970297157764435,-0.5935986638069153
145,22117,22118,-0.16691067814826965,-0.15156961977481842,0.8698310852050781,-18.15625762939453,10.72514820098877,4.647259712219238,-0.08249587565660477,-3.0943453311920166,0.3164841830730438,0.43004366755485535,-0.18559272587299347,-0.5823512673377991
146,22127,22128,-0.23397794365882874,-0.10620184242725372,1.0282598733901978,-12.918417930603027,10.214263916015625,6.16408634185791,-0.10649467259645462,-3.0973451137542725,0.31948402523994446,0.2839556336402893,-0.24344633519649506,-0.5308488607406616
147,22137,22138,-0.09414493292570114,0.018097538501024246,1.0618228912353516,-5.852546691894531,6.188575744628906,6.148845672607422,-0.08999549597501755,-3.086845636367798,0.3209839463233948,0.22740688920021057,-0.35027560591697693,-0.46455129981040955
148,22147,22148,-0.004401874728500843,-0.043304964900016785,0.9987732172012329,0.4649238884449005,-2.1732804775238037,4.970323085784912,-0.08999549597501755,-3.083845853805542,0.3209839463233948,0.2130495011806488,-0.281281054019928,-0.40312114357948303
149,22157,22158,-0.07461890578269958,0.015333851799368858,1.0058238506317139,6.106669902801514,-4.2826666831970215,4.331780433654785,-0.08249587565660477,-3.0913453102111816,0.3134843111038208,0.2899499237537384,-0.32378318905830383,-0.35221800208091736
150,22167,22168,0.03482730686664581,0.09288054704666138,1.0857923030853271,7.6594014167785645,-5.185023784637451,4.370967388153076,-0.0944952741265297,-3.0913453102111816,0.3134843111038208,0.36711910367012024,-0.16430747509002686,-0.30881792306900024
151,22177,22178,0.1960454285144806,0.042704228311777115,1.145721435546875,4.2942705154418945,-3.3996522426605225,5.031198024749756,-0.10049497336149216,-3.088345527648926,0.3164841830730438,0.4400637745857239,-0.09612046182155609,-0.26180967688560486
152,22187,22188,0.07974594086408615,-0.10820846259593964,0.9181012511253357,-1.628067970275879,-1.3254878520965576,4.743947505950928,-0.08849557489156723,-3.0943453311920166,0.3134843111038208,0.43156716227531433,-0.10524844378232956,-0.20928345620632172
153,22197,22198,-0.01050406415015459,0.022114280611276627,1.009373426437378,-10.047188758850098,2.8578710556030273,3.434691905975342,-0.10349482297897339,-3.088345527648926,0.3254837095737457,0.4326818287372589,0.04286433756351471,-0.169897198677063
154,22207,22208,-0.17772385478019714,0.1585330069065094,1.0920419692993164,-17.362430572509766,6.9662885665893555,3.6582486629486084,-0.09149542450904846,-3.0943453311920166,0.33448326587677,0.3618510365486145,-0.23161527514457703,-0.13262589275836945
155,22217,22218,-0.021909983828663826,-0.02805226668715477,1.0338774919509888,-22.640174865722656,8.576200485229492,3.8279831409454346,-0.0944952741265297,-3.079345941543579,0.32848358154296875,0.2500357925891876,-0.38335075974464417,-0.09794286638498306
156,22227,22228,-0.05578787997364998,0.009911973960697651,1.0346699953079224,-22.780426025390625,9.223588943481445,5.00853157043457,-0.0944952741265297,-3.082345724105835,0.3404829800128937,0.11935557425022125,-0.6475739479064941,-0.05633682385087013
157,22237,22238,-0.010507006198167801,0.03695959225296974,1.0194427967071533,-18.248498916625977,7.695681095123291,6.379884243011475,-0.08249587565660477,-3.106344699859619,0.3254837095737457,0.06595703214406967,-0.9416117668151855,-0.005090614780783653
158,22247,22248,-0.002490848070010543,0.005535169038921595,1.006648063659668,-16.033586502075195,4.4666748046875,8.027770042419434,-0.08699564635753632,-3.080845832824707,0.32998350262641907,-0.0678304061293602,-1.0286481380462646,0.06466040015220642
159,22257,22258,-0.05695265159010887,0.005600212141871452,0.9958305954933167,-13.330168724060059,2.6991922855377197,6.688972473144531,-0.09749512374401093,-3.079345941543579,0.31948402523994446,-0.08697780221700668,-1.2981890439987183,0.1429612785577774
160,22267,22268,-0.03838248923420906,-0.00786669086664915,0.9857649207115173,-6.004570960998535,-3.433403491973877,6.068881034851074,-0.09299534559249878,-3.0898454189300537,0.31798410415649414,-0.04430672526359558,-1.4096710681915283,0.20412343740463257
161,22277,22278,-0.026164179667830467,0.037179362028837204,1.0220884084701538,2.8730356693267822,-8.589704513549805,6.5059638023376465,-0.09899504482746124,-3.0718462467193604,0.3239837884902954,0.0769280269742012,-1.454464316368103,0.2607680559158325
162,22287,22288,0.003365184646099806,0.05057892948389053,1.0104694366455078,11.800004005432129,-14.113494873046875,7.079469203948975,-0.0944952741265297,-3.0673465728759766,0.31948402523994446,0.2732596695423126,-1.3565155267715454,0.3179248571395874
163,22297,22298,-0.09743835777044296,0.007883623242378235,0.978176474571228,20.000825881958008,-13.780479431152344,8.350342750549316,-0.10199490189552307,-3.0898454189300537,0.33898305892944336,0.5036421418190002,-1.1864882707595825,0.38375264406204224
164,22307,22308,-0.06122199445962906,0.29415714740753174,1.123183250427246,23.183189392089844,-4.642682075500488,9.758914947509766,-0.10799460113048553,-3.083845853805542,0.33898305892944336,0.5232620239257812,-0.9259533286094666,0.48356392979621887
165,22317,22318,-0.038882914930582047,0.0533381812274456,0.9970241785049438,20.216960906982422,7.524848937988281,10.81817626953125,-0.10649467259645462,-3.079345941543579,0.3404829800128937,0.5822656154632568,-0.6556779146194458,0.5797070860862732
166,22327,22328,-0.05026549473404884,-0.0924653559923172,0.8948197960853577,11.724390983581543,12.943779945373535,10.568814277648926,-0.113994300365448,-3.080845832824707,0.32698363065719604,0.42465218901634216,-0.47901347279548645,0.697571873664856
167,22337,22338,0.005001408979296684,0.07646846771240234,0.9713739156723022,-3.590869426727295,12.132634162902832,9.296212196350098,-0.08849557489156723,-3.079345941543579,0.3134843111038208,0.22978462278842926,-0.42773163318634033,0.8128548860549927
168,22347,22348,-0.07069871574640274,0.029476525261998177,0.9714187979698181,-17.284658432006836,9.678817749023438,7.773735046386719,-0.08999549597501755,-3.077846050262451,0.31798410415649414,0.12032315135002136,-0.6152935028076172,0.9045642614364624
169,22357,22358,0.01913195475935936,0.04875890165567398,0.9691938757896423,-27.006900787353516,3.170488119125366,5.623067378997803,-0.0944952741265297,-3.08534574508667,0.3314834237098694,0.0902351588010788,-0.974553108215332,0.9776737689971924
170,22367,22368,0.0855601355433464,0.030398869886994362,0.952200710773468,-27.062850952148438,-6.173801422119141,3.6590514183044434,-0.09149542450904846,-3.0763461589813232,0.31948402523994446,0.12826259434223175,-1.4009270668029785,1.0325981378555298
171,22377,22378,0.0501943863928318,0.14090491831302643,1.0324347019195557,-19.759525299072266,-17.310710906982422,1.297229528427124,-0.09899504482746124,-3.0748462677001953,0.32998350262641907,0.3326670229434967,-1.5550410747528076,1.0461541414260864
172,22387,22388,-0.12817375361919403,0.1904171258211136,1.0358210802078247,-10.208094596862793,-19.511472702026367,-0.08247868716716766,-0.09749512374401093,-3.082345724105835,0.3224838674068451,0.5596998929977417,-1.383279800415039,1.034345269203186
173,22397,22398,0.021366240456700325,0.24080362915992737,1.143568515777588,3.570603132247925,-17.11569595336914,-0.4080987870693207,-0.10049497336149216,-3.0763461589813232,0.3254837095737457,0.7659252882003784,-1.4589952230453491,1.0304374694824219
174,22407,22408,-0.08175452798604965,0.07261458039283752,1.0428614616394043,13.379609107971191,-13.649904251098633,0.004475048743188381,-0.085495725274086,-3.0733463764190674,0.3434828221797943,1.0224992036819458,-1.3211543560028076,1.0135806798934937
175,22417,22418,0.08394501358270645,0.011685535311698914,0.962186872959137,18.28770637512207,0.24235309660434723,2.0585544109344482,-0.0764961764216423,-3.08534574508667,0.3224838674068451,0.9266496896743774,-1.1393178701400757,1.0605496168136597
176,22427,22428,-0.0013985203113406897,-0.006059014704078436,1.0014960765838623,15.640287399291992,14.969022750854492,2.741156816482544,-0.09749512374401093,-3.088345527648926,0.32848358154296875,0.7977780699729919,-0.9458326101303101,1.0989553928375244
177,22437,22438,-0.2580752968788147,0.03964419662952423,0.9506879448890686,12.239205360412598,26.358766555786133,2.4122323989868164,-0.08849557489156723,-3.08534574508667,0.3254837095737457,0.6078748106956482,-0.8680247068405151,1.1296195983886719
178,22447,22448,-0.20681853592395782,0.10024239867925644,1.0405998229980469,7.380117416381836,33.534812927246094,1.7150604724884033,-0.08699564635753632,-3.0658466815948486,0.3209839463233948,0.1674683392047882,-0.7886126637458801,1.1738747358322144
179,22457,22458,0.06647711992263794,-0.12244114279747009,1.0950596332550049,2.3710572719573975,29.86269760131836,1.0655008554458618,-0.08849557489156723,-3.088345527648926,0.33448326587677,0.0067240712232887745,-0.717553973197937,1.1537210941314697
180,22467,22468,0.0497695654630661,-0.23788566887378693,0.8906789422035217,1.7583653926849365,17.21542739868164,0.4587072432041168,-0.10199490189552307,-3.077846050262451,0.32698363065719604,-0.2987522780895233,-0.6863958835601807,1.1687242984771729
181,22477,22478,-0.051728248596191406,-0.03868188336491585,0.9213252663612366,-1.0850520133972168,4.217523574829102,-0.9061640501022339,-0.0944952741265297,-3.0763461589813232,0.3224838674068451,-0.3254351019859314,-0.6828669905662537,1.1515288352966309
182,22487,22488,-0.21881334483623505,0.13652551174163818,0.9188741445541382,-3.492802858352661,-5.446664333343506,-2.952389717102051,-0.09299534559249878,-3.080845832824707,0.34498274326324463,-0.32320958375930786,-0.7284184098243713,1.1353039741516113
183,22497,22498,-0.07706236094236374,0.04117431864142418,1.0035104751586914,0.8136585354804993,-7.553750514984131,-3.7333950996398926,-0.09299534559249878,-3.0748462677001953,0.32998350262641907,-0.2287740558385849,-0.7483346462249756,1.0985056161880493
184,22507,22508,-0.1075657308101654,0.055802084505558014,1.030713438987732,8.258708000183105,-5.041098594665527,-3.2643816471099854,-0.10049497336149216,-3.0763461589813232,0.3254837095737457,-0.12757991254329681,-0.6653861403465271,1.0584577322006226
185,22517,22518,-0.0018237476469948888,-0.11341140419244766,1.0323063135147095,14.068005561828613,0.6346111297607422,-2.6287930011749268,-0.10199490189552307,-3.0898454189300537,0.30898454785346985,-0.0865514948964119,-0.4846971929073334,1.0249484777450562
186,22527,22528,0.009499641135334969,-0.1940094381570816,0.9240515232086182,17.348278045654297,5.471921920776367,-0.5470263361930847,-0.10049497336149216,-3.0973451137542725,0.31948402523994446,-0.129536971449852,-0.2291303128004074,1.0069236755371094
187,22537,22538,-0.09120885282754898,-0.025849241763353348,0.8881979584693909,11.162942886352539,7.3414411544799805,1.2278097867965698,-0.085495725274086,-3.079345941543579,0.3164841830730438,-0.23551270365715027,-0.007386538200080395,1.0125454664230347
188,22547,22548,-0.1356518268585205,0.23873837292194366,1.0292538404464722,-2.604945182800293,7.6382951736450195,0.9422658085823059,-0.10199490189552307,-3.086845636367798,0.31798410415649414,-0.2267150729894638,-0.2984621226787567,1.0118992328643799
189,22557,22558,-0.31452223658561707,0.09873659908771515,1.0009551048278809,-17.794174194335938,3.3893589973449707,0.5796109437942505,-0.09899504482746124,-3.080845832824707,0.3209839463233948,-0.5505302548408508,-0.173264279961586,1.0461888313293457
190,22567,22568,-0.9624779224395752,0.06257239729166031,1.0552846193313599,-23.2410945892334,-5.774679183959961,0.5778073668479919,-0.08099594712257385,-3.0928452014923096,0.31798410415649414,-0.505241870880127,-0.5150893330574036,1.0451257228851318
191,22577,22578,-0.23427963256835938,-0.07645516842603683,0.9392895698547363,-20.902820587158203,-9.171637535095215,1.148777961730957,-0.0944952741265297,-3.0913453102111816,0.3134843111038208,-0.22746382653713226,-1.1409918069839478,1.0253263711929321
192,22587,22588,-0.029342040419578552,-0.03400258719921112,1.0094263553619385,-14.827980041503906,-6.619823455810547,1.865878701210022,-0.08099594712257385,-3.086845636367798,0.3209839463233948,-0.12195048481225967,-1.0993911027908325,1.0424079895019531
193,22597,22598,-0.07292892038822174,0.17947891354560852,1.0831120014190674,-1.659781813621521,-3.7942698001861572,2.428823947906494,-0.08249587565660477,-3.079345941543579,0.3164841830730438,-0.047070540487766266,-1.398632287979126,1.0591473579406738
194,22607,22608,-0.1750524938106537,0.08745536208152771,1.0432648658752441,11.165678024291992,4.972249984741211,3.0232126712799072,-0.08099594712257385,-3.0748462677001953,0.31798410415649414,-0.07632254809141159,-1.2548905611038208,1.092432975769043
195,22617,22618,-0.10993422567844391,-0.009397742338478565,1.0089339017868042,24.339447021484375,19.87693977355957,3.4279849529266357,-0.07799609750509262,-3.077846050262451,0.31798410415649414,-0.47078219056129456,-0.6928443908691406,1.169190764427185
196,22627,22628,-0.04994329437613487,0.069383904337883,0.9600945711135864,28.94706153869629,25.037492752075195,3.4712350368499756,-0.09899504482746124,-3.083845853805542,0.3209839463233948,-0.20822866261005402,-0.9380411505699158,1.1256624460220337
197,22637,22638,0.020639043301343918,0.17681904137134552,1.0837620496749878,22.73509407043457,26.07285499572754,3.573761463165283,-0.08249587565660477,-3.0973451137542725,0.30748462677001953,-0.5875688791275024,-0.7508503794670105,1.1670578718185425
198,22647,22648,0.003994212951511145,0.14327405393123627,0.9887108206748962,14.216191291809082,20.596092224121094,3.1496434211730957,-0.07949602603912354,-3.08534574508667,0.3224838674068451,-0.9058350920677185,-0.546545684337616,1.209713339805603
199,22657,22658,-0.043802570551633835,0.013570834882557392,1.002950668334961,6.530142784118652,12.1627197265625,2.106099843978882,-0.085495725274086,-3.0913453102111816,0.31948402523994446,-0.8840930461883545,-0.4106181859970093,1.215988039970398
200,22667,22668,0.017717983573675156,-0.006808319129049778,1.0615057945251465,0.3879821300506592,2.256099224090576,1.2069045305252075,-0.08849557489156723,-3.0913453102111816,0.3224838674068451,-1.015784502029419,-0.30984264612197876,1.2430249452590942
201,22677,22678,-0.07093572616577148,0.039943430572748184,1.0654664039611816,-4.587795257568359,-10.119440078735352,0.1531992405653,-0.085495725274086,-3.088345527648926,0.3314834237098694,-0.9448288679122925,-0.3049444258213043,1.2473527193069458
202,22687,22688,-0.011252733878791332,0.06190923973917961,1.0787227153778076,-4.7696943283081055,-14.983750343322754,0.18377017974853516,-0.10049497336149216,-3.079345941543579,0.31048446893692017,-0.749843418598175,-0.3329145610332489,1.2431011199951172
203,22697,22698,-0.035562384873628616,-0.17940738797187805,1.0201271772384644,-3.651186227798462,-14.383719444274902,1.2331786155700684,-0.09599519520998001,-3.0958452224731445,0.3149842321872711,-0.6133013367652893,-0.41951072216033936,1.2468522787094116
204,22707,22708,-0.06851666420698166,-0.027847327291965485,1.0053322315216064,-3.6271779537200928,-11.724113464355469,0.5871322751045227,-0.09899504482746124,-3.0928452014923096,0.3029848337173462,-0.6274005174636841,-0.36121034622192383,1.278739094734192
205,22717,22718,-0.07831529527902603,0.04532366991043091,1.0695165395736694,4.160122871398926,-2.1536312103271484,-1.107242465019226,-0.0944952741265297,-3.0973451137542725,0.3314834237098694,-0.5417858958244324,-0.3018321394920349,1.2855370044708252
206,22727,22728,0.020775271579623222,-0.04409008473157883,1.0303913354873657,12.717519760131836,5.9064483642578125,-2.3962481021881104,-0.10649467259645462,-3.08534574508667,0.3164841830730438,-0.5929955840110779,-0.7345244884490967,1.219120740890503
207,22737,22738,-0.036401424556970596,0.016297049820423126,1.0411425828933716,19.170448303222656,11.594708442687988,-4.333424091339111,-0.08999549597501755,-3.077846050262451,0.3239837884902954,-0.7507981657981873,-0.45056748390197754,1.2069505453109741
208,22747,22748,-0.036489494144916534,-0.004654811229556799,1.0254870653152466,26.183347702026367,14.914169311523438,-7.202779769897461,-0.10649467259645462,-3.0943453311920166,0.31948402523994446,-1.0434545278549194,-0.2740423381328583,1.1573269367218018
209,22757,22758,-0.022152939811348915,-0.005347126629203558,1.02161705493927,32.3339958190918,11.587695121765137,-9.073725700378418,-0.09149542450904846,-3.079345941543579,0.31948402523994446,-1.2258920669555664,0.2157599925994873,1.107048749923706
210,22767,22768,-0.05942702293395996,-0.0028282373677939177,1.0279597043991089,34.22627639770508,4.62381649017334,-9.818353652954102,-0.1049947515130043,-3.086845636367798,0.32698363065719604,-1.3175238370895386,0.47224074602127075,1.004128098487854
211,22777,22778,-0.014929587952792645,-0.023629238829016685,0.9995502233505249,29.288475036621094,-4.830174446105957,-9.893853187561035,-0.09749512374401093,-3.08534574508667,0.3314834237098694,-1.213387370109558,0.8440223336219788,0.9067791700363159
212,22787,22788,-0.045176535844802856,-0.17789039015769958,1.008982539176941,22.754871368408203,-15.200037002563477,-9.998562812805176,-0.09899504482746124,-3.0958452224731445,0.3209839463233948,-1.0430264472961426,1.0437610149383545,0.792849600315094
213,22797,22798,-0.05160028114914894,-0.272555410861969,1.0447149276733398,18.606298446655273,-26.572803497314453,-8.572366714477539,-0.113994300365448,-3.0928452014923096,0.32998350262641907,-0.6372459530830383,1.3692082166671753,0.7096806764602661
214,22807,22808,-0.12600089609622955,-0.03812877833843231,0.9926548600196838,15.716280937194824,-32.615116119384766,-7.077261447906494,-0.1049947515130043,-3.0928452014923096,0.32998350262641907,-0.3762114942073822,1.5606569051742554,0.6216363310813904
215,22817,22818,-0.11808876693248749,0.01628291606903076,0.9950389862060547,10.001958847045898,-27.904294967651367,-5.962831497192383,-0.09899504482746124,-3.0958452224731445,0.3209839463233948,-0.032464127987623215,1.8241978883743286,0.5623865127563477
216,22827,22828,-0.12073639780282974,0.1380641758441925,1.1025395393371582,-0.40315738320350647,-20.423297882080078,-5.7568488121032715,-0.10199490189552307,-3.0898454189300537,0.3209839463233948,0.2913922071456909,1.8057281970977783,0.4877621829509735
217,22837,22838,-0.06269711256027222,0.04520631209015846,1.0167409181594849,-7.297852993011475,-11.208030700683594,-4.775394439697266,-0.08999549597501755,-3.0958452224731445,0.3119843900203705,0.41222083568573,1.792104721069336,0.42014238238334656
218,22847,22848,-0.03640541806817055,0.00881840568035841,0.9669345617294312,-14.321000099182129,-0.11422615498304367,-4.459400653839111,-0.09749512374401093,-3.0913453102111816,0.31048446893692017,0.5484482645988464,1.6475858688354492,0.37248489260673523
219,22857,22858,-0.045680541545152664,-0.011364965699613094,0.942090630531311,-17.085893630981445,9.714192390441895,-3.241507053375244,-0.10949452221393585,-3.0913453102111816,0.32848358154296875,0.372493177652359,1.43666410446167,0.30528533458709717
220,22867,22868,-0.0917353704571724,0.02452760934829712,0.9795771241188049,-16.52129364013672,19.846527099609375,-2.372849941253662,-0.10349482297897339,-3.08534574508667,0.3254837095737457,0.12832121551036835,1.224413514137268,0.25510913133621216
221,22877,22878,-0.08449967950582504,-0.04908003658056259,0.9191280603408813,-13.055429458618164,26.50483512878418,-2.170888662338257,-0.11099445074796677,-3.080845832824707,0.3239837884902954,-0.0973389595746994,1.2396469116210938,0.242238387465477
222,22887,22888,-0.05359868332743645,0.016723109409213066,0.9727246165275574,-9.803567886352539,28.028348922729492,-2.8529698848724365,-0.11249437183141708,-3.088345527648926,0.32848358154296875,-0.524599015712738,1.073573350906372,0.18909533321857452
223,22897,22898,-0.05205455422401428,-0.10639802366495132,0.8987724781036377,-2.200298309326172,29.931623458862305,-2.8471529483795166,-0.10799460113048553,-3.083845853805542,0.31798410415649414,-0.7666807174682617,1.0033705234527588,0.1758270263671875
224,22907,22908,-0.267145037651062,-0.12472309172153473,0.8937684297561646,1.8365384340286255,26.504013061523438,-4.283138275146484,-0.11549422144889832,-3.082345724105835,0.3404829800128937,-1.1411502361297607,1.0292330980300903,0.1358673870563507
225,22917,22918,-0.060690656304359436,0.01385501865297556,0.9369990825653076,4.457770824432373,20.219005584716797,-5.908411979675293,-0.10949452221393585,-3.08534574508667,0.32848358154296875,-1.3000147342681885,1.105576992034912,0.11680825799703598
226,22927,22928,-0.011398092843592167,0.2269963175058365,1.0257227420806885,9.097739219665527,9.346781730651855,-8.084272384643555,-0.11549422144889832,-3.079345941543579,0.32848358154296875,-1.53570556640625,1.2326233386993408,0.05311384052038193
227,22937,22938,-0.04068991541862488,0.2517181932926178,1.0648691654205322,11.162277221679688,-3.379753351211548,-10.288487434387207,-0.10949452221393585,-3.079345941543579,0.3224838674068451,-1.5716800689697266,1.4063581228256226,-0.014102794229984283
228,22947,22948,-0.10163183510303497,0.14037545025348663,1.0431439876556396,11.003363609313965,-14.954158782958984,-11.02216625213623,-0.113994300365448,-3.0958452224731445,0.32698363065719604,-1.341170072555542,1.586501121520996,-0.07348671555519104
229,22957,22958,-0.13694311678409576,0.0010835108114406466,0.9499090909957886,7.4893059730529785,-25.37282943725586,-11.542352676391602,-0.11549422144889832,-3.0913453102111816,0.3254837095737457,-1.0826524496078491,1.3906371593475342,-0.20852015912532806
230,22967,22968,-0.07397550344467163,0.07674843817949295,1.002661108970642,1.9864327907562256,-30.469396591186523,-11.714601516723633,-0.11999399960041046,-3.0988450050354004,0.31798410415649414,-0.763935923576355,1.7573401927947998,-0.27603790163993835
231,22977,22978,-0.03780234232544899,0.03802496939897537,0.9861229062080383,4.255381107330322,-29.481042861938477,-11.251948356628418,-0.1049947515130043,-3.0988450050354004,0.3329833447933197,-0.34842151403427124,1.7933928966522217,-0.37456461787223816
232,22987,22988,-0.13500499725341797,-0.24457594752311707,0.8642287254333496,5.245128631591797,-28.61811065673828,-9.201000213623047,-0.12449377030134201,-3.0913453102111816,0.31948402523994446,-0.15741893649101257,1.854698657989502,-0.5155242085456848
233,22997,22998,0.09305267781019211,-0.23161205649375916,0.9638931751251221,-0.15895970165729523,-17.167139053344727,-7.207523345947266,-0.113994300365448,-3.0898454189300537,0.32698363065719604,0.21004056930541992,1.8817706108093262,-0.584762454032898
234,23007,23008,0.01549052819609642,-0.034150026738643646,0.9160911440849304,-11.581697463989258,-7.394671440124512,-5.978294849395752,-0.10199490189552307,-3.0928452014923096,0.33598318696022034,0.4000425636768341,1.8543721437454224,-0.6455980539321899
235,23017,23018,-0.1895151138305664,0.2289973944425583,0.9070321917533875,-22.93524932861328,0.7375901937484741,-5.310173034667969,-0.1049947515130043,-3.0928452014923096,0.3329833447933197,0.2503843605518341,1.572761058807373,-0.7764397263526917
236,23027,23028,-0.1297503411769867,0.23798683285713196,1.1759246587753296,-25.73069190979004,14.920000076293945,-3.175402879714966,-0.10049497336149216,-3.08534574508667,0.3314834237098694,0.1896897703409195,1.1615798473358154,-0.8414538502693176
237,23037,23038,-0.14733143150806427,0.28872019052505493,1.061108946800232,-24.487030029296875,20.408496856689453,-2.312731981277466,-0.09749512374401093,-3.0733463764190674,0.32848358154296875,-0.01762598566710949,0.7438674569129944,-0.8887760043144226
238,23047,23048,-0.018482698127627373,0.12809376418590546,1.0313950777053833,-18.618181228637695,24.26173210144043,-1.0065160989761353,-0.10049497336149216,-3.1003448963165283,0.31948402523994446,-0.4390038847923279,0.40573883056640625,-0.9674422144889832
239,23057,23058,0.00997850950807333,-0.034243904054164886,0.8617285490036011,-7.515334606170654,21.399803161621094,0.7346204519271851,-0.09899504482746124,-3.077846050262451,0.3329833447933197,-0.7256003022193909,0.4221322238445282,-0.9753978252410889
240,23067,23068,-0.054280947893857956,0.029728539288043976,0.8700248599052429,5.05559778213501,11.913642883300781,2.1877050399780273,-0.10349482297897339,-3.08534574508667,0.33448326587677,-0.9067260026931763,0.5414376258850098,-0.9510185122489929
241,23077,23078,0.015139870345592499,-0.1273965984582901,1.0084065198898315,15.834601402282715,2.436882734298706,3.9740402698516846,-0.10199490189552307,-3.0898454189300537,0.33598318696022034,-0.9988871216773987,0.7035357356071472,-0.916207492351532
242,23087,23088,-0.020622199401259422,-0.049074601382017136,0.9520090818405151,19.294069290161133,-4.323292255401611,4.112092018127441,-0.10649467259645462,-3.0913453102111816,0.32848358154296875,-0.9705878496170044,0.8454644083976746,-0.8687833547592163
243,23097,23098,-0.17292754352092743,-0.029641084372997284,0.9661117196083069,15.280417442321777,-12.709972381591797,4.43013334274292,-0.12449377030134201,-3.088345527648926,0.3164841830730438,-0.8002987504005432,1.117843508720398,-0.7981659770011902
244,23107,23108,-0.06977831572294235,0.004045103210955858,0.9740844368934631,7.988831996917725,-16.43389129638672,4.281249523162842,-0.11699414998292923,-3.083845853805542,0.32998350262641907,-0.605326235294342,1.0773178339004517,-0.7612307071685791
245,23117,23118,-0.04829802364110947,0.005501935258507729,0.9649839401245117,-0.016496092081069946,-17.244184494018555,5.226611614227295,-0.12149392068386078,-3.08534574508667,0.3254837095737457,-0.6437399983406067,1.1362693309783936,-0.761295735836029
246,23127,23128,-0.06172766163945198,0.005107295233756304,0.9501656293869019,-7.498929500579834,-18.996448516845703,6.074529647827148,-0.10799460113048553,-3.104844808578491,0.33598318696022034,-0.16347277164459229,1.074072241783142,-0.6546218395233154
247,23137,23138,0.16638605296611786,-0.005049747880548239,1.0157073736190796,-17.009870529174805,-21.16080665588379,4.769840240478516,-0.10349482297897339,-3.0943453311920166,0.3254837095737457,-0.25498199462890625,0.8002911806106567,-0.6669825315475464
248,23147,23148,0.0014672906836494803,-0.005788357462733984,0.9568125605583191,-23.800119400024414,-25.31740379333496,3.255113124847412,-0.11549422144889832,-3.088345527648926,0.32848358154296875,0.00412406399846077,0.6119667291641235,-0.6175037026405334
249,23157,23158,-0.048042137175798416,0.13716910779476166,0.9670369029045105,-24.285402297973633,-24.901132583618164,2.0378780364990234,-0.09299534559249878,-3.0898454189300537,0.32698363065719604,0.1746233105659485,0.2985875606536865,-0.6089963316917419
250,23167,23168,-0.17997226119041443,0.15808309614658356,1.0018947124481201,-21.905046463012695,-14.329753875732422,0.32660093903541565,-0.085495725274086,-3.0943453311920166,0.3314834237098694,0.5467557311058044,-0.0660945326089859,-0.5731816291809082
251,23177,23178,-0.20445340871810913,0.05693303048610687,1.0005366802215576,-14.174543380737305,-2.3091046810150146,-0.5144116282463074,-0.09299534559249878,-3.0928452014923096,0.3209839463233948,0.5089467763900757,-0.27118784189224243,-0.596315324306488
252,23187,23188,-0.03948875144124031,-0.01721084862947464,1.033034324645996,0.19861820340156555,7.915502548217773,-0.708957850933075,-0.09149542450904846,-3.079345941543579,0.33448326587677,0.5043471455574036,-0.310590922832489,-0.6037590503692627
253,23197,23198,0.1646708846092224,-0.0793786570429802,0.9695402979850769,20.10590362548828,11.648407936096191,0.42877236008644104,-0.10799460113048553,-3.0748462677001953,0.3329833447933197,0.37402138113975525,-0.13603191077709198,-0.6155646443367004
254,23207,23208,-0.07070228457450867,-0.0056978072971105576,0.9533153176307678,36.732154846191406,10.471511840820312,2.3298020362854004,-0.10799460113048553,-3.0928452014923096,0.3209839463233948,0.09401208907365799,0.3447297513484955,-0.6240516304969788
255,23217,23218,-0.03815402463078499,0.05677688121795654,1.0183742046356201,44.155250549316406,8.980836868286133,2.495523691177368,-0.09749512374401093,-3.103344678878784,0.3044847846031189,0.06517390161752701,0.9408172965049744,-0.5958558320999146
256,23227,23228,-0.09558376669883728,-0.03813417628407478,0.9505166411399841,39.658355712890625,3.095674514770508,2.5323219299316406,-0.0944952741265297,-3.109344482421875,0.3164841830730438,0.23939576745033264,1.3103375434875488,-0.550107479095459
257,23237,23238,-0.030889812856912613,0.0217290036380291,1.0228139162063599,22.900758743286133,-6.93137264251709,1.8585724830627441,-0.0944952741265297,-3.109344482421875,0.3164841830730438,0.11064592748880386,1.6482417583465576,-0.5368783473968506
258,23247,23248,-0.05320080369710922,-0.035711996257305145,0.9831260442733765,4.843149662017822,-11.718191146850586,1.1719144582748413,-0.0944952741265297,-3.109344482421875,0.3164841830730438,-0.041316185146570206,1.765999436378479,-0.5434296727180481
259,23257,23258,0.02564411051571369,-0.1319059431552887,0.8147294521331787,-14.923142433166504,-10.267300605773926,2.778238534927368,-0.08699564635753632,-3.086845636367798,0.3029848337173462,0.2064511477947235,1.6284269094467163,-0.5115085244178772
260,23267,23268,-0.07885574549436569,-0.026188738644123077,0.7473315000534058,-31.624147415161133,-7.864200115203857,2.847757577896118,-0.09899504482746124,-3.0988450050354004,0.3059847056865692,0.3568263649940491,1.436102271080017,-0.48278293013572693
261,23277,23278,-0.2296062558889389,0.18029551208019257,0.9568825364112854,-48.49691390991211,-0.6308345198631287,2.8012912273406982,-0.08849557489156723,-3.08534574508667,0.3044847846031189,0.4572402536869049,0.7952754497528076,-0.4376991391181946
262,23287,23288,-0.08696024119853973,0.046037301421165466,1.042263388633728,-50.821022033691406,3.322878360748291,4.465631008148193,-0.07949602603912354,-3.0943453311920166,0.3164841830730438,0.2553444802761078,0.25832101702690125,-0.4250112473964691
263,23297,23298,0.01581788808107376,-0.06343836337327957,1.0541678667068481,-43.972328186035156,6.211042881011963,3.1583921909332275,-0.0764961764216423,-3.1213438510894775,0.3134843111038208,0.22696106135845184,-0.22544004023075104,-0.3827090859413147
264,23307,23308,-0.010428437031805515,0.01292306650429964,1.088271141052246,-25.22449493408203,2.9639532566070557,1.590377926826477,-0.08249587565660477,-3.109344482421875,0.3044847846031189,0.14105583727359772,-0.2645818591117859,-0.38294288516044617
265,23317,23318,-0.08763285726308823,0.17035484313964844,1.0797145366668701,0.9411082863807678,-6.103271961212158,1.1273339986801147,-0.085495725274086,-3.109344482421875,0.31048446893692017,0.24431446194648743,-0.4480718672275543,-0.35941681265830994
266,23327,23328,-0.12476051598787308,0.2128172069787979,1.121463656425476,24.446260452270508,-16.10102653503418,-0.013596792705357075,-0.08399579674005508,-3.0928452014923096,0.3029848337173462,0.42140457034111023,-0.07734781503677368,-0.36495986580848694
267,23337,23338,-0.009038266725838184,0.025741705670952797,1.0792615413665771,40.42538070678711,-19.446502685546875,-0.04360745847225189,-0.08699564635753632,-3.104844808578491,0.3119843900203705,0.6220068335533142,0.1569388508796692,-0.35940584540367126
268,23347,23348,0.030846161767840385,0.009243343025445938,1.0447434186935425,42.11772537231445,-19.12625503540039,-0.935379147529602,-0.085495725274086,-3.103344678878784,0.3224838674068451,0.9741189479827881,0.733405351638794,-0.3739693760871887
269,23357,23358,-0.04568197578191757,-0.0576249361038208,1.037468433380127,31.156383514404297,-14.841573715209961,0.20988807082176208,-0.07499624788761139,-3.1198439598083496,0.3119843900203705,1.0593537092208862,1.0521349906921387,-0.3783460557460785
270,23367,23368,0.0776832178235054,-0.05920709669589996,1.0349760055541992,14.596168518066406,-7.585133075714111,-0.08261401206254959,-0.08249587565660477,-3.112344264984131,0.29848507046699524,1.264827013015747,1.2908101081848145,-0.37467625737190247
271,23377,23378,0.007825584150850773,-0.12436676025390625,0.8981521725654602,-4.460474014282227,0.522322952747345,2.2199361324310303,-0.08099594712257385,-3.104844808578491,0.3059847056865692,1.2850017547607422,1.312255620956421,-0.36160513758659363
272,23387,23388,-0.04470594599843025,-0.01693001203238964,1.045403003692627,-18.844621658325195,8.011608123779297,4.494810581207275,-0.07799609750509262,-3.104844808578491,0.3119843900203705,1.2414085865020752,1.0624924898147583,-0.314042329788208
273,23397,23398,-0.06669732183218002,0.09689993411302567,1.0990618467330933,-29.089075088500977,12.269732475280762,8.850202560424805,-0.07049647718667984,-3.103344678878784,0.3134843111038208,1.1029620170593262,0.9105010628700256,-0.27039575576782227
274,23407,23408,-0.07417459040880203,0.013718456961214542,1.0809557437896729,-40.69692611694336,9.790064811706543,12.770445823669434,-0.0764961764216423,-3.0973451137542725,0.31048446893692017,1.024836778640747,0.4423903524875641,-0.14121265709400177
275,23417,23418,-0.02782340720295906,0.06718896329402924,1.1042498350143433,-49.97251892089844,4.168686389923096,14.189165115356445,-0.0764961764216423,-3.0973451137542725,0.3164841830730438,0.9246930480003357,0.018072573468089104,-0.011015025898814201
276,23427,23428,-0.07033178955316544,-0.03769068419933319,1.0225746631622314,-56.937835693359375,-7.16783332824707,13.782177925109863,-0.085495725274086,-3.1003448963165283,0.3044847846031189,0.894291877746582,-0.6749851107597351,0.16005660593509674
277,23437,23438,-0.05009476840496063,0.045472078025341034,1.0689520835876465,-54.355613708496094,-16.585826873779297,12.04209041595459,-0.08399579674005508,-3.0988450050354004,0.31798410415649414,0.9029296040534973,-0.8406834602355957,0.21757464110851288
278,23447,23448,-0.028081951662898064,-0.0224529467523098,1.043217420578003,-38.20555877685547,-20.94424057006836,11.27989673614502,-0.07949602603912354,-3.0913453102111816,0.3254837095737457,1.1724127531051636,-1.224892497062683,0.3182384669780731
279,23457,23458,-0.10847648978233337,-0.12108707427978516,0.9529476165771484,-22.082849502563477,-21.295507431030273,10.454444885253906,-0.08249587565660477,-3.082345724105835,0.3224838674068451,1.4692617654800415,-1.7681421041488647,0.47368720173835754
280,23467,23468,-0.11386694759130478,-0.002940539736300707,1.0182119607925415,-6.992758750915527,-16.692108154296875,8.551403999328613,-0.08249587565660477,-3.0943453311920166,0.31948402523994446,1.582873821258545,-1.7685364484786987,0.5441664457321167
281,23477,23478,-0.020495044067502022,0.07833372801542282,1.0755300521850586,11.89932632446289,-5.988463401794434,8.728081703186035,-0.085495725274086,-3.0763461589813232,0.33448326587677,1.7051693201065063,-1.8459676504135132,0.6464871168136597
282,23487,23488,-0.04193860664963722,0.05012879893183708,1.037232518196106,26.36583137512207,6.245594024658203,10.348420143127441,-0.07799609750509262,-3.083845853805542,0.32698363065719604,1.702978491783142,-1.5723589658737183,0.7153953909873962
283,23497,23498,-0.0034005732741206884,0.0126023069024086,1.0427172183990479,32.710262298583984,15.111199378967285,11.923396110534668,-0.07049647718667984,-3.079345941543579,0.31948402523994446,1.551024079322815,-1.1378306150436401,0.793044924736023
284,23507,23508,-0.012629296630620956,-0.009165046736598015,1.0039960145950317,25.169204711914062,21.301605224609375,11.318584442138672,-0.08849557489156723,-3.088345527648926,0.3164841830730438,1.2738361358642578,-0.8607936501502991,0.9339895844459534
285,23517,23518,-0.03735294193029404,0.026154853403568268,1.0383185148239136,9.301474571228027,20.6009521484375,9.719841957092285,-0.09599519520998001,-3.0898454189300537,0.3239837884902954,1.0840290784835815,-0.6428562998771667,1.033352017402649
286,23527,23528,-0.018776966258883476,0.03721870109438896,1.0275894403457642,-10.438374519348145,13.189131736755371,6.6460065841674805,-0.085495725274086,-3.079345941543579,0.3224838674068451,0.8798283934593201,-0.7199982404708862,1.148783802986145
287,23537,23538,-0.04148031771183014,0.0165632925927639,1.0112431049346924,-27.105504989624023,2.0171613693237305,5.028955936431885,-0.08399579674005508,-3.077846050262451,0.32998350262641907,0.8448373079299927,-1.0762786865234375,1.2460792064666748
288,23547,23548,-0.037257228046655655,0.006422157399356365,1.016927719116211,-31.991716384887695,-7.809254169464111,3.8501319885253906,-0.08999549597501755,-3.0718462467193604,0.341982901096344,0.9212379455566406,-1.5847069025039673,1.3361269235610962
289,23557,23558,-0.08656707406044006,0.006202660035341978,0.9925251007080078,-23.686384201049805,-11.361735343933105,3.116741418838501,-0.08699564635753632,-3.0658466815948486,0.31798410415649414,1.0322452783584595,-2.0514519214630127,1.4100096225738525
290,23567,23568,-0.05915021896362305,0.020473670214414597,1.0314139127731323,-10.75512409210205,-7.648705959320068,2.2243762016296387,-0.09749512374401093,-3.079345941543579,0.32848358154296875,1.122545599937439,-1.7052277326583862,1.3191821575164795
291,23577,23578,-0.06301254034042358,-0.20453806221485138,0.9611853361129761,2.986579179763794,-0.374650776386261,1.5850799083709717,-0.09299534559249878,-3.0658466815948486,0.3329833447933197,1.1984121799468994,-1.8133741617202759,1.344225287437439
292,23587,23588,-0.08204930275678635,-0.23219060897827148,0.94292813539505,15.430645942687988,6.138325214385986,1.9472754001617432,-0.09299534559249878,-3.0688464641571045,0.33598318696022034,1.0953869819641113,-1.6225054264068604,1.3572006225585938
293,23597,23598,-0.10989609360694885,-0.13167518377304077,1.0245590209960938,23.098360061645508,16.502599716186523,0.9344807863235474,-0.0944952741265297,-3.05834698677063,0.33748310804367065,1.0725271701812744,-1.486354112625122,1.3642239570617676
294,23607,23608,-0.20244431495666504,-0.01875222474336624,1.021276831626892,25.106321334838867,20.83363914489746,1.0521281957626343,-0.08699564635753632,-3.0628468990325928,0.33598318696022034,0.7768683433532715,-1.2729976177215576,1.4071730375289917
295,23617,23618,-0.14699287712574005,-0.17705819010734558,0.8743943572044373,20.175453186035156,26.749958038330078,2.5476202964782715,-0.09749512374401093,-3.0733463764190674,0.3494825065135956,0.5257514119148254,-1.0788334608078003,1.4324194192886353
296,23627,23628,0.007130772806704044,-0.22928236424922943,0.8810632228851318,12.221733093261719,23.970279693603516,5.0952887535095215,-0.10649467259645462,-3.0733463764190674,0.33748310804367065,0.1959415227174759,-0.8255031704902649,1.4687256813049316
297,23637,23638,-0.14534416794776917,-0.10678587108850479,0.8518362641334534,-2.72707462310791,14.835092544555664,5.984190940856934,-0.09749512374401093,-3.0643467903137207,0.3404829800128937,0.12815409898757935,-0.7590907216072083,1.4859148263931274
298,23647,23648,-0.28015655279159546,0.11474332958459854,0.9094221591949463,-19.51644515991211,8.995072364807129,5.882247447967529,-0.09599519520998001,-3.056847095489502,0.32698363065719604,0.012363382615149021,-1.1720300912857056,1.5934154987335205
299,23657,23658,-0.16870544850826263,0.11348160356283188,0.9230437278747559,-26.845367431640625,0.5298017859458923,6.147607803344727,-0.10199490189552307,-3.0658466815948486,0.3329833447933197,-0.02411266416311264,-1.34835946559906,1.6341296434402466
300,23667,23668,-0.04011953994631767,0.02407083474099636,0.9252028465270996,-18.941020965576172,-12.13034439086914,6.848483562469482,-0.10199490189552307,-3.0628468990325928,0.33898305892944336,0.05576777830719948,-1.656893014907837,1.6891649961471558
301,23677,23678,-0.11348792165517807,-0.08017440140247345,0.8713706135749817,-6.528080940246582,-24.683534622192383,8.614327430725098,-0.08849557489156723,-3.0763461589813232,0.3224838674068451,0.22056646645069122,-1.7876641750335693,1.760923147201538
302,23687,23688,-0.1073959693312645,0.014412103220820427,1.015346646308899,2.3523671627044678,-31.880395889282227,9.343732833862305,-0.09299534559249878,-3.077846050262451,0.3239837884902954,0.5505103468894958,-1.7472038269042969,1.8310781717300415
303,23697,23698,0.02300100028514862,0.18753968179225922,0.9982883334159851,10.311325073242188,-27.470809936523438,9.39648723602295,-0.08849557489156723,-3.0703463554382324,0.33448326587677,1.015512466430664,-1.6534172296524048,1.883358359336853
304,23707,23708,0.017014246433973312,-0.08611228317022324,0.9778702259063721,11.584724426269531,-14.10619068145752,8.068394660949707,-0.085495725274086,-3.082345724105835,0.32848358154296875,1.1722651720046997,-1.6271060705184937,2.0126569271087646
305,23717,23718,0.007624027784913778,-0.08822712302207947,0.9461444020271301,12.326240539550781,0.6185699701309204,7.408797740936279,-0.08699564635753632,-3.080845832824707,0.3209839463233948,1.2750543355941772,-1.4233182668685913,2.090043544769287
306,23727,23728,-0.23873519897460938,0.08580958098173141,1.0079103708267212,17.871824264526367,13.032034873962402,7.472359657287598,-0.0944952741265297,-3.0733463764190674,0.3224838674068451,1.1687124967575073,-1.518783450126648,2.217928886413574
307,23737,23738,-0.24746957421302795,-0.11187659204006195,0.8770210146903992,16.9827880859375,28.805269241333008,6.170951843261719,-0.08399579674005508,-3.0718462467193604,0.33598318696022034,0.8698636293411255,-1.2843180894851685,2.3159842491149902
308,23747,23748,-0.1413068026304245,-0.23294882476329803,0.8421709537506104,16.566158294677734,35.58060836791992,5.364428520202637,-0.08399579674005508,-3.080845832824707,0.3239837884902954,0.553705632686615,-1.2650525569915771,2.390557289123535
309,23757,23758,-0.05643313378095627,-0.0836838111281395,0.9373481869697571,13.240338325500488,38.975914001464844,3.767117977142334,-0.08699564635753632,-3.0718462467193604,0.3239837884902954,-0.0574222058057785,-1.054262399673462,2.501577854156494
310,23767,23768,0.0001141617467510514,0.1201353371143341,1.1267125606536865,12.414467811584473,34.44023132324219,1.0324574708938599,-0.08399579674005508,-3.080845832824707,0.3209839463233948,-0.30773186683654785,-1.0275801420211792,2.4997611045837402
311,23777,23778,-0.053640298545360565,0.07334701716899872,1.040671706199646,11.806337356567383,22.380733489990234,-0.4092671573162079,-0.08999549597501755,-3.083845853805542,0.31798410415649414,-0.7823594212532043,-0.7945275902748108,2.5351548194885254
312,23787,23788,-0.06372576206922531,0.037779975682497025,0.9898167252540588,14.152973175048828,9.947888374328613,-0.846274197101593,-0.08999549597501755,-3.083845853805542,0.3239837884902954,-0.8361920118331909,-0.6903864145278931,2.4875595569610596
313,23797,23798,-0.019754866138100624,-0.010564079508185387,0.9864546656608582,15.608558654785156,-2.618849515914917,0.06561672687530518,-0.08999549597501755,-3.0898454189300537,0.3209839463233948,-0.8871435523033142,-0.41028332710266113,2.4728524684906006
314,23807,23808,0.0032389312982559204,0.0194876566529274,1.0120261907577515,16.569978713989258,-9.621767044067383,1.2177369594573975,-0.08399579674005508,-3.0718462467193604,0.32698363065719604,-0.8562955856323242,-0.39779964089393616,2.4787228107452393
315,23817,23818,0.008078462444245815,0.21489527821540833,1.1033270359039307,10.256141662597656,-14.878968238830566,2.7551286220550537,-0.0944952741265297,-3.082345724105835,0.3224838674068451,-0.6694549322128296,-0.4872952401638031,2.471035957336426
316,23827,23828,-0.03970068693161011,0.0998917818069458,1.0210669040679932,3.4348983764648438,-21.341806411743164,1.0018589496612549,-0.09899504482746124,-3.0898454189300537,0.3149842321872711,-0.44265827536582947,-0.39137133955955505,2.483036756515503
317,23837,23838,-0.00013892348215449601,-0.044463545083999634,0.9664358496665955,-0.3512750267982483,-20.73197364807129,0.1839311122894287,-0.09599519520998001,-3.083845853805542,0.3149842321872711,-0.3095231354236603,-0.38373664021492004,2.5081913471221924
318,23847,23848,-0.041968293488025665,-0.02962384931743145,1.0378700494766235,-3.7514734268188477,-18.082866668701172,-0.8481003642082214,-0.0944952741265297,-3.0973451137542725,0.3224838674068451,-0.03920673951506615,-0.35893523693084717,2.4982247352600098
319,23857,23858,-0.07826989889144897,-0.020601850003004074,1.0023828744888306,-0.4101351797580719,-8.397205352783203,-1.8598626852035522,-0.085495725274086,-3.082345724105835,0.3314834237098694,0.1681937277317047,-0.3357352614402771,2.48250150680542
320,23867,23868,0.027611320838332176,0.02827642299234867,1.0238059759140015,3.537201404571533,7.404964923858643,-3.022305727005005,-0.08699564635753632,-3.0748462677001953,0.3329833447933197,0.1491089165210724,-0.3154832422733307,2.470269203186035
321,23877,23878,0.15499496459960938,-0.1033189594745636,1.0737522840499878,9.65517520904541,15.130067825317383,-2.281160354614258,-0.09749512374401093,-3.0733463764190674,0.3314834237098694,-0.025868825614452362,-0.20426934957504272,2.459372043609619
322,23887,23888,0.13153715431690216,-0.06938961148262024,1.0363861322402954,12.834117889404297,15.841041564941406,-1.052460789680481,-0.09599519520998001,-3.0658466815948486,0.33898305892944336,-0.25781571865081787,-0.10729841887950897,2.448640823364258
323,23897,23898,-0.011724228039383888,0.1098269522190094,1.0155391693115234,11.111357688903809,17.699127197265625,-0.9574668407440186,-0.10199490189552307,-3.0748462677001953,0.32698363065719604,-0.5242654085159302,-0.08134296536445618,2.4403324127197266
324,23907,23908,0.010754788294434547,0.24096006155014038,1.069020390510559,6.649875164031982,19.020519256591797,-1.0789861679077148,-0.09899504482746124,-3.0628468990325928,0.32998350262641907,-0.7362331748008728,0.11650677025318146,2.4428110122680664
325,23917,23918,0.10031437128782272,0.013510123826563358,0.9931588172912598,7.521267414093018,10.174186706542969,-1.5709385871887207,-0.08999549597501755,-3.080845832824707,0.3329833447933197,-0.8496476411819458,0.011670677922666073,2.4134366512298584
326,23927,23928,-0.020558970049023628,0.04343462362885475,1.0046738386154175,13.011283874511719,-5.057973861694336,-3.5046944618225098,-0.10199490189552307,-3.0718462467193604,0.31798410415649414,-0.7666530609130859,0.10648136585950851,2.3808658123016357
327,23937,23938,-0.08034602552652359,-0.04812794178724289,0.9025461077690125,20.999608993530273,-9.544519424438477,-2.1864681243896484,-0.09299534559249878,-3.083845853805542,0.32698363065719604,-0.7021400928497314,0.30727332830429077,2.35414457321167
328,23947,23948,-0.1004951000213623,0.10708015412092209,0.9739919900894165,27.16339683532715,-9.187841415405273,-0.7643701434135437,-0.09899504482746124,-3.077846050262451,0.3329833447933197,-0.5425667762756348,0.6226707100868225,2.3379454612731934
329,23957,23958,0.0067159803584218025,0.30965456366539,1.081595778465271,26.371139526367188,-6.372305870056152,-0.1077553778886795,-0.10199490189552307,-3.0928452014923096,0.31798410415649414,-0.6960000991821289,0.8366117477416992,2.334825277328491
330,23967,23968,0.028650909662246704,0.06398148834705353,0.9893405437469482,20.237356185913086,-4.7168288230896,-1.4734010696411133,-0.0944952741265297,-3.08534574508667,0.32848358154296875,-0.5687941908836365,1.1327154636383057,2.3377203941345215
331,23977,23978,-0.07353440672159195,-0.1341092437505722,0.8685455322265625,13.161646842956543,-9.170804023742676,-1.8977819681167603,-0.09749512374401093,-3.079345941543579,0.3224838674068451,-0.3407631516456604,1.2280746698379517,2.310223340988159
332,23987,23988,-0.14125919342041016,-0.11738452315330505,0.9337269067764282,2.1671204566955566,-9.481618881225586,-2.9033408164978027,-0.09149542450904846,-3.08534574508667,0.3254837095737457,-0.19187185168266296,1.3209953308105469,2.2871506214141846
333,23997,23998,-0.05194307863712311,-0.0320306196808815,1.0260443687438965,-7.3428754806518555,2.2370476722717285,-3.8211960792541504,-0.0944952741265297,-3.088345527648926,0.32848358154296875,-0.22393307089805603,1.2481809854507446,2.243488073348999
334,24007,24008,0.18798300623893738,-0.024570105597376823,1.159306287765503,-6.202106475830078,9.654465675354004,-5.6483540534973145,-0.09899504482746124,-3.086845636367798,0.33898305892944336,-0.2920513451099396,1.193542718887329,2.1974384784698486
335,24017,24018,0.11950145661830902,-0.10411019623279572,1.0610358715057373,2.019010066986084,4.888659954071045,-6.10004997253418,-0.08399579674005508,-3.086845636367798,0.32698363065719604,-0.36580342054367065,1.1417410373687744,2.1354033946990967
336,24027,24028,0.03106396086513996,0.020428841933608055,1.03013014793396,6.587353706359863,4.093034744262695,-5.887442588806152,-0.09149542450904846,-3.082345724105835,0.3134843111038208,-0.4287247657775879,1.2527868747711182,2.082109212875366
337,24037,24038,0.01217628363519907,0.12898604571819305,1.0472512245178223,8.661628723144531,7.640545845031738,-4.779639720916748,-0.08249587565660477,-3.0763461589813232,0.3404829800128937,-0.5304572582244873,1.4182312488555908,2.0319325923919678
338,24047,24048,0.0834815576672554,0.04387233406305313,1.0006619691848755,11.640104293823242,3.438436985015869,-2.6583428382873535,-0.0944952741265297,-3.088345527648926,0.33448326587677,-0.5958348512649536,1.4887995719909668,1.985125184059143
339,24057,24058,0.018105752766132355,-0.11994467675685883,0.8315730690956116,14.30900764465332,-6.9907612800598145,-2.374615430831909,-0.1049947515130043,-3.0958452224731445,0.3239837884902954,-0.7334176301956177,1.6054080724716187,1.9327276945114136
340,24067,24068,-0.03523598238825798,-0.06880710273981094,0.9081436991691589,7.149845600128174,-14.527748107910156,-2.503356695175171,-0.09299534559249878,-3.0928452014923096,0.3209839463233948,-0.5173875093460083,1.7417287826538086,1.9279193878173828
341,24077,24078,-0.12403377890586853,0.17152565717697144,1.0109963417053223,-2.318148374557495,-17.655359268188477,-3.5177717208862305,-0.1049947515130043,-3.0988450050354004,0.3149842321872711,-0.3154398500919342,1.8085895776748657,1.910030722618103
342,24087,24088,-0.11847597360610962,0.08469997346401215,0.9873442649841309,-10.603529930114746,-15.97115421295166,-4.088790416717529,-0.09749512374401093,-3.0913453102111816,0.3254837095737457,-0.017767157405614853,1.7414442300796509,1.8908867835998535
343,24097,24098,-0.00251379469409585,-0.10375887155532837,0.8601705431938171,-15.179486274719238,-20.424636840820312,-4.9997639656066895,-0.0944952741265297,-3.082345724105835,0.31948402523994446,0.25926125049591064,1.57117760181427,1.854791283607483
344,24107,24108,0.05998048931360245,0.10094345360994339,1.01305091381073,-22.002521514892578,-20.202016830444336,-6.845924377441406,-0.0944952741265297,-3.103344678878784,0.3044847846031189,0.47830089926719666,1.3647034168243408,1.7892111539840698
345,24117,24118,-0.31887897849082947,0.08657028526067734,1.0055307149887085,-19.13414192199707,-12.411951065063477,-7.610204696655273,-0.08849557489156723,-3.0913453102111816,0.3224838674068451,0.2585166394710541,1.053249478340149,1.604175329208374
346,24127,24128,-0.11595997959375381,0.01676032692193985,0.9557716250419617,-11.832369804382324,-5.10706901550293,-7.128931999206543,-0.08699564635753632,-3.0928452014923096,0.3209839463233948,0.44362565875053406,0.9115241169929504,1.5495463609695435
347,24137,24138,0.00239683804102242,-0.07580016553401947,0.9476141333580017,-1.8583682775497437,-3.8933231830596924,-6.909157752990723,-0.07949602603912354,-3.0943453311920166,0.30748462677001953,0.4959861636161804,0.9071729779243469,1.4857577085494995
348,24147,24148,0.05766548961400986,-0.035637903958559036,0.9965497851371765,5.573378562927246,-0.08107589930295944,-9.33560848236084,-0.08099594712257385,-3.0928452014923096,0.3119843900203705,0.5563618540763855,1.0344353914260864,1.4266210794448853
349,24157,24158,-0.06488022208213806,0.06139812991023064,1.015605092048645,13.65456771850586,0.9433079957962036,-11.289433479309082,-0.085495725274086,-3.103344678878784,0.3314834237098694,0.5722619891166687,1.2031837701797485,1.337636113166809
350,24167,24168,-0.13556067645549774,0.014740899205207825,1.0498534440994263,18.756065368652344,5.102592945098877,-13.534632682800293,-0.09299534559249878,-3.0958452224731445,0.31798410415649414,0.38596677780151367,1.260418176651001,1.1804810762405396
351,24177,24178,-0.06314005702733994,-0.008693971671164036,1.050718903541565,20.52958869934082,8.412534713745117,-14.973249435424805,-0.08999549597501755,-3.110844373703003,0.31798410415649414,0.3640013039112091,1.5976718664169312,1.058476209640503
352,24187,24188,0.046870116144418716,-0.10443110018968582,0.9350103139877319,16.3104305267334,15.720112800598145,-16.19671630859375,-0.08399579674005508,-3.1018447875976562,0.31798410415649414,0.18489257991313934,1.7601767778396606,0.8881872296333313
353,24197,24198,0.010902510955929756,-0.10042423009872437,1.0155858993530273,10.892862319946289,13.69530200958252,-14.790305137634277,-0.07799609750509262,-3.0928452014923096,0.3059847056865692,0.0579322949051857,1.8487788438796997,0.7367994785308838
354,24207,24208,-0.0593707375228405,-0.24307051301002502,0.9805461764335632,-3.5891523361206055,11.273331642150879,-12.538426399230957,-0.09149542450904846,-3.088345527648926,0.3044847846031189,-0.040649522095918655,1.9151585102081299,0.6077499389648438
355,24217,24218,-0.08656966686248779,-0.31673291325569153,0.9396218657493591,-18.524715423583984,3.6453652381896973,-9.057271957397461,-0.08999549597501755,-3.1018447875976562,0.3119843900203705,-0.07287201285362244,1.8091908693313599,0.5092832446098328
356,24227,24228,-0.18131275475025177,-0.18987105786800385,0.9310728311538696,-30.78323745727539,-7.861846446990967,-7.218023777008057,-0.08099594712257385,-3.0928452014923096,0.31798410415649414,-0.027400797232985497,1.6172866821289062,0.44025638699531555
357,24237,24238,-0.2695200741291046,-0.07527484744787216,0.9618505239486694,-38.890140533447266,-15.346983909606934,-6.67666482925415,-0.085495725274086,-3.088345527648926,0.31948402523994446,0.08907528966665268,1.1104192733764648,0.3731299340724945
358,24247,24248,-0.2870335280895233,-0.13644899427890778,1.0173405408859253,-37.95085906982422,-20.732255935668945,-5.033651828765869,-0.07949602603912354,-3.103344678878784,0.31048446893692017,0.38736239075660706,0.7670469284057617,0.35010382533073425
359,24257,24258,-0.14368997514247894,-0.08620931208133698,1.120080828666687,-31.376052856445312,-20.71959114074707,-4.648156642913818,-0.07499624788761139,-3.0988450050354004,0.3029848337173462,0.43898409605026245,0.3400281071662903,0.25235724449157715
360,24267,24268,-0.04737814888358116,-0.02419826202094555,1.0876837968826294,-20.373126983642578,-16.46860694885254,-4.97953987121582,-0.09599519520998001,-3.080845832824707,0.3149842321872711,0.7609290480613708,0.2639707922935486,0.23063924908638
361,24277,24278,0.017702676355838776,-0.01929515041410923,1.04019296169281,-1.1250752210617065,-10.725709915161133,-5.419798374176025,-0.0764961764216423,-3.088345527648926,0.3254837095737457,0.9305960536003113,0.28339841961860657,0.17814871668815613
362,24287,24288,-0.09220247715711594,0.01978638395667076,1.040052056312561,20.146848678588867,0.7531786561012268,-4.418872356414795,-0.08249587565660477,-3.0913453102111816,0.31048446893692017,1.0298829078674316,0.41138362884521484,0.12664230167865753
363,24297,24298,-0.07486642897129059,0.1124846339225769,1.1148552894592285,34.20153045654297,10.250385284423828,-3.4787650108337402,-0.08399579674005508,-3.1018447875976562,0.3149842321872711,0.823359489440918,0.751685619354248,0.04233945906162262
364,24307,24308,-0.028119735419750214,0.1731141060590744,1.095664620399475,35.052345275878906,16.809206008911133,-1.8459047079086304,-0.08249587565660477,-3.109344482421875,0.30748462677001953,0.6294060349464417,1.149537444114685,-0.007415736559778452
365,24317,24318,-0.17859625816345215,0.3139839768409729,1.0220935344696045,25.333375930786133,18.867931365966797,-1.6045125722885132,-0.09599519520998001,-3.0988450050354004,0.3119843900203705,0.42549675703048706,1.4639928340911865,-0.02629856951534748
366,24327,24328,-0.10848169773817062,0.2460344433784485,1.0460764169692993,5.8540472984313965,19.243465423583984,-3.2483723163604736,-0.09149542450904846,-3.0943453311920166,0.31048446893692017,0.1910942941904068,1.611491322517395,-0.044063784182071686
367,24337,24338,0.12824660539627075,0.2803206443786621,1.2273950576782227,-18.266815185546875,17.393579483032227,-4.388258457183838,-0.07799609750509262,-3.0958452224731445,0.3209839463233948,0.06345710903406143,1.4785940647125244,-0.05743717774748802
368,24347,24348,0.08567890524864197,0.07793159037828445,1.0920668840408325,-33.873291015625,11.977867126464844,-5.754133701324463,-0.09299534559249878,-3.0958452224731445,0.3209839463233948,-0.08561405539512634,1.0240042209625244,-0.08912195265293121
369,24357,24358,0.020630331709980965,-0.07356633991003036,1.0454148054122925,-39.629398345947266,3.870103359222412,-5.251022815704346,-0.08099594712257385,-3.083845853805542,0.3149842321872711,-0.19480234384536743,0.760638952255249,-0.1456991732120514
370,24367,24368,-0.029173191636800766,-0.22793222963809967,1.0358575582504272,-38.58282470703125,-3.3943092823028564,-4.637389659881592,-0.08849557489156723,-3.088345527648926,0.3224838674068451,-0.19054777920246124,0.23548556864261627,-0.18547210097312927
371,24377,24378,0.058818668127059937,-0.1875271052122116,1.0263783931732178,-31.527585983276367,-14.200061798095703,-2.6521832942962646,-0.09749512374401093,-3.088345527648926,0.3134843111038208,-0.035369791090488434,-0.008799959905445576,-0.21204093098640442
372,24387,24388,-0.038272254168987274,-0.17113444209098816,0.9702491164207458,-17.109806060791016,-21.74606704711914,-0.8676536083221436,-0.08999549597501755,-3.0718462467193604,0.32698363065719604,0.18589690327644348,-0.4364316165447235,-0.21990038454532623
373,24397,24398,-0.11766821146011353,-0.14752539992332458,0.9834218621253967,-5.236351490020752,-24.7504940032959,0.3963414132595062,-0.09749512374401093,-3.088345527648926,0.32848358154296875,0.4172469675540924,-0.3545699119567871,-0.22379232943058014
374,24407,24408,-0.10575193911790848,-0.10901127755641937,1.0210806131362915,3.546898126602173,-18.454181671142578,1.3305517435073853,-0.08699564635753632,-3.0898454189300537,0.3209839463233948,0.6948578357696533,-0.3385241627693176,-0.21037819981575012
375,24417,24418,-0.02023012563586235,-0.2338876724243164,1.008176326751709,8.889728546142578,-11.919355392456055,2.1407997608184814,-0.09749512374401093,-3.0673465728759766,0.31948402523994446,0.8641054034233093,-0.27219879627227783,-0.1936480551958084
376,24427,24428,0.17738808691501617,-0.12224853038787842,1.0441434383392334,10.758011817932129,-12.505569458007812,3.7294600009918213,-0.09149542450904846,-3.079345941543579,0.3134843111038208,0.9253833293914795,-0.21459953486919403,-0.17111597955226898
377,24437,24438,0.03545065224170685,-0.1038912907242775,0.9496220350265503,9.4636869430542,-16.10658073425293,4.27846622467041,-0.08399579674005508,-3.0928452014923096,0.3119843900203705,1.1093194484710693,-0.08884929120540619,-0.13200464844703674
378,24447,24448,-0.07065561413764954,-0.10119941830635071,0.969340980052948,7.554495334625244,-7.243119239807129,5.086519718170166,-0.08249587565660477,-3.082345724105835,0.3224838674068451,1.2416936159133911,0.008723124861717224,-0.09226484596729279
379,24457,24458,-0.02634194679558277,0.1781182438135147,1.0711650848388672,-0.22589421272277832,4.504502296447754,5.363349437713623,-0.09749512374401093,-3.082345724105835,0.31948402523994446,1.26096773147583,0.024286901578307152,-0.04127888008952141
380,24467,24468,-0.02687067911028862,0.4024443030357361,1.0832406282424927,-8.304691314697266,13.972312927246094,3.645585060119629,-0.08399579674005508,-3.080845832824707,0.3209839463233948,1.1076178550720215,0.05360524356365204,0.00034442503238096833
381,24477,24478,0.09747271984815598,0.22426831722259521,1.0464415550231934,-14.586406707763672,16.695606231689453,2.0627050399780273,-0.08399579674005508,-3.080845832824707,0.3329833447933197,0.8817002177238464,-0.1044745147228241,0.04417486861348152
382,24487,24488,0.07114019244909286,-0.03807484358549118,1.0048810243606567,-13.444718360900879,13.496344566345215,3.331815242767334,-0.08849557489156723,-3.0733463764190674,0.3164841830730438,0.749309778213501,-0.1512620449066162,0.06230206787586212
383,24497,24498,-0.001533671747893095,-0.08114602416753769,1.0102245807647705,-11.332843780517578,8.528177261352539,2.898239850997925,-0.08849557489156723,-3.0733463764190674,0.3164841830730438,0.5907269716262817,-0.3905673921108246,0.10505680739879608
384,24507,24508,-0.07164566218852997,0.11965388804674149,0.9759703874588013,-6.121941566467285,2.925123453140259,3.326648712158203,-0.08849557489156723,-3.0733463764190674,0.3164841830730438,0.57820063829422,-0.4896235167980194,0.13060332834720612
385,24517,24518,-0.13841986656188965,0.2728092670440674,0.9769359230995178,-1.3720149993896484,-0.27090007066726685,2.529644012451172,-0.08849557489156723,-3.0733463764190674,0.3164841830730438,0.6175363659858704,-0.5795962810516357,0.1637497991323471
386,24527,24528,-0.22354508936405182,0.2123219072818756,0.9789511561393738,-4.379046440124512,-2.6601788997650146,1.9958621263504028,-0.08849557489156723,-3.0733463764190674,0.3164841830730438,0.6305745244026184,-0.436830997467041,0.17836351692676544
387,24537,24538,-0.026513509452342987,0.06308760493993759,1.0996921062469482,-2.361990213394165,-4.416561126708984,2.5729143619537354,-0.10199490189552307,-3.083845853805542,0.31798410415649414,0.6928590536117554,-0.4523319602012634,0.20298628509044647
388,24547,24548,-0.013927126303315163,-0.010734220035374165,0.9908768534660339,1.8339266777038574,-5.259373188018799,4.609590530395508,-0.08249587565660477,-3.082345724105835,0.3314834237098694,0.7809783816337585,-0.48366209864616394,0.23764219880104065
389,24557,24558,0.008570020087063313,-0.026255441829562187,0.9466066360473633,6.975097179412842,-9.547624588012695,4.898885250091553,-0.1049947515130043,-3.083845853805542,0.3149842321872711,0.896159827709198,-0.4422391951084137,0.2774960398674011
390,24567,24568,-0.060827091336250305,-0.0017080524703487754,1.008712887763977,4.250196933746338,-6.760372161865234,3.016197919845581,-0.08849557489156723,-3.0763461589813232,0.3224838674068451,0.9754241704940796,-0.405893474817276,0.31872421503067017
391,24577,24578,-0.25922083854675293,0.0011696129804477096,1.0250414609909058,-0.15029318630695343,7.276717185974121,1.261904001235962,-0.0764961764216423,-3.079345941543579,0.3164841830730438,0.9073736071586609,-0.4178329408168793,0.3571210503578186
392,24587,24588,-0.12885212898254395,-0.052453890442848206,0.9901694059371948,-1.8602746725082397,24.259075164794922,2.4652514457702637,-0.08849557489156723,-3.0703463554382324,0.33448326587677,0.6132049560546875,-0.45879146456718445,0.3978848159313202
393,24597,24598,0.03297071158885956,-0.15896528959274292,0.9483135938644409,-6.230053424835205,25.98478126525879,3.9982573986053467,-0.085495725274086,-3.0703463554382324,0.32848358154296875,0.4042692184448242,-0.5547090172767639,0.42736488580703735
394,24607,24608,-0.07455667108297348,-0.2232355773448944,0.8528361916542053,-18.711641311645508,16.39056968688965,4.0975260734558105,-0.09749512374401093,-3.0763461589813232,0.31048446893692017,0.030445590615272522,-0.7404943108558655,0.4807378649711609
395,24617,24618,-0.09387539327144623,-0.0036382507532835007,0.976969301700592,-32.268009185791016,14.748956680297852,2.0683648586273193,-0.08849557489156723,-3.08534574508667,0.3314834237098694,-0.10132457315921783,-1.1335810422897339,0.5174546837806702
396,24627,24628,-0.2232201099395752,0.05657806992530823,0.9975748062133789,-30.772748947143555,1.9903147220611572,0.11015129089355469,-0.09599519520998001,-3.0658466815948486,0.32698363065719604,0.01283316221088171,-1.1735533475875854,0.4759589731693268
397,24637,24638,-0.3154095709323883,0.06383997946977615,1.0291664600372314,-18.14019012451172,-5.002011299133301,-1.1572345495224,-0.09599519520998001,-3.0718462467193604,0.3329833447933197,-0.012681681662797928,-1.3157174587249756,0.4696054756641388
398,24647,24648,-0.25155648589134216,-0.014474724419414997,1.0730873346328735,-4.995055675506592,-11.212864875793457,-2.6525814533233643,-0.0944952741265297,-3.0763461589813232,0.33748310804367065,0.07458467036485672,-1.5346003770828247,0.4571511447429657
399,24657,24658,-0.1073184683918953,-0.030738849192857742,1.1615453958511353,8.291333198547363,-9.458288192749023,-3.466320276260376,-0.08699564635753632,-3.080845832824707,0.32998350262641907,0.2165863811969757,-1.4669796228408813,0.42108577489852905
400,24667,24668,0.036278750747442245,-0.02219829149544239,1.1553958654403687,21.08336067199707,2.222395420074463,-2.5653181076049805,-0.10049497336149216,-3.082345724105835,0.3224838674068451,0.21284325420856476,-1.325996994972229,0.40631797909736633
401,24677,24678,0.12632328271865845,-0.010478542186319828,1.0226001739501953,29.261362075805664,13.621223449707031,-0.770095944404602,-0.09149542450904846,-3.0703463554382324,0.33448326587677,0.19682380557060242,-1.0155261754989624,0.384120911359787
402,24687,24688,0.12345505505800247,-0.011640435084700584,0.9946541786193848,30.69896125793457,15.600359916687012,-0.030706636607646942,-0.09299534559249878,-3.0718462467193604,0.3149842321872711,0.11502480506896973,-0.7673868536949158,0.37118440866470337
403,24697,24698,-0.04094957932829857,-0.13604599237442017,0.8692220449447632,22.057157516479492,10.436945915222168,-0.008418535813689232,-0.09299534559249878,-3.0688464641571045,0.3239837884902954,0.01779811829328537,-0.43657243251800537,0.3572303354740143
404,24707,24708,-0.08828181773424149,-0.04145151004195213,0.940967857837677,6.003949165344238,10.366185188293457,-0.7163795828819275,-0.0944952741265297,-3.0763461589813232,0.31948402523994446,-0.19150790572166443,-0.31538549065589905,0.37368401885032654
405,24717,24718,-0.06107484549283981,0.07635953277349472,1.0459985733032227,-9.52371883392334,11.073827743530273,-0.22315041720867157,-0.08849557489156723,-3.0763461589813232,0.3254837095737457,-0.37553784251213074,-0.4909774363040924,0.38444918394088745
406,24727,24728,-0.062446318566799164,0.14072024822235107,1.0751742124557495,-19.537628173828125,10.341734886169434,-0.23411914706230164,-0.10199490189552307,-3.0688464641571045,0.3329833447933197,-0.45777589082717896,-0.5875419974327087,0.3790896236896515
407,24737,24738,-0.026703301817178726,-0.023077741265296936,0.992945671081543,-20.06158447265625,0.4790137708187103,-1.7879594564437866,-0.09599519520998001,-3.053847312927246,0.32698363065719604,-0.5212858319282532,-0.9177049994468689,0.3691612184047699
408,24747,24748,-0.0009599747718311846,-0.0479268804192543,1.0212894678115845,-18.106597900390625,-9.897789001464844,-1.2830449342727661,-0.08999549597501755,-3.083845853805542,0.3209839463233948,-0.4246909022331238,-1.1651114225387573,0.33927983045578003
409,24757,24758,-0.18414266407489777,0.040946464985609055,1.0596221685409546,-13.457411766052246,-10.088888168334961,0.4496951401233673,-0.09299534559249878,-3.0718462467193604,0.32998350262641907,-0.26886194944381714,-1.2100410461425781,0.32852447032928467
410,24767,24768,-0.10016524791717529,-0.030450407415628433,0.9915289282798767,-5.342902183532715,-3.3957901000976562,0.8137332797050476,-0.08699564635753632,-3.0688464641571045,0.3239837884902954,-0.17316584289073944,-1.3709526062011719,0.3317907452583313
411,24777,24778,0.007970230653882027,0.032155346125364304,1.0193512439727783,3.1294913291931152,4.578348636627197,0.7800570726394653,-0.10049497336149216,-3.0703463554382324,0.3314834237098694,-0.19986723363399506,-1.3115772008895874,0.35417619347572327
412,24787,24788,-0.039427872747182846,0.010775338858366013,0.9910053014755249,12.3837308883667,9.620019912719727,0.12392089515924454,-0.09299534559249878,-3.0748462677001953,0.3329833447933197,-0.32830584049224854,-1.1851670742034912,0.3802472949028015
413,24797,24798,0.017685042694211006,0.18689188361167908,1.034527063369751,17.910608291625977,16.403162002563477,-1.3648555278778076,-0.10049497336149216,-3.0703463554382324,0.31948402523994446,-0.4636729061603546,-1.144242286682129,0.3776353895664215
414,24807,24808,-0.049354393035173416,0.1068611890077591,0.9120001792907715,24.843629837036133,15.017143249511719,-2.4913699626922607,-0.1049947515130043,-3.083845853805542,0.32998350262641907,-0.7042425870895386,-0.7896005511283875,0.39839497208595276
415,24817,24818,-0.07250670343637466,-0.06784847378730774,0.8865690231323242,24.34390640258789,17.0246524810791,-3.7941157817840576,-0.10649467259645462,-3.0733463764190674,0.33448326587677,-0.8318994641304016,-0.6797642707824707,0.3499087691307068
416,24827,24828,-0.08233417570590973,-0.16774924099445343,0.8723417520523071,18.96219253540039,13.512707710266113,-4.166755199432373,-0.10949452221393585,-3.0733463764190674,0.3224838674068451,-0.9646402597427368,-0.32657596468925476,0.31276756525039673
417,24837,24838,-0.10157913714647293,-0.14962860941886902,0.8890456557273865,10.73509693145752,5.850183486938477,-4.30427360534668,-0.10349482297897339,-3.0733463764190674,0.3134843111038208,-0.890423595905304,-0.09968259185552597,0.23141448199748993
418,24847,24848,-0.06835339963436127,0.060064833611249924,1.041911005973816,0.8286303281784058,-5.638918876647949,-4.343357086181641,-0.11549422144889832,-3.0643467903137207,0.3314834237098694,-1.4376235008239746,-0.08367876708507538,0.27568724751472473
419,24857,24858,-0.1058894470334053,0.13986535370349884,1.0047743320465088,-3.6326639652252197,-17.882402420043945,-4.876751899719238,-0.10349482297897339,-3.079345941543579,0.3224838674068451,-0.34953173995018005,-0.24385492503643036,0.022408198565244675
420,24867,24868,-0.10425329208374023,0.18091045320034027,0.9842238426208496,-4.755384922027588,-31.87677001953125,-4.427012920379639,-0.09749512374401093,-3.08534574508667,0.31048446893692017,-0.012304699048399925,-0.29738783836364746,-0.04809241741895676
421,24877,24878,-0.038044340908527374,0.16226135194301605,0.9523695111274719,-6.082701683044434,-36.128326416015625,-5.398115634918213,-0.10649467259645462,-3.082345724105835,0.3314834237098694,0.270276814699173,-0.36635148525238037,-0.08598805963993073
422,24887,24888,-0.04186343401670456,-0.01515000220388174,0.9624682664871216,-3.4781994819641113,-26.365564346313477,-5.478879928588867,-0.09599519520998001,-3.086845636367798,0.32698363065719604,0.6455453038215637,-0.4333842694759369,-0.1458267718553543
423,24897,24898,0.00949809793382883,-0.26204782724380493,0.9516736268997192,1.308427095413208,-10.342047691345215,-5.517719268798828,-0.08999549597501755,-3.077846050262451,0.3149842321872711,0.8632400035858154,-0.44828715920448303,-0.2014714926481247
424,24907,24908,-0.1642356514930725,-0.10422255098819733,0.9174447655677795,2.2306084632873535,5.120018482208252,-6.939977645874023,-0.0944952741265297,-3.0673465728759766,0.3224838674068451,0.8068311810493469,-0.41768673062324524,-0.24749106168746948
425,24917,24918,-0.27165594696998596,0.09011189639568329,0.9996420741081238,3.474872350692749,23.199020385742188,-7.951530933380127,-0.09599519520998001,-3.077846050262451,0.32698363065719604,0.5022974014282227,-0.36480867862701416,-0.28973621129989624
426,24927,24928,-0.0886174887418747,0.12446640431880951,1.0279961824417114,4.812331676483154,31.5489501953125,-5.213218688964844,-0.08999549597501755,-3.083845853805542,0.3239837884902954,0.11284726113080978,-0.34798601269721985,-0.3423196077346802
427,24937,24938,0.20627419650554657,0.04193732887506485,1.0093467235565186,5.917695999145508,24.14885902404785,-2.140550374984741,-0.08849557489156723,-3.079345941543579,0.3164841830730438,-0.259988397359848,-0.23943880200386047,-0.3742316663265228
428,24947,24948,0.10918865352869034,0.050993453711271286,0.9282224774360657,13.501640319824219,6.823792934417725,-1.2269128561019897,-0.09299534559249878,-3.077846050262451,0.3329833447933197,-0.38560816645622253,-0.08605518192052841,-0.40020865201950073
429,24957,24958,-0.05029091238975525,0.008805559016764164,0.9068068861961365,16.30440330505371,-1.6838715076446533,-0.8836158514022827,-0.10349482297897339,-3.08534574508667,0.3254837095737457,-0.3371802270412445,-0.11785637587308884,-0.43398669362068176
430,24967,24968,-0.06562694162130356,0.01606280356645584,0.9691342711448669,10.182674407958984,1.0250496864318848,-1.1937999725341797,-0.10799460113048553,-3.080845832824707,0.3239837884902954,-0.3902842700481415,0.11842525750398636,-0.4296623468399048
431,24977,24978,-0.2020064890384674,0.0172465480864048,0.8803800940513611,-0.8685139417648315,-2.232106924057007,-3.3525755405426025,-0.113994300365448,-3.077846050262451,0.32698363065719604,-0.4378495514392853,0.13729263842105865,-0.445995032787323
432,24987,24988,-0.16683119535446167,0.07288005948066711,1.0005834102630615,-11.211861610412598,5.074470520019531,-5.96402645111084,-0.09599519520998001,-3.080845832824707,0.3209839463233948,-0.5042011141777039,0.057262223213911057,-0.47932636737823486
433,24997,24998,-0.09929323196411133,-0.0016458660829812288,1.0127418041229248,-10.256157875061035,12.783317565917969,-5.855766773223877,-0.10799460113048553,-3.0748462677001953,0.3239837884902954,-0.5989160537719727,-0.10497541725635529,-0.5374036431312561
434,25007,25008,0.0635441318154335,-0.1461324840784073,0.9338504076004028,-0.15476126968860626,18.576045989990234,-4.154419898986816,-0.09299534559249878,-3.083845853805542,0.3239837884902954,-0.7928866147994995,-0.18247385323047638,-0.5928321480751038
435,25017,25018,0.03828463330864906,-0.10258709639310837,0.9738051891326904,10.636402130126953,15.900280952453613,-4.61504602432251,-0.10199490189552307,-3.083845853805542,0.3239837884902954,-0.9298585653305054,-0.16216552257537842,-0.6420685052871704
436,25027,25028,0.09116613119840622,-0.06735436618328094,1.0205934047698975,15.028039932250977,11.362405776977539,-4.817530155181885,-0.10949452221393585,-3.0763461589813232,0.3314834237098694,-1.0791159868240356,0.06214045733213425,-0.6762468814849854
437,25037,25038,0.06681467592716217,-0.08999677747488022,0.9486547112464905,14.14702320098877,3.984633684158325,-4.825268268585205,-0.10799460113048553,-3.0898454189300537,0.3119843900203705,-1.1905206441879272,0.10380063951015472,-0.7382127642631531
438,25047,25048,0.08430278301239014,-0.030336594209074974,0.85930335521698,8.54958438873291,-11.632856369018555,-6.04471492767334,-0.10199490189552307,-3.0898454189300537,0.3209839463233948,-1.1167539358139038,0.2413269281387329,-0.7912348508834839
439,25057,25058,-0.050411731004714966,0.060587916523218155,0.9180935025215149,3.387174367904663,-25.966598510742188,-9.171164512634277,-0.10799460113048553,-3.086845636367798,0.31798410415649414,-0.8223249316215515,0.35156652331352234,-0.8574533462524414
440,25067,25068,-0.03359828516840935,0.17665790021419525,1.1162118911743164,1.7091608047485352,-26.71778678894043,-9.527393341064453,-0.09899504482746124,-3.086845636367798,0.3149842321872711,-0.4939842224121094,0.41404491662979126,-0.9465816617012024
441,25077,25078,-0.11408022791147232,0.07779932767152786,1.0297367572784424,2.7556986808776855,-20.796024322509766,-8.299002647399902,-0.09149542450904846,-3.08534574508667,0.3164841830730438,-0.4263891577720642,0.26656341552734375,-1.0689685344696045
442,25087,25088,-0.12316015362739563,0.18468911945819855,1.1121593713760376,3.453336238861084,-12.590957641601562,-8.249311447143555,-0.10199490189552307,-3.0898454189300537,0.31798410415649414,-0.18518956005573273,0.35655730962753296,-1.1439931392669678
443,25097,25098,-0.04457367956638336,0.10228057205677032,1.10865318775177,4.5456647872924805,3.6401443481445312,-6.100278377532959,-0.09599519520998001,-3.0898454189300537,0.30898454785346985,-0.22217971086502075,0.447858989238739,-1.2148211002349854
444,25107,25108,-0.03363248333334923,-0.14015358686447144,0.9272027015686035,2.8204476833343506,14.784090042114258,-3.9868786334991455,-0.10049497336149216,-3.0943453311920166,0.32848358154296875,-0.32766440510749817,0.4498078525066376,-1.2752786874771118
445,25117,25118,-0.02252226136624813,-0.25672006607055664,0.9813324213027954,-0.7506364583969116,25.0014591217041,-3.6286509037017822,-0.10199490189552307,-3.083845853805542,0.30898454785346985,-0.6708177328109741,0.47460436820983887,-1.31741464138031
446,25127,25128,0.017439907416701317,-0.46439048647880554,0.9557550549507141,-5.503591060638428,31.550270080566406,-2.0297930240631104,-0.08999549597501755,-3.080845832824707,0.3239837884902954,-1.0575484037399292,0.4346091151237488,-1.3562371730804443
447,25137,25138,-0.0040090386755764484,-0.10472358763217926,0.9960387349128723,-11.199707984924316,19.679349899291992,-1.2745609283447266,-0.0944952741265297,-3.08534574508667,0.3164841830730438,-1.1526728868484497,0.30883368849754333,-1.3696144819259644
448,25147,25148,-0.030347496271133423,-0.027156151831150055,0.9756362438201904,-13.149311065673828,11.607430458068848,-1.5281943082809448,-0.11099445074796677,-3.083845853805542,0.3209839463233948,-1.3859707117080688,0.19856953620910645,-1.383301019668579
449,25157,25158,0.03535853326320648,-0.001817244105041027,1.020876407623291,-13.143426895141602,0.5476458668708801,-2.8530609607696533,-0.11099445074796677,-3.083845853805542,0.3149842321872711,-1.4369511604309082,0.07449235022068024,-1.3977845907211304
450,25167,25168,0.10847533494234085,0.05409609153866768,1.0917630195617676,-9.77921199798584,-9.72838020324707,-3.174905300140381,-0.10649467259645462,-3.088345527648926,0.3134843111038208,-1.3214139938354492,-0.08262214064598083,-1.42897629737854
451,25177,25178,0.16701149940490723,0.07389207184314728,1.0381793975830078,-6.6696906089782715,-19.509048461914062,-3.5785837173461914,-0.10199490189552307,-3.086845636367798,0.3119843900203705,-1.190123438835144,-0.18072979152202606,-1.4638508558273315
452,25187,25188,0.00929026398807764,0.1563423126935959,0.9896394610404968,-0.5649913549423218,-30.555389404296875,-6.12551736831665,-0.08699564635753632,-3.0898454189300537,0.3119843900203705,-0.8942294716835022,-0.21401387453079224,-1.49827241897583
453,25197,25198,-0.16942669451236725,0.21579021215438843,1.1005151271820068,11.8319673538208,-33.405029296875,-10.164162635803223,-0.09299534559249878,-3.083845853805542,0.31798410415649414,-0.5061913132667542,-0.08236981183290482,-1.5491827726364136
454,25207,25208,-0.187907412648201,0.052043184638023376,1.1519981622695923,25.038583755493164,-25.99501609802246,-13.09285831451416,-0.11249437183141708,-3.082345724105835,0.3254837095737457,-0.2431042343378067,0.18218843638896942,-1.6412360668182373
455,25217,25218,-0.07312425225973129,-0.05877024307847023,1.0782314538955688,37.109073638916016,-18.789445877075195,-13.26211929321289,-0.10049497336149216,-3.08534574508667,0.32848358154296875,0.05841312184929848,0.7129977941513062,-1.7325388193130493
456,25227,25228,-0.057465970516204834,-0.06417536735534668,0.9946593642234802,41.925479888916016,-7.398778915405273,-13.375514030456543,-0.10049497336149216,-3.0763461589813232,0.3314834237098694,0.13943852484226227,0.9343271255493164,-1.8969032764434814
457,25237,25238,-0.011908783577382565,-0.05741875618696213,0.9658070802688599,40.28733444213867,14.418991088867188,-10.429749488830566,-0.113994300365448,-3.077846050262451,0.32698363065719604,0.07839174568653107,1.6067628860473633,-1.9885168075561523
458,25247,25248,0.0859808549284935,0.004130550194531679,1.0290331840515137,32.69849395751953,23.78730583190918,-7.137115478515625,-0.10049497336149216,-3.08534574508667,0.3164841830730438,-0.3102727234363556,1.5411479473114014,-2.1496999263763428
459,25257,25258,0.09185671806335449,-0.06788977235555649,0.9858422875404358,21.766876220703125,29.193689346313477,-5.016871452331543,-0.09749512374401093,-3.088345527648926,0.3224838674068451,-0.45387357473373413,1.764802098274231,-2.197113513946533
460,25267,25268,-0.02558159828186035,-0.025349991396069527,0.8794863820075989,8.287132263183594,24.017614364624023,-0.6562052369117737,-0.11999399960041046,-3.077846050262451,0.3149842321872711,-0.8797438740730286,2.011453628540039,-2.2314157485961914
461,25277,25278,-0.06868109852075577,-0.06174647435545921,0.8854053616523743,-13.643441200256348,6.249563694000244,0.8978748917579651,-0.11249437183141708,-3.08534574508667,0.32848358154296875,-1.0926427841186523,1.9616823196411133,-2.2380363941192627
462,25287,25288,-0.0070180268958210945,0.18230372667312622,1.0476216077804565,-35.974830627441406,-9.930087089538574,3.237215280532837,-0.12149392068386078,-3.08534574508667,0.3224838674068451,-1.0101680755615234,1.5761581659317017,-2.231757164001465
463,25297,25298,0.05157158896327019,0.2989291846752167,1.0958731174468994,-55.23250198364258,-32.55849838256836,5.847393035888672,-0.09599519520998001,-3.0928452014923096,0.31798410415649414,-0.6765502095222473,1.3311431407928467,-2.1385040283203125
464,25307,25308,-0.02068496309220791,0.21257716417312622,1.0704045295715332,-63.534297943115234,-49.99932861328125,5.229442119598389,-0.10799460113048553,-3.0958452224731445,0.3149842321872711,-0.1798115372657776,0.4286218583583832,-2.1047987937927246
465,25317,25318,-0.1345512866973877,0.15421834588050842,1.0709922313690186,-64.10013580322266,-57.600616455078125,3.19507098197937,-0.08999549597501755,-3.0898454189300537,0.3149842321872711,0.4233551621437073,0.04589593783020973,-2.0077548027038574
466,25327,25328,-0.1229436993598938,0.09024927020072937,1.1105691194534302,-52.953704833984375,-52.23740768432617,1.9718753099441528,-0.09149542450904846,-3.088345527648926,0.3014849126338959,1.1090954542160034,-0.6153202056884766,-1.9542382955551147
467,25337,25338,-0.04576166719198227,0.07354198396205902,1.0776138305664062,-32.95673370361328,-30.931737899780273,-0.17041614651679993,-0.08099594712257385,-3.077846050262451,0.3209839463233948,1.579844355583191,-0.9427768588066101,-1.9260810613632202
468,25347,25348,0.03420320153236389,0.09992074966430664,0.974054217338562,-13.903346061706543,-8.110548973083496,-2.957127094268799,-0.07949602603912354,-3.079345941543579,0.3314834237098694,1.824370265007019,-1.1641141176223755,-1.9317351579666138
469,25357,25358,-0.030533352866768837,0.11233913153409958,0.9847826957702637,9.647543907165527,20.631969451904297,-4.623689651489258,-0.09599519520998001,-3.0718462467193604,0.33898305892944336,1.5611215829849243,-0.9680336117744446,-2.00534725189209
470,25367,25368,-0.07047969102859497,-0.09901096671819687,0.936501145362854,29.484783172607422,46.0296516418457,-5.523155212402344,-0.08999549597501755,-3.077846050262451,0.31798410415649414,1.1753146648406982,-0.9471876621246338,-2.059415102005005
471,25377,25378,-0.10530763864517212,-0.06141325831413269,0.9785542488098145,41.74360656738281,55.83652877807617,-5.198468208312988,-0.08999549597501755,-3.083845853805542,0.3239837884902954,0.5446780920028687,-0.35904115438461304,-2.14518404006958
472,25387,25388,-0.017024291679263115,0.09632498770952225,1.0049206018447876,46.503334045410156,59.190120697021484,-4.757628440856934,-0.10649467259645462,-3.0733463764190674,0.31948402523994446,-0.37375137209892273,-0.012814474292099476,-2.2025816440582275
473,25397,25398,0.03834084793925285,0.2350699007511139,1.0770596265792847,41.96180725097656,48.27489471435547,-3.9337210655212402,-0.08399579674005508,-3.083845853805542,0.31798410415649414,-0.4887573719024658,0.4127163589000702,-2.2322795391082764
474,25407,25408,0.05074317380785942,0.08167677372694016,1.0519983768463135,32.571502685546875,23.6346492767334,-2.2408337593078613,-0.10199490189552307,-3.086845636367798,0.3239837884902954,-0.7817395329475403,0.8503738045692444,-2.2621498107910156
475,25417,25418,-0.02932863123714924,-0.10357241332530975,0.9609306454658508,21.300947189331055,-1.9160304069519043,-1.7290763854980469,-0.09599519520998001,-3.0898454189300537,0.3209839463233948,-0.8189249634742737,1.2679404020309448,-2.276700496673584
