,timestamp_start,timestamp_end,acc.x,acc.y,acc.z,gyro.x,gyro.y,gyro.z,mag.x,mag.y,mag.z,stabilizer.pitch,stabilizer.roll,stabilizer.yaw
0,1909535,1909536,-0.1113569363951683,-0.2812458872795105,1.1651979684829712,21.594043731689453,15.46243667602539,-2.022367238998413,-0.5864706635475159,-0.8894554972648621,-0.31948402523994446,0.05633925274014473,-0.018169958144426346,-4.205962657928467
1,1909545,1909546,-0.12099990993738174,-0.33325546979904175,1.1388976573944092,27.484046936035156,5.356963157653809,-0.1827981323003769,-0.5804709792137146,-0.9014549255371094,-0.31948402523994446,-0.13346374034881592,0.27724340558052063,-4.1903791427612305
2,1909555,1909556,-0.016404151916503906,-0.2034788876771927,1.106570839881897,22.93340301513672,-6.015518665313721,2.8035738468170166,-0.5954701900482178,-0.8954551815986633,-0.3404829800128937,-0.12351466715335846,0.4496503174304962,-4.218355178833008
3,1909565,1909566,-0.16055794060230255,-0.3796180486679077,1.1301113367080688,9.577363967895508,-9.398758888244629,4.789473056793213,-0.5969701409339905,-0.896955132484436,-0.3209839463233948,-0.06962878257036209,0.689498782157898,-4.1670918464660645
4,1909575,1909576,-0.612176239490509,-0.18738988041877747,1.1059718132019043,-8.430292129516602,-8.73455810546875,5.857849597930908,-0.5939702987670898,-0.8939552903175354,-0.3209839463233948,0.018200162798166275,0.7587425112724304,-4.112642288208008
5,1909585,1909586,-0.5705892443656921,-0.2326502948999405,1.048172950744629,-24.083797454833984,0.2971654236316681,4.967864513397217,-0.5894705057144165,-0.8894554972648621,-0.31948402523994446,0.04153212904930115,0.47884634137153625,-4.104717254638672
6,1909595,1909596,-0.5207985639572144,-0.25087520480155945,1.0974568128585815,-40.60805130004883,6.913193225860596,4.821840286254883,-0.5954701900482178,-0.8804559707641602,-0.31048446893692017,-0.05907532200217247,0.4064773917198181,-3.953434944152832
7,1909605,1909606,-0.23347418010234833,-0.1677393615245819,1.1217609643936157,-42.04472732543945,14.177680015563965,4.140851020812988,-0.5789710283279419,-0.8759561777114868,-0.32998350262641907,-0.21427743136882782,-0.10420503467321396,-3.9395923614501953
8,1909615,1909616,-0.1315179467201233,-0.0990205705165863,1.1356055736541748,-33.27995681762695,28.194494247436523,-1.9739986658096313,-0.5969701409339905,-0.8609569072723389,-0.29998499155044556,-0.6102471947669983,-0.8838414549827576,-4.04006290435791
9,1909625,1909626,-0.16028104722499847,0.11104951798915863,1.136008858680725,-16.4158935546875,31.766149520874023,-4.649802207946777,-0.6074696183204651,-0.8594570159912109,-0.30748462677001953,-1.2159650325775146,-1.2767311334609985,-4.0542120933532715
10,1909635,1909636,-0.11707136034965515,0.008390408009290695,1.1644588708877563,4.705336093902588,24.492084503173828,-4.187625408172607,-0.6104694604873657,-0.8684565424919128,-0.3134843111038208,-1.5429409742355347,-1.3424478769302368,-4.069019317626953
11,1909645,1909646,-0.1528438776731491,-0.007375136949121952,1.1408004760742188,28.633834838867188,6.259362697601318,-2.897132396697998,-0.6089695692062378,-0.8669566512107849,-0.3119843900203705,-1.7282211780548096,-1.0326058864593506,-4.014021873474121
12,1909655,1909656,-0.8216769099235535,-0.17601273953914642,1.011583924293518,40.54148483276367,-13.55994701385498,-3.0804293155670166,-0.616469144821167,-0.8684565424919128,-0.3164841830730438,-1.6470539569854736,-0.47792357206344604,-3.9479711055755615
13,1909665,1909666,-0.3641963005065918,-0.1498623639345169,1.0257514715194702,36.24502944946289,-24.830678939819336,-0.9362003803253174,-0.6119694113731384,-0.8609569072723389,-0.30898454785346985,-1.515207052230835,0.11623480916023254,-3.860429525375366
14,1909675,1909676,-0.1665302962064743,-0.13575664162635803,1.0210843086242676,24.356708526611328,-35.209739685058594,0.3016800582408905,-0.6119694113731384,-0.8789560198783875,-0.2969851493835449,-0.15151874721050262,2.2411391735076904,-3.1592183113098145
15,1909685,1909686,-0.2069929987192154,-0.24680262804031372,1.0231040716171265,7.50533390045166,-41.43071365356445,3.036121129989624,-0.5984700918197632,-0.8654567003250122,-0.3134843111038208,0.27999967336654663,2.085604667663574,-3.3623902797698975
16,1909695,1909696,-0.24477432668209076,-0.18122142553329468,0.9928439259529114,-7.565189361572266,-43.02450942993164,3.8810040950775146,-0.6209689378738403,-0.8759561777114868,-0.3059847056865692,0.7022369503974915,1.853062391281128,-3.4781711101531982
17,1909705,1909706,-0.38520461320877075,-0.3362900912761688,1.0547432899475098,-31.151256561279297,-32.666072845458984,5.264448642730713,-0.5954701900482178,-0.850457489490509,-0.30748462677001953,1.1312553882598877,1.6719722747802734,-3.4728453159332275
18,1909715,1909716,-0.1844814121723175,-0.22538848221302032,1.044848918914795,-42.84709167480469,-19.569843292236328,5.382481098175049,-0.5969701409339905,-0.8489575386047363,-0.2969851493835449,1.4319297075271606,0.9593930840492249,-3.572086811065674
19,1909725,1909726,-0.7373204231262207,-0.05086951702833176,1.0549088716506958,-53.38075637817383,3.9664533138275146,5.587600231170654,-0.5894705057144165,-0.844457745552063,-0.2954852283000946,1.4478951692581177,0.48031648993492126,-3.5209550857543945
20,1909735,1909736,-0.4467147886753082,-0.08091040700674057,1.0463355779647827,-50.834449768066406,22.282920837402344,4.83913516998291,-0.6014699339866638,-0.8234587907791138,-0.2954852283000946,1.2930984497070312,-0.8227097392082214,-3.685340642929077
21,1909745,1909746,-0.1560412496328354,-0.06384117901325226,1.062674880027771,-42.87374496459961,41.23186492919922,3.736144781112671,-0.6059696674346924,-0.8309584259986877,-0.28798559308052063,1.1945950984954834,-1.6231775283813477,-3.734654664993286
22,1909755,1909756,-0.20739229023456573,-0.038296040147542953,1.0650304555892944,-25.0568904876709,42.612274169921875,2.36374831199646,-0.6059696674346924,-0.8219588994979858,-0.28198590874671936,0.7080345153808594,-0.04449307173490524,-3.2435097694396973
23,1909765,1909766,-0.47524163126945496,-0.0404316782951355,1.056337594985962,-8.1854248046875,45.16851043701172,-1.0176379680633545,-0.6284685730934143,-0.8144592642784119,-0.277486115694046,0.11605040729045868,-0.5448231101036072,-3.2675962448120117
24,1909775,1909776,-0.14250808954238892,-0.2469508945941925,0.9814426898956299,2.991741418838501,35.58689498901367,-3.812394618988037,-0.6374680995941162,-0.8264586329460144,-0.277486115694046,-0.18078239262104034,-0.6642996072769165,-3.3237967491149902
25,1909785,1909786,-0.09671690315008163,-0.1928868144750595,0.9713369607925415,1.760970950126648,32.9478759765625,-5.5014495849609375,-0.6359682083129883,-0.7949602603912354,-0.26998651027679443,-0.5895050168037415,-0.7648839950561523,-3.39632248878479
26,1909795,1909796,-0.4008156955242157,-0.19255387783050537,0.9492777585983276,-1.637636423110962,21.82094955444336,-5.505029678344727,-0.6404679417610168,-0.7994599938392639,-0.26848655939102173,-0.9764060974121094,-0.941813051700592,-3.488042116165161
27,1909805,1909806,-0.7658165693283081,-0.27953940629959106,0.9121991991996765,-7.399017810821533,6.302126407623291,-5.724923133850098,-0.6404679417610168,-0.7994599938392639,-0.26848655939102173,-1.0100361108779907,-1.169254183769226,-3.630323886871338
28,1909815,1909816,-0.9161906838417053,-0.40620294213294983,1.0268257856369019,-13.761341094970703,-8.410680770874023,-4.67238187789917,-0.6404679417610168,-0.7994599938392639,-0.26848655939102173,-0.9398143291473389,-1.3994020223617554,-3.747230291366577
29,1909825,1909826,-0.6887869238853455,-0.156930610537529,1.030636191368103,-23.865938186645508,-12.671195030212402,-3.4878296852111816,-0.6284685730934143,-0.790460467338562,-0.25348731875419617,-1.0351338386535645,-1.5190438032150269,-3.738628387451172
30,1909835,1909836,-0.3762715458869934,-0.3995729982852936,0.9720098376274109,-26.407827377319336,-29.64933967590332,-0.7994174361228943,-0.6314684152603149,-0.7964601516723633,-0.277486115694046,-0.9202509522438049,-2.005093574523926,-3.8422186374664307
31,1909845,1909846,-0.42208608984947205,-0.577087938785553,1.042892575263977,-27.704601287841797,-14.117776870727539,-1.2714649438858032,-0.6269686222076416,-0.7949602603912354,-0.26998651027679443,-0.685804545879364,-2.5144050121307373,-3.9350101947784424
32,1909855,1909856,-0.9714047908782959,-0.5946337580680847,0.9968686103820801,-25.353498458862305,3.444545030593872,-0.9820629954338074,-0.6269686222076416,-0.7859606742858887,-0.2759861946105957,-0.4854406714439392,-3.004669666290283,-4.049339294433594
33,1909865,1909866,-1.0157485008239746,-0.5640195608139038,0.8849422931671143,-15.596453666687012,14.314539909362793,-2.0779271125793457,-0.623968780040741,-0.782960832118988,-0.2759861946105957,-0.6219157576560974,-3.374882936477661,-4.085259914398193
34,1909875,1909876,-0.9187824726104736,-0.28847843408584595,0.8541982173919678,0.7521017789840698,19.45359230041504,-2.17706036567688,-0.6344682574272156,-0.7874606251716614,-0.26248687505722046,-0.4814796447753906,-3.5931575298309326,-4.2490644454956055
35,1909885,1909886,-0.11260969191789627,0.05159647762775421,0.863381028175354,15.445693969726562,24.43657112121582,0.4279966652393341,-0.6299684643745422,-0.7709614634513855,-0.2549872398376465,-0.6851593255996704,-3.463388681411743,-4.239120006561279
36,1909895,1909896,-0.0414884015917778,-0.20101766288280487,0.983870267868042,31.066408157348633,15.254243850708008,0.7405171394348145,-0.6389680504798889,-0.7799609899520874,-0.2669866383075714,-1.0092217922210693,-3.2096810340881348,-4.17764949798584
37,1909905,1909906,-0.31306514143943787,-0.28372156620025635,1.0814896821975708,40.16302490234375,6.565223217010498,3.825228452682495,-0.6254687309265137,-0.790460467338562,-0.2564871609210968,-0.9734686017036438,-2.942441463470459,-4.300240516662598
38,1909915,1909916,-0.8388673067092896,-0.23032188415527344,0.9766181707382202,45.50661849975586,9.67265796661377,3.423016309738159,-0.6404679417610168,-0.8024598360061646,-0.2594870328903198,-1.103797197341919,-2.4270570278167725,-4.229679584503174
39,1909925,1909926,-1.0076090097427368,-0.39957475662231445,0.889450192451477,39.847015380859375,4.250688076019287,4.752966403961182,-0.6329683661460876,-0.8099594712257385,-0.26998651027679443,-1.0139141082763672,-2.201986074447632,-4.348336219787598
40,1909935,1909936,-1.0734127759933472,-0.16557103395462036,1.0028704404830933,28.31622886657715,0.7735099196434021,5.168834209442139,-0.6374680995941162,-0.7994599938392639,-0.277486115694046,-1.078516960144043,-1.868163824081421,-4.296903610229492
41,1909945,1909946,-1.092519760131836,-0.03560270369052887,0.999599039554596,20.185726165771484,-10.029067993164062,3.0331664085388184,-0.6389680504798889,-0.797960102558136,-0.2669866383075714,-0.9736140370368958,-1.6946487426757812,-4.323897361755371
42,1909955,1909956,-0.520497739315033,-0.24525612592697144,0.8671374320983887,17.344398498535156,-16.603843688964844,-1.2416086196899414,-0.6449677348136902,-0.8039597868919373,-0.27298635244369507,-0.806699812412262,-1.47053062915802,-4.31356954574585
43,1909965,1909966,-0.2051740288734436,-0.29077285528182983,0.8377010226249695,20.41897964477539,-18.435901641845703,-3.5208585262298584,-0.6209689378738403,-0.8159592151641846,-0.26098695397377014,-0.6112242341041565,-1.2656826972961426,-4.307991981506348
44,1909975,1909976,-0.4062533974647522,-0.29711252450942993,0.8920465111732483,21.47650909423828,-25.688669204711914,-5.595382213592529,-0.6299684643745422,-0.8129593133926392,-0.2669866383075714,-0.3267830014228821,-1.149606466293335,-4.396090030670166
45,1909985,1909986,-0.2519821226596832,-0.10127180069684982,0.9021262526512146,27.256282806396484,-20.965415954589844,-6.790987968444824,-0.6329683661460876,-0.8189590573310852,-0.2669866383075714,-0.12718196213245392,-0.8081840872764587,-4.398507595062256
46,1909995,1909996,-0.2142730951309204,-0.6238335371017456,0.8821024298667908,23.3485050201416,-7.732768535614014,-7.011448383331299,-0.6374680995941162,-0.8264586329460144,-0.27148643136024475,-0.008381851017475128,-0.6650695204734802,-4.4861626625061035
47,1910005,1910006,-0.5421516299247742,-0.6030658483505249,0.9659357070922852,14.972089767456055,15.156522750854492,-5.325451850891113,-0.616469144821167,-0.8144592642784119,-0.2744862735271454,-0.15323005616664886,-0.35173720121383667,-4.457759380340576
48,1910015,1910016,-1.0343745946884155,-0.5492146015167236,0.9062654376029968,13.596721649169922,47.106868743896484,-5.240367412567139,-0.6359682083129883,-0.8309584259986877,-0.26998651027679443,-0.48632997274398804,-0.28222936391830444,-4.482192039489746
49,1910025,1910026,-0.7935531735420227,-0.12127108126878738,0.871996283531189,13.080025672912598,58.97032928466797,-4.501333236694336,-0.6254687309265137,-0.8234587907791138,-0.27148643136024475,-0.9073712825775146,-0.2060847133398056,-4.56575870513916
50,1910035,1910036,-1.1272265911102295,-0.07730276137590408,0.9724704027175903,14.946981430053711,58.256595611572266,-3.67940092086792,-0.6299684643745422,-0.8279585838317871,-0.26998651027679443,-1.6781412363052368,0.045473646372556686,-4.534975051879883
51,1910045,1910046,-1.5542938709259033,-0.1471332162618637,0.9246982932090759,24.915090560913086,59.77633285522461,-8.323627471923828,-0.6449677348136902,-0.8339582681655884,-0.28198590874671936,-1.9689737558364868,0.1676025539636612,-4.6922383308410645
52,1910055,1910056,-0.7755110859870911,-0.18087853491306305,0.904935359954834,30.21672821044922,44.48363494873047,-8.49810791015625,-0.6359682083129883,-0.8429578542709351,-0.28198590874671936,-2.5477964878082275,0.4623885154724121,-4.752796649932861
53,1910065,1910066,-0.6784230470657349,-0.10840684175491333,0.8938753008842468,29.003210067749023,17.72415542602539,-7.804620265960693,-0.6554672122001648,-0.844457745552063,-0.2924853563308716,-3.065847873687744,0.9393630027770996,-4.736201286315918
54,1910075,1910076,-0.3485843241214752,-0.28615042567253113,0.9497991800308228,34.67362594604492,-4.535100936889648,-5.777340888977051,-0.6419678926467896,-0.8459576964378357,-0.2969851493835449,-2.9232311248779297,1.0128816366195679,-4.947399139404297
55,1910085,1910086,-0.2894172966480255,-0.09168887883424759,0.9118592143058777,26.0684871673584,-24.76298713684082,-6.857785224914551,-0.6554672122001648,-0.8414579033851624,-0.2834858298301697,-2.629631280899048,1.3686362504959106,-5.028240203857422
56,1910095,1910096,-0.5247363448143005,-0.16904214024543762,0.8094576001167297,19.06523895263672,-50.790096282958984,-6.984870910644531,-0.6299684643745422,-0.8549572229385376,-0.29998499155044556,-2.3200395107269287,1.5307402610778809,-5.140533924102783
57,1910105,1910106,-0.5611661672592163,-0.09830907732248306,0.8470038771629333,5.894566535949707,-57.43569564819336,-7.664255142211914,-0.6389680504798889,-0.8639568090438843,-0.3029848337173462,-1.5366359949111938,1.8002753257751465,-5.198727130889893
58,1910115,1910116,-0.6928766965866089,-0.12984810769557953,0.9455762505531311,-6.713881492614746,-52.16008377075195,-6.518836975097656,-0.623968780040741,-0.8639568090438843,-0.3029848337173462,-1.2510709762573242,1.649420976638794,-5.35775089263916
59,1910125,1910126,-0.8923372626304626,-0.7889629602432251,0.7913830876350403,-13.891287803649902,-31.230619430541992,-5.923223972320557,-0.6059696674346924,-0.8609569072723389,-0.3029848337173462,-0.8514524698257446,1.5490715503692627,-5.435464382171631
60,1910135,1910136,-0.21864697337150574,-0.3435802161693573,0.8317669034004211,-15.704400062561035,-6.997309684753418,-3.6159322261810303,-0.6209689378738403,-0.8609569072723389,-0.30898454785346985,-0.6008594632148743,1.363124966621399,-5.50626277923584
61,1910145,1910146,-0.13540947437286377,0.008207199163734913,0.9567179083824158,-11.429304122924805,14.257492065429688,-2.4325594902038574,-0.6134693026542664,-0.850457489490509,-0.3014849126338959,-0.5857499241828918,1.3448528051376343,-5.48803186416626
62,1910155,1910156,-0.7078278064727783,-0.42122361063957214,0.9707688689231873,-5.6948628425598145,26.42230987548828,-3.040024757385254,-0.6179690957069397,-0.8489575386047363,-0.29998499155044556,-0.7781647443771362,1.3371108770370483,-5.476800918579102
63,1910165,1910166,-0.9575982689857483,-0.45875340700149536,1.03480863571167,2.539106607437134,30.92475700378418,-2.5314736366271973,-0.6209689378738403,-0.8609569072723389,-0.3029848337173462,-1.0655410289764404,1.3673588037490845,-5.478024482727051
64,1910175,1910176,-0.6902652382850647,-0.8745267987251282,0.9760816097259521,-1.8209964036941528,31.64342498779297,-4.528484344482422,-0.6389680504798889,-0.8579570651054382,-0.28798559308052063,-1.3784325122833252,1.4114255905151367,-5.491144180297852
65,1910185,1910186,-0.5354534387588501,-1.1678167581558228,0.8941566944122314,-5.0393476486206055,26.451650619506836,-4.754932403564453,-0.6209689378738403,-0.8579570651054382,-0.3119843900203705,-1.7026768922805786,1.241471290588379,-5.57750129699707
66,1910195,1910196,-0.5171976089477539,-0.4429648220539093,0.9087046980857849,-13.514784812927246,20.531911849975586,-5.945676803588867,-0.6269686222076416,-0.8549572229385376,-0.3029848337173462,-1.853437066078186,1.3237950801849365,-5.554708480834961
67,1910205,1910206,-0.38935503363609314,-0.2654571533203125,0.9682623147964478,-18.155832290649414,9.712789535522461,-6.932435035705566,-0.6329683661460876,-0.8549572229385376,-0.29998499155044556,-2.0954854488372803,1.1753507852554321,-5.629548072814941
68,1910215,1910216,-0.25443530082702637,-0.25458770990371704,0.9174511432647705,-6.211614608764648,-4.627518177032471,-6.714328289031982,-0.6434678435325623,-0.8654567003250122,-0.2924853563308716,-1.9041469097137451,1.0248337984085083,-5.666901111602783
69,1910225,1910226,-0.646918773651123,-0.13303257524967194,1.0459712743759155,-5.240418910980225,-2.561570167541504,-7.131231784820557,-0.6314684152603149,-0.8564571738243103,-0.2924853563308716,-1.8907026052474976,0.9383573532104492,-5.739718437194824
70,1910235,1910236,-0.6293458938598633,-0.448064923286438,1.0238512754440308,-4.67178201675415,-11.043251037597656,-7.187452793121338,-0.6314684152603149,-0.8594570159912109,-0.3014849126338959,-1.8381270170211792,0.8725191354751587,-5.813492774963379
71,1910245,1910246,-0.4000096917152405,-0.46438226103782654,1.0009490251541138,-1.6006370782852173,-18.04798126220703,-7.049917697906494,-0.6284685730934143,-0.8534573316574097,-0.3044847846031189,-1.6760729551315308,0.920661985874176,-5.85096549987793
72,1910255,1910256,-0.15327855944633484,-0.7497292160987854,1.1120364665985107,1.7598469257354736,-22.482118606567383,-7.810380935668945,-0.6254687309265137,-0.8654567003250122,-0.2924853563308716,-1.4531614780426025,0.8863846063613892,-5.937636852264404
73,1910265,1910266,-0.10359740257263184,-0.5860627293586731,1.0172630548477173,9.372662544250488,-17.554595947265625,-9.16540813446045,-0.6299684643745422,-0.8639568090438843,-0.3029848337173462,-1.2256903648376465,1.0079450607299805,-5.992789268493652
74,1910275,1910276,-0.12007323652505875,-0.5880135893821716,0.918620765209198,14.781693458557129,-5.53354549407959,-10.48112964630127,-0.6299684643745422,-0.8579570651054382,-0.29098543524742126,-1.201399564743042,1.1197826862335205,-6.09324312210083
75,1910285,1910286,-0.10394714027643204,-0.45845407247543335,0.9213988780975342,7.250432014465332,8.09145736694336,-9.31817626953125,-0.6299684643745422,-0.8609569072723389,-0.28798559308052063,-1.209424614906311,1.2058930397033691,-6.202670574188232
76,1910295,1910296,-0.3136675953865051,-0.5817868709564209,0.9713327884674072,5.855958461761475,13.856643676757812,-9.7312593460083,-0.6374680995941162,-0.8714563846588135,-0.2954852283000946,-1.3670071363449097,1.2507870197296143,-6.313841819763184
77,1910305,1910306,-0.6353709697723389,-0.40319934487342834,1.1644072532653809,2.1790053844451904,13.603788375854492,-9.748631477355957,-0.622468888759613,-0.8654567003250122,-0.2954852283000946,-1.524484395980835,1.2771905660629272,-6.4252166748046875
78,1910315,1910316,-0.3815845549106598,-0.2830785810947418,1.1118680238723755,9.98508358001709,17.512956619262695,-9.739591598510742,-0.6419678926467896,-0.8729563355445862,-0.3029848337173462,-1.5788376331329346,1.3295308351516724,-6.50719690322876
79,1910325,1910326,-0.23131513595581055,-0.2310999035835266,0.9744879007339478,15.535979270935059,16.011337280273438,-9.66991901397705,-0.6464676856994629,-0.8744562864303589,-0.3164841830730438,-1.8366166353225708,1.5130743980407715,-6.582449436187744
80,1910335,1910336,-0.45035630464553833,-0.29748696088790894,0.9306285977363586,9.739323616027832,-3.102574586868286,-8.00844955444336,-0.6374680995941162,-0.8624568581581116,-0.3014849126338959,-1.9026139974594116,1.6364294290542603,-6.6626410484313965
81,1910345,1910346,-0.2562863826751709,-0.22759252786636353,0.9579997062683105,-1.1940759420394897,-10.124770164489746,-7.590898513793945,-0.6269686222076416,-0.8609569072723389,-0.29998499155044556,-1.860054612159729,1.7168951034545898,-6.744254112243652
82,1910355,1910356,-0.45020443201065063,-0.2014889419078827,0.9606892466545105,-17.68626594543457,-10.732136726379395,-8.346630096435547,-0.6314684152603149,-0.8624568581581116,-0.31048446893692017,-1.654477596282959,1.5430744886398315,-6.8476715087890625
83,1910365,1910366,-0.36021512746810913,-0.3316621780395508,1.034550666809082,-29.960092544555664,-11.297248840332031,-7.740006923675537,-0.6194689869880676,-0.850457489490509,-0.3014849126338959,-1.4406311511993408,1.281435489654541,-6.929243087768555
84,1910375,1910376,-0.5341863632202148,-0.6838222742080688,0.9986740350723267,-38.564727783203125,-11.55344295501709,-7.635930061340332,-0.623968780040741,-0.8609569072723389,-0.29998499155044556,-1.3273491859436035,0.9366611242294312,-7.014814376831055
85,1910385,1910386,-1.0760746002197266,-0.5249589085578918,1.031841516494751,-40.965999603271484,-6.492189407348633,-7.106496334075928,-0.616469144821167,-0.8654567003250122,-0.3014849126338959,-1.2536019086837769,0.6380546689033508,-7.068005561828613
86,1910395,1910396,-0.728724479675293,-0.33951935172080994,1.0475528240203857,-36.76593780517578,3.3228471279144287,-6.531496524810791,-0.6074696183204651,-0.8534573316574097,-0.31048446893692017,-1.2979100942611694,0.19706355035305023,-7.160314083099365
87,1910405,1910406,-0.3542384207248688,-0.28450116515159607,0.9838970899581909,-23.95993995666504,11.681396484375,-6.320186614990234,-0.6179690957069397,-0.851957380771637,-0.2969851493835449,-1.2546014785766602,-0.1198248416185379,-7.201142311096191
88,1910415,1910416,-0.12436923384666443,-0.2808977961540222,0.9731748700141907,-7.881435394287109,14.232076644897461,-5.179128646850586,-0.6329683661460876,-0.8549572229385376,-0.29098543524742126,-1.4306641817092896,-0.18214425444602966,-7.23002290725708
89,1910425,1910426,-0.17058497667312622,-0.38423728942871094,1.0133241415023804,5.6938796043396,16.794321060180664,-5.721593379974365,-0.6359682083129883,-0.8579570651054382,-0.29098543524742126,-1.4354501962661743,-0.22241371870040894,-7.264813423156738
90,1910435,1910436,-0.49653324484825134,0.04280812665820122,1.1151401996612549,14.621057510375977,16.72707748413086,-4.025348663330078,-0.6359682083129883,-0.8579570651054382,-0.28798559308052063,-1.6191853284835815,-0.060741595923900604,-7.3036627769470215
91,1910445,1910446,-0.19920995831489563,-0.09882933646440506,1.1823447942733765,20.674022674560547,13.540689468383789,-5.0921173095703125,-0.6554672122001648,-0.850457489490509,-0.29848507046699524,-1.8875327110290527,0.15535874664783478,-7.349050045013428
92,1910455,1910456,-0.5124703645706177,-0.25267207622528076,1.0705772638320923,23.251052856445312,18.18932342529297,-2.6897099018096924,-0.6434678435325623,-0.8654567003250122,-0.28948551416397095,-2.081087350845337,0.41424885392189026,-7.381603717803955
93,1910465,1910466,-0.46899542212486267,-0.35261622071266174,0.9879685640335083,15.068010330200195,11.018047332763672,-0.6232059597969055,-0.6404679417610168,-0.8774561285972595,-0.3044847846031189,-2.2718875408172607,0.6217506527900696,-7.40365743637085
94,1910475,1910476,-0.2202843576669693,-0.2662509083747864,0.9914301633834839,3.782641649246216,-3.5907130241394043,-0.23480746150016785,-0.6464676856994629,-0.8594570159912109,-0.3134843111038208,-2.2186577320098877,0.6804794073104858,-7.420745849609375
95,1910485,1910486,-0.35934126377105713,-0.22274957597255707,0.9507759809494019,-4.016063213348389,-18.592092514038086,0.19831931591033936,-0.6329683661460876,-0.8489575386047363,-0.30898454785346985,-2.112409830093384,0.5953901410102844,-7.451696872711182
96,1910495,1910496,-0.4781820774078369,-0.48200705647468567,0.8837299346923828,-9.040874481201172,-20.253314971923828,0.5638513565063477,-0.6419678926467896,-0.8579570651054382,-0.2969851493835449,-1.7607601881027222,0.4616481363773346,-7.457686901092529
97,1910505,1910506,-0.6031830310821533,-0.25446441769599915,0.9203760027885437,-14.559005737304688,-27.803178787231445,1.7795231342315674,-0.6284685730934143,-0.8624568581581116,-0.3014849126338959,-1.6556777954101562,0.4538392722606659,-7.428025722503662
98,1910515,1910516,-0.4440900385379791,-0.02374168112874031,0.9375742077827454,-18.96242332458496,-29.732505798339844,-0.05059080198407173,-0.6179690957069397,-0.8669566512107849,-0.29998499155044556,-1.4207276105880737,0.2965250015258789,-7.423367023468018
99,1910525,1910526,-0.7055163383483887,0.008707490749657154,0.9942253828048706,-16.6584415435791,-24.956851959228516,-0.1463671326637268,-0.6254687309265137,-0.8534573316574097,-0.2954852283000946,-1.0826435089111328,0.12798163294792175,-7.4187912940979
100,1910535,1910536,-0.4203292727470398,-0.08253517001867294,1.0434715747833252,-13.227313041687012,-13.157919883728027,-0.5192191004753113,-0.616469144821167,-0.8474575877189636,-0.29848507046699524,-0.9590209126472473,-0.07336848229169846,-7.435417652130127
101,1910545,1910546,-0.9432575702667236,-0.3947845995426178,0.9605990052223206,-2.9419362545013428,2.537794828414917,-1.8991889953613281,-0.6374680995941162,-0.8414579033851624,-0.3044847846031189,-0.9034667611122131,-0.18414421379566193,-7.438522815704346
102,1910555,1910556,-0.6576664447784424,-0.3977836072444916,1.0222229957580566,-0.29880034923553467,16.913599014282227,-0.7687379121780396,-0.6269686222076416,-0.8549572229385376,-0.2969851493835449,-1.0775154829025269,-0.10841517150402069,-7.428438186645508
103,1910565,1910566,-0.3385986387729645,-0.5534140467643738,1.0216867923736572,7.039492607116699,27.001955032348633,-1.574328064918518,-0.6344682574272156,-0.8594570159912109,-0.3014849126338959,-1.346983790397644,-0.021130431443452835,-7.420139312744141
104,1910575,1910576,-0.4305172562599182,-0.22404280304908752,0.9925658702850342,5.0690178871154785,25.448776245117188,-4.184652328491211,-0.6344682574272156,-0.8594570159912109,-0.3014849126338959,-1.6112009286880493,0.03384698927402496,-7.4437994956970215
105,1910585,1910586,-1.0633342266082764,-0.09374033659696579,1.0270214080810547,4.978903770446777,17.99631690979004,-4.7443928718566895,-0.6344682574272156,-0.8594570159912109,-0.3014849126338959,-1.553810477256775,0.08878891915082932,-7.489714622497559
106,1910595,1910596,-0.6241766810417175,-0.4737890362739563,1.0302995443344116,-0.016628917306661606,7.509806156158447,-4.15044641494751,-0.6344682574272156,-0.8594570159912109,-0.3014849126338959,-1.8041586875915527,0.09549760073423386,-7.543165683746338
107,1910605,1910606,-0.4729320704936981,-0.5895780920982361,1.009181022644043,-8.41195011138916,-0.5058868527412415,-2.5519580841064453,-0.6374680995941162,-0.8534573316574097,-0.29848507046699524,-1.868285894393921,0.04669777676463127,-7.584583282470703
108,1910615,1910616,-0.27611687779426575,-0.28677210211753845,1.0344769954681396,-18.638458251953125,-6.322112560272217,-0.3843088150024414,-0.6299684643745422,-0.8669566512107849,-0.2939853072166443,-1.799372673034668,-0.0734909325838089,-7.6052632331848145
109,1910625,1910626,-0.4482790231704712,0.06874792277812958,1.2216745615005493,-28.766948699951172,-9.677322387695312,1.6720412969589233,-0.6389680504798889,-0.8549572229385376,-0.29998499155044556,-1.669875979423523,-0.3974619507789612,-7.635446548461914
110,1910635,1910636,-0.30680277943611145,-0.04418710619211197,1.0708091259002686,-23.151386260986328,-4.666501045227051,1.112748146057129,-0.6269686222076416,-0.8609569072723389,-0.3029848337173462,-1.6437450647354126,-0.615665853023529,-7.614842414855957
111,1910645,1910646,-0.38941624760627747,-0.44819068908691406,1.0225450992584229,-16.432395935058594,0.7045906782150269,1.3826178312301636,-0.6329683661460876,-0.8579570651054382,-0.29998499155044556,-1.6245650053024292,-0.9048849940299988,-7.616329669952393
112,1910655,1910656,-0.27118033170700073,-0.5939791798591614,1.031422734260559,-10.09643268585205,1.5951521396636963,2.8199968338012695,-0.6314684152603149,-0.8474575877189636,-0.2864856719970703,-1.6357421875,-1.0150301456451416,-7.587800025939941
113,1910665,1910666,-0.5012328624725342,-0.5004945397377014,1.012955904006958,-1.0844217538833618,-5.888412952423096,3.931825637817383,-0.6419678926467896,-0.8549572229385376,-0.2939853072166443,-1.5905613899230957,-0.9786162376403809,-7.5367112159729
114,1910675,1910676,-1.0059915781021118,-0.19282624125480652,1.0209726095199585,7.14387321472168,-17.589561462402344,5.20969820022583,-0.6389680504798889,-0.851957380771637,-0.28798559308052063,-1.5429160594940186,-0.9481529593467712,-7.484730243682861
115,1910685,1910686,-0.7444409728050232,-0.16114366054534912,1.0289541482925415,10.567662239074707,-31.074329376220703,7.042473793029785,-0.6149692535400391,-0.8429578542709351,-0.28798559308052063,-1.3000507354736328,-0.8168706297874451,-7.427484512329102
116,1910695,1910696,-0.3965485394001007,-0.10929659008979797,0.9319091439247131,15.337616920471191,-34.388206481933594,3.959092378616333,-0.6389680504798889,-0.8669566512107849,-0.2939853072166443,-1.009600281715393,-0.6341405510902405,-7.348047733306885
117,1910705,1910706,-0.3045242130756378,-0.39127975702285767,0.87370765209198,13.038117408752441,-17.948171615600586,2.02347469329834,-0.623968780040741,-0.8579570651054382,-0.3029848337173462,-0.8801049590110779,-0.45704442262649536,-7.276877403259277
118,1910715,1910716,-0.26744142174720764,-0.8028977513313293,0.9884355664253235,6.27886438369751,-7.41447639465332,0.8318807482719421,-0.6314684152603149,-0.8624568581581116,-0.3044847846031189,-0.632875919342041,-0.4246430993080139,-7.277211666107178
119,1910725,1910726,-0.3369922935962677,-0.6190582513809204,1.0275757312774658,6.700660705566406,3.702976942062378,-0.1713271290063858,-0.6209689378738403,-0.8609569072723389,-0.3149842321872711,-0.5514999032020569,-0.4930323660373688,-7.28922176361084
120,1910735,1910736,-0.06341123580932617,-0.26162439584732056,0.9865527749061584,6.304229259490967,-1.1088587045669556,0.2884225845336914,-0.6269686222076416,-0.8789560198783875,-0.3059847056865692,-0.7445817589759827,-0.3295869529247284,-7.256894588470459
121,1910745,1910746,-0.17204348742961884,-0.1067124530673027,1.0993069410324097,3.8863186836242676,-1.8592747449874878,0.47522690892219543,-0.6284685730934143,-0.8654567003250122,-0.30748462677001953,-0.7717778086662292,-0.26425299048423767,-7.251767635345459
122,1910755,1910756,-0.13204200565814972,-0.09408991038799286,1.0679734945297241,2.293140411376953,-4.690920829772949,1.8060685396194458,-0.623968780040741,-0.8579570651054382,-0.2969851493835449,-0.6880422830581665,-0.24927237629890442,-7.253128528594971
123,1910765,1910766,-0.02371247671544552,-0.16346284747123718,0.8494739532470703,6.071807384490967,-8.324793815612793,2.1560871601104736,-0.622468888759613,-0.8654567003250122,-0.3044847846031189,-0.5553672313690186,-0.23082886636257172,-7.2401957511901855
124,1910775,1910776,-0.7750851511955261,-0.2674753665924072,0.9610802531242371,1.904113531112671,-9.69808578491211,3.596536159515381,-0.616469144821167,-0.8654567003250122,-0.30748462677001953,-0.5748279690742493,-0.21838612854480743,-7.191978931427002
125,1910785,1910786,-1.5459073781967163,-0.15352801978588104,1.1425124406814575,-2.631283760070801,-14.012662887573242,7.450467586517334,-0.6044697761535645,-0.8594570159912109,-0.2924853563308716,-0.3742756247520447,-0.3154459595680237,-7.158873081207275
126,1910795,1910796,-1.320902943611145,0.1440286785364151,1.0919206142425537,-2.063788652420044,-16.57781982421875,9.165178298950195,-0.616469144821167,-0.8744562864303589,-0.29848507046699524,-0.2821994125843048,-0.14312180876731873,-7.072410583496094
127,1910805,1910806,-0.7722437381744385,-0.049637842923402786,1.1182185411453247,1.6922290325164795,-16.913301467895508,8.312975883483887,-0.6179690957069397,-0.8759561777114868,-0.2969851493835449,-0.05270480737090111,-0.16533014178276062,-6.9950408935546875
128,1910815,1910816,-0.7566264271736145,-0.2780958116054535,1.1980857849121094,2.2397162914276123,-20.279756546020508,9.430768966674805,-0.6104694604873657,-0.8594570159912109,-0.29848507046699524,0.18133720755577087,-0.15697620809078217,-6.916257381439209
129,1910825,1910826,-1.2441847324371338,-0.5120543837547302,1.1095377206802368,7.167543888092041,-16.170839309692383,10.1184720993042,-0.616469144821167,-0.8654567003250122,-0.3044847846031189,0.3888345956802368,-0.18950149416923523,-6.825414657592773
130,1910835,1910836,-1.2238333225250244,-0.9144353866577148,0.9524849057197571,4.92255163192749,-4.124300479888916,8.503947257995605,-0.622468888759613,-0.8534573316574097,-0.29848507046699524,0.48607566952705383,-0.15019236505031586,-6.724236965179443
131,1910845,1910846,-0.5151478052139282,-0.46049681305885315,0.916297197341919,0.9496473670005798,-0.6686418652534485,8.939310073852539,-0.6269686222076416,-0.8549572229385376,-0.2969851493835449,0.37151864171028137,-0.14024710655212402,-6.614672660827637
132,1910855,1910856,-0.33357685804367065,-0.1572251170873642,0.9793694019317627,-0.8019413352012634,-6.395827770233154,9.699270248413086,-0.622468888759613,-0.8534573316574097,-0.29848507046699524,0.4984581172466278,-0.1506446748971939,-6.525714874267578
133,1910865,1910866,-0.32634463906288147,0.01391914114356041,1.1019364595413208,-3.3135805130004883,3.6064367294311523,9.917778015136719,-0.6209689378738403,-0.8579570651054382,-0.2939853072166443,0.5777552127838135,-0.1945665329694748,-6.422423839569092
134,1910875,1910876,-0.23449304699897766,-0.06091303750872612,1.0617097616195679,-8.996013641357422,6.448883056640625,13.07228946685791,-0.6149692535400391,-0.851957380771637,-0.29098543524742126,0.5535117387771606,-0.2423166036605835,-6.310705184936523
135,1910885,1910886,-0.21917611360549927,0.13240931928157806,1.1421833038330078,-9.590386390686035,7.912182331085205,15.148507118225098,-0.6014699339866638,-0.850457489490509,-0.2954852283000946,0.4711475968360901,-0.33387070894241333,-6.174471378326416
136,1910895,1910896,-0.7524750232696533,0.05871376395225525,1.16977858543396,-10.91070556640625,4.574224472045898,15.0903959274292,-0.6284685730934143,-0.8624568581581116,-0.2954852283000946,0.3910056948661804,-0.36112985014915466,-6.032103538513184
137,1910905,1910906,-0.6225451827049255,-0.29726824164390564,1.1522668600082397,-7.1319475173950195,-5.958562850952148,18.016719818115234,-0.616469144821167,-0.8534573316574097,-0.2954852283000946,0.41335609555244446,-0.4477318525314331,-5.877233982086182
138,1910915,1910916,-0.7253737449645996,-0.1400817632675171,1.0440385341644287,-0.8372800946235657,-17.875930786132812,21.59359359741211,-0.616469144821167,-0.850457489490509,-0.30748462677001953,0.59373539686203,-0.539864718914032,-5.6994476318359375
139,1910925,1910926,-0.6248544454574585,-0.12818306684494019,1.0393307209014893,2.1757607460021973,-16.586116790771484,24.550825119018555,-0.616469144821167,-0.8594570159912109,-0.31048446893692017,0.73412024974823,-0.5539944171905518,-5.472945213317871
140,1910935,1910936,-0.4047742486000061,-0.17128247022628784,0.9938521385192871,8.3956880569458,-22.264339447021484,28.663360595703125,-0.6104694604873657,-0.8564571738243103,-0.2864856719970703,0.8912965059280396,-0.41548314690589905,-5.237244129180908
141,1910945,1910946,-0.21235275268554688,-0.0471157431602478,1.03976571559906,12.443540573120117,-6.878602504730225,29.3690128326416,-0.616469144821167,-0.8594570159912109,-0.2924853563308716,1.0160433053970337,-0.21328207850456238,-4.973414897918701
142,1910955,1910956,-0.3690283000469208,-0.24570134282112122,1.029180884361267,17.320274353027344,-7.728494644165039,33.47020721435547,-0.622468888759613,-0.850457489490509,-0.28948551416397095,1.0460777282714844,-0.08098991215229034,-4.6720991134643555
143,1910965,1910966,-0.7741712927818298,-0.2065686136484146,1.0143455266952515,17.52705192565918,5.27630615234375,31.84007453918457,-0.6149692535400391,-0.8459576964378357,-0.28498575091362,1.0491656064987183,0.15052418410778046,-4.360489368438721
144,1910975,1910976,-0.4904254376888275,-0.0942123532295227,0.9952734112739563,14.641088485717773,2.5057015419006348,32.4239387512207,-0.6119694113731384,-0.8579570651054382,-0.29098543524742126,0.9867489337921143,0.296228289604187,-4.040171146392822
145,1910985,1910986,-0.1415250152349472,-0.0940571129322052,1.022832989692688,3.3407585620880127,10.541385650634766,29.864181518554688,-0.5969701409339905,-0.8489575386047363,-0.28498575091362,0.8759056329727173,0.40399864315986633,-3.7192203998565674
146,1910995,1910996,-0.2266760915517807,-0.10992012172937393,0.9891601204872131,-3.9922327995300293,0.16797210276126862,31.793594360351562,-0.6134693026542664,-0.8474575877189636,-0.2924853563308716,0.8475894927978516,0.3635668456554413,-3.4068264961242676
147,1911005,1911006,-0.49722978472709656,-0.2989363372325897,1.05067777633667,-15.604924201965332,0.46923550963401794,31.4955997467041,-0.6194689869880676,-0.850457489490509,-0.2924853563308716,0.8102725148200989,0.16643016040325165,-3.0606417655944824
148,1911015,1911016,-0.6729093194007874,-0.2742469310760498,1.028498888015747,-16.57048988342285,1.293297529220581,30.433536529541016,-0.6134693026542664,-0.8414579033851624,-0.2834858298301697,0.7748475074768066,0.016540858894586563,-2.7502341270446777
149,1911025,1911026,-0.482105553150177,-0.6683080196380615,1.074439287185669,-22.017976760864258,-8.9208402633667,30.103418350219727,-0.6149692535400391,-0.8429578542709351,-0.28798559308052063,0.8141045570373535,-0.3094136118888855,-2.411717414855957
150,1911035,1911036,-0.5770648717880249,-0.17619231343269348,1.0699748992919922,-31.305089950561523,-2.9870691299438477,25.77027702331543,-0.5954701900482178,-0.844457745552063,-0.28948551416397095,1.0244430303573608,-0.690578043460846,-2.096668004989624
151,1911045,1911046,-1.150011658668518,0.23718732595443726,1.0470998287200928,-36.06583023071289,-9.71216869354248,22.185951232910156,-0.5969701409339905,-0.8309584259986877,-0.28498575091362,1.0306150913238525,-0.6222718358039856,-1.9493608474731445
152,1911055,1911056,-0.9365015625953674,-0.10680036246776581,1.0779869556427002,-37.83998489379883,-13.084920883178711,21.97785758972168,-0.5939702987670898,-0.8309584259986877,-0.29098543524742126,1.205908179283142,-1.1277083158493042,-1.69058358669281
153,1911065,1911066,-0.2666819095611572,-0.5519035458564758,1.036145806312561,-25.42069435119629,-13.414168357849121,21.423845291137695,-0.5909704566001892,-0.836958110332489,-0.2969851493835449,1.3256303071975708,-1.3887094259262085,-1.4904276132583618
154,1911075,1911076,-0.14695094525814056,-0.4311319887638092,1.0342612266540527,-9.882205963134766,-3.5746164321899414,22.13564682006836,-0.5984700918197632,-0.8234587907791138,-0.2834858298301697,1.453349232673645,-1.6345289945602417,-1.2640022039413452
155,1911085,1911086,-0.19990336894989014,-0.2225181758403778,1.013640284538269,7.694339275360107,7.178380489349365,21.463661193847656,-0.5999699831008911,-0.8339582681655884,-0.2759861946105957,1.3895189762115479,-1.6745258569717407,-1.044037938117981
156,1911095,1911096,-0.17061150074005127,0.029966311529278755,0.9923886656761169,21.24349021911621,14.994254112243652,21.504711151123047,-0.6029698252677917,-0.8189590573310852,-0.27298635244369507,1.17960786819458,-1.4591718912124634,-0.8470897078514099
157,1911105,1911106,-0.19547314941883087,-0.04620671272277832,0.9924911856651306,32.674537658691406,18.413549423217773,22.110071182250977,-0.6044697761535645,-0.8354582190513611,-0.28048595786094666,1.0105512142181396,-1.1853837966918945,-0.6422717571258545
158,1911115,1911116,-0.231538787484169,-0.09587832540273666,1.0120806694030762,31.745410919189453,21.586959838867188,21.352922439575195,-0.616469144821167,-0.8384580612182617,-0.28048595786094666,0.8616282343864441,-0.9673775434494019,-0.40295666456222534
159,1911125,1911126,-0.09580867737531662,-0.039077915251255035,0.9783100485801697,22.08013916015625,23.443702697753906,20.68337631225586,-0.6194689869880676,-0.8324583768844604,-0.28048595786094666,0.6691876649856567,-0.686339795589447,-0.19704486429691315
160,1911135,1911136,-0.2960432171821594,-0.2053651213645935,0.962457001209259,10.462039947509766,21.33181381225586,19.986616134643555,-0.6104694604873657,-0.8384580612182617,-0.28948551416397095,0.48655974864959717,-0.6395169496536255,0.03921399638056755
161,1911145,1911146,-0.1435890793800354,0.01672130823135376,1.0067859888076782,-3.332317590713501,22.052614212036133,21.086652755737305,-0.6119694113731384,-0.8279585838317871,-0.27898603677749634,0.3805265724658966,-0.5785670280456543,0.22071972489356995
162,1911155,1911156,-0.3526165187358856,-0.09899767488241196,0.9772870540618896,-13.92052173614502,21.230695724487305,20.425783157348633,-0.6014699339866638,-0.8174591064453125,-0.2864856719970703,0.07302497327327728,-0.7099376916885376,0.459547758102417
163,1911165,1911166,-0.4062279760837555,-0.5565808415412903,0.9474034309387207,-20.06650733947754,7.434309959411621,18.476322174072266,-0.6119694113731384,-0.8309584259986877,-0.28198590874671936,0.03928104788064957,-0.9735053181648254,0.6648024916648865
164,1911175,1911176,-0.205547034740448,-0.44588756561279297,0.9428561925888062,-23.52609634399414,-3.302576780319214,16.539443969726562,-0.6029698252677917,-0.8249587416648865,-0.29098543524742126,-0.04768547788262367,-1.30526864528656,0.882072389125824
165,1911185,1911186,-0.7410461902618408,-0.1516127586364746,0.9386419653892517,-17.36507797241211,-17.307289123535156,15.6371431350708,-0.5984700918197632,-0.8234587907791138,-0.28048595786094666,0.07791059464216232,-1.3980746269226074,1.0124083757400513
166,1911195,1911196,-0.28473082184791565,-0.05513812229037285,0.9326611757278442,-10.733269691467285,-22.77704620361328,15.71149730682373,-0.5999699831008911,-0.8279585838317871,-0.28798559308052063,0.36260297894477844,-1.533204436302185,1.1515203714370728
167,1911205,1911206,-0.38566645979881287,0.04898882657289505,0.952346682548523,-3.3476438522338867,-16.224695205688477,15.108010292053223,-0.6089695692062378,-0.8309584259986877,-0.28498575091362,0.5609253644943237,-1.62315833568573,1.3167786598205566
168,1911215,1911216,-0.4457486867904663,-0.030445147305727005,0.9611016511917114,4.315639495849609,-3.782470703125,13.587017059326172,-0.5924703478813171,-0.844457745552063,-0.277486115694046,0.6560906171798706,-1.5925061702728271,1.4673645496368408
169,1911225,1911226,-0.4914238154888153,-0.05179062858223915,0.9691789746284485,11.969033241271973,11.867586135864258,10.767992973327637,-0.6014699339866638,-0.8234587907791138,-0.277486115694046,0.5363252758979797,-1.5191060304641724,1.6150163412094116
170,1911235,1911236,-0.5005092024803162,-0.04071814566850662,0.9563131928443909,18.307987213134766,26.333593368530273,7.956873416900635,-0.6044697761535645,-0.8384580612182617,-0.2834858298301697,0.3944203555583954,-1.449619174003601,1.7220321893692017
171,1911245,1911246,-1.122389554977417,-0.5841216444969177,0.9729062914848328,22.50752830505371,34.89002990722656,6.745788097381592,-0.6074696183204651,-0.8474575877189636,-0.2924853563308716,0.12741917371749878,-1.2311934232711792,1.783135175704956
172,1911255,1911256,-1.429990530014038,-0.4851234257221222,0.9791446328163147,25.118017196655273,37.245635986328125,6.719953536987305,-0.6119694113731384,-0.8429578542709351,-0.29098543524742126,-0.3781299293041229,-1.0190268754959106,1.8776845932006836
173,1911265,1911266,-1.2804923057556152,-0.14723193645477295,1.0204133987426758,26.11532974243164,35.628211975097656,6.38291072845459,-0.6044697761535645,-0.8534573316574097,-0.2864856719970703,-0.742362916469574,-0.7819852828979492,1.9363205432891846
174,1911275,1911276,-0.7255429029464722,-0.0682767853140831,0.991386890411377,24.52499008178711,26.87255859375,5.6095290184021,-0.6104694604873657,-0.8414579033851624,-0.28948551416397095,-1.0815402269363403,-0.5437090396881104,1.9969935417175293
175,1911285,1911286,-0.21221590042114258,0.004543607588857412,0.9534351229667664,24.165891647338867,12.615145683288574,3.923976421356201,-0.622468888759613,-0.8264586329460144,-0.3044847846031189,-1.2328726053237915,-0.31362470984458923,2.0379226207733154
176,1911295,1911296,0.014822518453001976,0.06444135308265686,0.9762652516365051,20.75785255432129,4.4269328117370605,4.142082214355469,-0.6194689869880676,-0.8534573316574097,-0.2924853563308716,-1.2632325887680054,-0.18110062181949615,2.074603319168091
177,1911305,1911306,-0.46943148970603943,-0.07172016054391861,1.0029667615890503,10.985607147216797,1.741430401802063,2.6788156032562256,-0.6179690957069397,-0.851957380771637,-0.29098543524742126,-1.3589222431182861,-0.012370815500617027,2.1237311363220215
178,1911315,1911316,-0.24946977198123932,-0.1106039434671402,1.0452748537063599,1.3397349119186401,2.56245756149292,1.4023842811584473,-0.6179690957069397,-0.8639568090438843,-0.2939853072166443,-1.3736286163330078,-0.004878193140029907,2.1475603580474854
179,1911325,1911326,-0.7001374363899231,-0.24655967950820923,1.033937931060791,-2.86793851852417,-3.863072633743286,1.7691693305969238,-0.5954701900482178,-0.8564571738243103,-0.28948551416397095,-1.4260371923446655,0.037307027727365494,2.1632533073425293
180,1911335,1911336,-0.9237077832221985,-0.12572689354419708,1.054560661315918,-5.621070384979248,8.636687278747559,-1.6544488668441772,-0.6119694113731384,-0.8489575386047363,-0.29098543524742126,-1.4436269998550415,-0.12322200834751129,2.166667938232422
181,1911345,1911346,-0.25344714522361755,0.17547839879989624,1.074317216873169,-5.405925750732422,12.125030517578125,-5.020599842071533,-0.6149692535400391,-0.851957380771637,-0.29098543524742126,-1.5657203197479248,-0.15080612897872925,2.1510603427886963
182,1911355,1911356,-0.006488373968750238,-0.013238992542028427,1.0312222242355347,-6.047531604766846,14.711294174194336,-9.02022647857666,-0.6149692535400391,-0.851957380771637,-0.29098543524742126,-1.5992541313171387,-0.26165342330932617,2.0754547119140625
183,1911365,1911366,-0.028809433802962303,-0.03188066557049751,1.0016758441925049,-0.3960779011249542,16.288917541503906,-13.154728889465332,-0.6149692535400391,-0.851957380771637,-0.29098543524742126,-1.740422010421753,-0.32960012555122375,1.9787003993988037
184,1911375,1911376,-0.26164260506629944,-0.223764568567276,0.9441323280334473,10.817693710327148,8.0272855758667,-13.260930061340332,-0.6059696674346924,-0.8459576964378357,-0.29998499155044556,-1.897332787513733,-0.1931205540895462,1.8649437427520752
185,1911385,1911386,-0.3260561525821686,-0.3257015645503998,0.9341092705726624,19.78765296936035,8.510388374328613,-16.41164779663086,-0.6104694604873657,-0.8564571738243103,-0.2954852283000946,-2.0667262077331543,-0.11429556459188461,1.7242008447647095
186,1911395,1911396,-0.49649298191070557,-0.5779918432235718,0.9457405805587769,26.775054931640625,0.022181561216711998,-16.79163932800293,-0.6269686222076416,-0.8579570651054382,-0.3059847056865692,-2.1670994758605957,0.10706787556409836,1.5620769262313843
187,1911405,1911406,-0.2523357570171356,-0.34960654377937317,0.9731264114379883,30.154949188232422,1.1517107486724854,-24.161672592163086,-0.6254687309265137,-0.8564571738243103,-0.2924853563308716,-2.20676851272583,0.2679433524608612,1.3551559448242188
188,1911415,1911416,-0.22811979055404663,-0.12140412628650665,0.9773655533790588,34.63294982910156,-2.9684555530548096,-28.068038940429688,-0.6179690957069397,-0.8489575386047363,-0.29998499155044556,-2.1372625827789307,0.6429927349090576,1.1133440732955933
189,1911425,1911426,-0.4378734230995178,-0.2197139412164688,0.9592926502227783,38.14654541015625,-10.60222053527832,-30.513774871826172,-0.6299684643745422,-0.8609569072723389,-0.3029848337173462,-2.06693959236145,1.0059555768966675,0.8305341005325317
190,1911435,1911436,-0.37963011860847473,-0.35471951961517334,0.9456243515014648,36.89314651489258,-24.11536979675293,-26.809518814086914,-0.6284685730934143,-0.8594570159912109,-0.2924853563308716,-1.9818955659866333,1.2467271089553833,0.5041929483413696
191,1911445,1911446,-0.29086413979530334,-0.5805470943450928,0.8955234289169312,29.161317825317383,-12.37946605682373,-27.104036331176758,-0.6254687309265137,-0.8564571738243103,-0.28048595786094666,-1.7876269817352295,1.6178133487701416,0.24169759452342987
192,1911455,1911456,-0.10645526647567749,-0.2405565232038498,0.8668814897537231,14.55528450012207,-12.694704055786133,-21.47564697265625,-0.6284685730934143,-0.8624568581581116,-0.2924853563308716,-1.6332720518112183,1.7980546951293945,-0.02918584644794464
193,1911465,1911466,-0.18264953792095184,-0.19966399669647217,1.0382298231124878,0.12285180389881134,-4.223814487457275,-21.986522674560547,-0.6209689378738403,-0.8699564933776855,-0.3029848337173462,-1.544406533241272,1.8972104787826538,-0.25186002254486084
194,1911475,1911476,-0.9996167421340942,-0.6120153665542603,0.9732691645622253,-15.40061092376709,7.5309529304504395,-22.074321746826172,-0.623968780040741,-0.8669566512107849,-0.3029848337173462,-1.644434928894043,1.6992568969726562,-0.5241268873214722
195,1911485,1911486,-1.0145434141159058,-0.09208892285823822,1.1349406242370605,-28.294048309326172,11.296332359313965,-22.37506866455078,-0.616469144821167,-0.8624568581581116,-0.29848507046699524,-1.7377952337265015,1.5003492832183838,-0.7483044266700745
196,1911495,1911496,-0.840114951133728,-0.21365225315093994,1.1484570503234863,-23.930978775024414,5.769952774047852,-18.5330753326416,-0.622468888759613,-0.8534573316574097,-0.3014849126338959,-1.9279431104660034,1.221508264541626,-0.9689032435417175
197,1911505,1911506,-0.45915618538856506,-0.36959075927734375,1.0333333015441895,-14.911711692810059,15.793768882751465,-18.66481590270996,-0.623968780040741,-0.851957380771637,-0.29998499155044556,-1.996299386024475,1.0075980424880981,-1.137345790863037
198,1911515,1911516,-0.7892848253250122,-0.5263087749481201,1.0896896123886108,-10.437378883361816,18.740127563476562,-16.82419204711914,-0.623968780040741,-0.8639568090438843,-0.2969851493835449,-2.230393886566162,0.8228965401649475,-1.3294365406036377
199,1911525,1911526,-0.7802559733390808,-0.12180743366479874,1.1975092887878418,-3.0485119819641113,2.751298666000366,-11.717206001281738,-0.6209689378738403,-0.8549572229385376,-0.29998499155044556,-2.3275885581970215,0.7712835669517517,-1.4700067043304443
200,1911535,1911536,-0.4893784523010254,-0.1887626200914383,1.1894421577453613,9.048752784729004,-21.7354679107666,-9.295278549194336,-0.6299684643745422,-0.851957380771637,-0.2969851493835449,-2.2215864658355713,0.9004184603691101,-1.538041353225708
201,1911545,1911546,-0.04735632240772247,-0.5510987043380737,1.1142895221710205,21.53925895690918,-29.994142532348633,-6.995398998260498,-0.6299684643745422,-0.8429578542709351,-0.27898603677749634,-1.8833094835281372,1.0761982202529907,-1.599294662475586
202,1911555,1911556,-0.18667910993099213,-0.4270878732204437,1.0551589727401733,29.024341583251953,-36.590518951416016,-4.570498943328857,-0.6314684152603149,-0.8594570159912109,-0.2924853563308716,-1.5480749607086182,1.1787701845169067,-1.7003273963928223
203,1911565,1911566,-0.3149923086166382,-0.24343638122081757,1.005664587020874,28.218036651611328,-37.024986267089844,-3.5860953330993652,-0.6464676856994629,-0.850457489490509,-0.29848507046699524,-1.201602816581726,1.546981692314148,-1.7309263944625854
204,1911575,1911576,-0.9586738348007202,-0.33915674686431885,1.1347591876983643,23.93939208984375,-32.553550720214844,-3.6473958492279053,-0.6404679417610168,-0.8474575877189636,-0.29848507046699524,-0.81423419713974,1.6816152334213257,-1.8130817413330078
205,1911585,1911586,-1.3174889087677002,-0.26116347312927246,1.097429871559143,20.905702590942383,-36.45838165283203,-3.0024797916412354,-0.6299684643745422,-0.8429578542709351,-0.29098543524742126,-0.5674772262573242,2.055393695831299,-1.8438899517059326
206,1911595,1911596,-1.0729058980941772,-0.20722346007823944,0.9348604083061218,14.344700813293457,-32.20838928222656,-5.015787124633789,-0.6254687309265137,-0.844457745552063,-0.2834858298301697,-0.2660907208919525,2.1227519512176514,-1.9343318939208984
207,1911605,1911606,-0.9789342284202576,-0.4497378468513489,0.9480093121528625,17.894132614135742,-25.417194366455078,-4.609015941619873,-0.6284685730934143,-0.8384580612182617,-0.2864856719970703,0.13454635441303253,2.228803873062134,-1.9764961004257202
208,1911615,1911616,-1.044555902481079,-0.3468402922153473,0.9355254173278809,10.997461318969727,-1.1346527338027954,-2.661372661590576,-0.6389680504798889,-0.8279585838317871,-0.27298635244369507,0.24678534269332886,2.4227025508880615,-2.0360267162323
209,1911625,1911626,-0.5632184147834778,-0.18375922739505768,1.029199242591858,-0.8399583697319031,2.7425992488861084,-1.5981004238128662,-0.6299684643745422,-0.8459576964378357,-0.28198590874671936,0.17912796139717102,2.413581371307373,-2.1003577709198
210,1911635,1911636,-0.539983332157135,-0.3380853533744812,1.133218765258789,-12.254131317138672,1.9193284511566162,0.47256097197532654,-0.623968780040741,-0.8489575386047363,-0.2759861946105957,0.16185738146305084,2.38847017288208,-2.1075339317321777
211,1911645,1911646,-0.8604281544685364,-0.3096001148223877,1.027458667755127,-14.30716323852539,17.299240112304688,-2.487295389175415,-0.622468888759613,-0.8384580612182617,-0.26848655939102173,0.07090630382299423,2.2237191200256348,-2.1117076873779297
212,1911655,1911656,-0.7238356471061707,-0.4454602599143982,0.8659836649894714,-13.625344276428223,23.330202102661133,-2.6469717025756836,-0.6209689378738403,-0.8459576964378357,-0.29098543524742126,-0.13851383328437805,2.0911917686462402,-2.129715919494629
213,1911665,1911666,-0.6120583415031433,-0.15865232050418854,0.9158952832221985,-20.39577865600586,21.854068756103516,-4.197491645812988,-0.6194689869880676,-0.8324583768844604,-0.2864856719970703,-0.3738044798374176,1.9183067083358765,-2.1574347019195557
214,1911675,1911676,-0.6055790185928345,0.0011852236930280924,0.8683733344078064,-14.887418746948242,4.003381252288818,-4.5834245681762695,-0.6359682083129883,-0.8399580121040344,-0.27298635244369507,-0.49972450733184814,1.8251243829727173,-2.1716763973236084
215,1911685,1911686,-0.7056740522384644,-0.20581956207752228,0.8247852921485901,-5.3236613273620605,3.3258767127990723,-8.120269775390625,-0.6254687309265137,-0.844457745552063,-0.28048595786094666,-0.5582660436630249,1.6907553672790527,-2.2234582901000977
216,1911695,1911696,-0.37303608655929565,-0.19487141072750092,0.8394235372543335,5.538636207580566,-12.38298225402832,-6.5453386306762695,-0.622468888759613,-0.8414579033851624,-0.28948551416397095,-0.5734739303588867,1.705208659172058,-2.302234172821045
217,1911705,1911706,-0.4299124777317047,0.012009072117507458,0.9585150480270386,5.3121209144592285,-21.8632755279541,-7.8642578125,-0.6344682574272156,-0.8594570159912109,-0.29848507046699524,-0.23500409722328186,1.8114266395568848,-2.320065975189209
218,1911715,1911716,-0.7247998714447021,0.03889410197734833,0.9332911968231201,8.735715866088867,-41.94788360595703,-8.094536781311035,-0.6299684643745422,-0.8459576964378357,-0.28198590874671936,0.08914625644683838,1.9651139974594116,-2.386875629425049
219,1911725,1911726,-0.5143204927444458,-0.11495980620384216,0.8579618334770203,13.493033409118652,-34.53362274169922,-11.959129333496094,-0.623968780040741,-0.8579570651054382,-0.2939853072166443,0.42753493785858154,2.0815269947052,-2.5043277740478516
220,1911735,1911736,-0.6723635792732239,-0.20006416738033295,0.8647526502609253,12.740251541137695,-27.931903839111328,-8.714468955993652,-0.6149692535400391,-0.8699564933776855,-0.29098543524742126,0.7835609316825867,2.204418182373047,-2.6238596439361572
221,1911745,1911746,-0.46433088183403015,-0.0328720398247242,0.9835485816001892,3.028531789779663,-13.52226448059082,-8.091622352600098,-0.6059696674346924,-0.851957380771637,-0.27898603677749634,0.8993510007858276,2.339134454727173,-2.772291898727417
222,1911755,1911756,-0.5721856355667114,0.0029067015275359154,1.119201421737671,1.7021747827529907,-13.239652633666992,-7.3502960205078125,-0.6089695692062378,-0.8699564933776855,-0.3029848337173462,1.124884009361267,2.2659900188446045,-2.82133412361145
223,1911765,1911766,-0.5867239832878113,-0.6204820871353149,1.1026548147201538,-2.239532470703125,2.728140354156494,-7.28282356262207,-0.5984700918197632,-0.8714563846588135,-0.3044847846031189,1.1912394762039185,2.2745940685272217,-2.8941335678100586
224,1911775,1911776,-0.4801211655139923,-0.7389985918998718,0.9657641649246216,-8.592164039611816,17.16345977783203,-10.030891418457031,-0.6074696183204651,-0.8714563846588135,-0.30748462677001953,1.058994174003601,2.1737685203552246,-2.9867758750915527
225,1911785,1911786,-0.7407076358795166,-0.8575432896614075,1.0556166172027588,-22.527828216552734,13.823108673095703,-9.940855026245117,-0.6089695692062378,-0.8669566512107849,-0.3059847056865692,0.9277135729789734,1.9261804819107056,-3.0584018230438232
226,1911795,1911796,-0.42663678526878357,-0.23017363250255585,1.0546844005584717,-22.014551162719727,10.828290939331055,-13.151410102844238,-0.6074696183204651,-0.8654567003250122,-0.29848507046699524,0.7431475520133972,1.9351619482040405,-3.2089474201202393
227,1911805,1911806,-0.5056256651878357,-0.00794741790741682,0.9767851233482361,-17.186077117919922,7.110220909118652,-13.72431468963623,-0.6119694113731384,-0.8669566512107849,-0.2939853072166443,0.5999773144721985,1.6106483936309814,-3.33447527885437
228,1911815,1911816,-0.23426607251167297,-0.1762744039297104,0.9878867864608765,-10.64054012298584,3.9645135402679443,-10.882179260253906,-0.6119694113731384,-0.8639568090438843,-0.2969851493835449,0.5237545967102051,1.517894983291626,-3.4704604148864746
229,1911825,1911826,-0.12376654148101807,-0.4088208079338074,1.1091938018798828,-7.4192280769348145,5.890552997589111,-8.452469825744629,-0.6104694604873657,-0.8624568581581116,-0.31948402523994446,0.5024609565734863,1.4932684898376465,-3.582301378250122
230,1911835,1911836,0.024321680888533592,-0.0859747901558876,1.238383412361145,-7.44049596786499,-10.580480575561523,-4.509316444396973,-0.6044697761535645,-0.8684565424919128,-0.3014849126338959,0.5824159383773804,1.5039035081863403,-3.6438002586364746
231,1911845,1911846,-0.3164161145687103,-0.20434829592704773,1.2245744466781616,-9.136412620544434,-17.698902130126953,-3.6318576335906982,-0.6044697761535645,-0.8714563846588135,-0.2924853563308716,0.7264394164085388,1.4341496229171753,-3.6744089126586914
232,1911855,1911856,-0.43681156635284424,-0.3204655647277832,1.0925557613372803,-8.465035438537598,-11.744668960571289,-2.0419692993164062,-0.616469144821167,-0.8654567003250122,-0.2954852283000946,0.9648492336273193,1.2710150480270386,-3.67004656791687
233,1911865,1911866,-0.47494372725486755,-0.2893544137477875,1.022109866142273,-12.949915885925293,3.937910556793213,-4.421812057495117,-0.6209689378738403,-0.8579570651054382,-0.29998499155044556,0.9254998564720154,1.2676160335540771,-3.7474570274353027
234,1911875,1911876,-1.2683351039886475,-0.03293972834944725,1.1542621850967407,-27.532001495361328,7.011380195617676,-0.5658556222915649,-0.6104694604873657,-0.8594570159912109,-0.2864856719970703,0.8922492265701294,0.9733150005340576,-3.758944034576416
235,1911885,1911886,-0.8612626791000366,0.1296427994966507,1.1183570623397827,-28.80352783203125,9.770788192749023,-0.9290556311607361,-0.6254687309265137,-0.8684565424919128,-0.2924853563308716,0.7789179086685181,0.6524286270141602,-3.770756483078003
236,1911895,1911896,-0.2096155285835266,-0.32980504631996155,1.0673878192901611,-26.07229232788086,9.960701942443848,-0.8930162191390991,-0.6179690957069397,-0.8609569072723389,-0.29998499155044556,0.6886596083641052,0.40629830956459045,-3.7827908992767334
237,1911905,1911906,-0.27291378378868103,-0.49606379866600037,1.0216518640518188,-20.076950073242188,-1.469538688659668,1.3958306312561035,-0.6194689869880676,-0.8384580612182617,-0.3014849126338959,0.5237988829612732,0.21083110570907593,-3.812391519546509
238,1911915,1911916,-0.739233672618866,-0.4056846797466278,0.8604729771614075,-12.033716201782227,5.9846038818359375,-3.366816282272339,-0.6119694113731384,-0.8429578542709351,-0.2969851493835449,0.5592667460441589,0.3023033142089844,-3.856558084487915
239,1911925,1911926,-0.9673103094100952,-0.6714176535606384,0.9534480571746826,-8.722177505493164,1.2472681999206543,-1.7215490341186523,-0.6374680995941162,-0.8564571738243103,-0.3014849126338959,0.5570366382598877,0.05684443935751915,-3.8529837131500244
240,1911935,1911936,-0.6354081630706787,-0.40190520882606506,1.1246875524520874,-0.9559137225151062,-6.0880937576293945,-1.6397396326065063,-0.6194689869880676,-0.850457489490509,-0.2924853563308716,0.6466525793075562,-0.06369027495384216,-3.8485941886901855
241,1911945,1911946,-0.4288983643054962,-0.4606740176677704,1.0342297554016113,1.1834617853164673,-6.179707050323486,-2.0391149520874023,-0.6134693026542664,-0.850457489490509,-0.3014849126338959,0.7632858753204346,-0.022749191150069237,-3.8701694011688232
242,1911955,1911956,-0.4633645713329315,-0.2961012125015259,1.151442289352417,0.07266934961080551,-11.101479530334473,0.7998003959655762,-0.6269686222076416,-0.836958110332489,-0.28798559308052063,0.8863627314567566,0.04069521278142929,-3.8910117149353027
243,1911965,1911966,-0.918595016002655,-0.22983330488204956,1.0694923400878906,8.105584144592285,-1.2737780809402466,-0.1295858919620514,-0.6089695692062378,-0.8429578542709351,-0.28798559308052063,0.9278197884559631,0.06217552348971367,-3.888272762298584
244,1911975,1911976,-0.6765928268432617,-0.25846487283706665,0.9100521206855774,2.5867390632629395,12.64890193939209,0.7205619812011719,-0.6209689378738403,-0.836958110332489,-0.28798559308052063,0.8199760913848877,0.08671434968709946,-3.881265878677368
245,1911985,1911986,-0.18056699633598328,-0.3893296420574188,0.9192042350769043,1.8743276596069336,12.130758285522461,0.5112864375114441,-0.6179690957069397,-0.8399580121040344,-0.27898603677749634,0.6346124410629272,0.06267446279525757,-3.866945505142212
246,1911995,1911996,-0.42852500081062317,-0.03320189565420151,0.9626112580299377,-3.2497711181640625,12.808367729187012,-1.3351587057113647,-0.6179690957069397,-0.8549572229385376,-0.28798559308052063,0.4726286232471466,0.011627898551523685,-3.854529619216919
247,1912005,1912006,-0.20159874856472015,-0.4962620437145233,1.0720338821411133,-6.44408655166626,-7.324223518371582,-1.38751220703125,-0.616469144821167,-0.8684565424919128,-0.2954852283000946,0.44009149074554443,-0.07571820914745331,-3.8558759689331055
248,1912015,1912016,-0.32379668951034546,-0.691397488117218,1.0166985988616943,-2.174710273742676,-2.171389579772949,-4.940280914306641,-0.622468888759613,-0.8564571738243103,-0.29848507046699524,0.48188135027885437,-0.027623455971479416,-3.901825189590454
249,1912025,1912026,-0.3984867036342621,-0.20655407011508942,1.0283757448196411,0.45369431376457214,-5.018533229827881,-4.279160976409912,-0.6089695692062378,-0.851957380771637,-0.2969851493835449,0.62229323387146,-0.08597376197576523,-3.9417805671691895
250,1912035,1912036,-0.6608207821846008,-0.01605948805809021,0.9241178035736084,1.6071196794509888,-0.8508222103118896,-4.905938148498535,-0.6074696183204651,-0.8684565424919128,-0.2924853563308716,0.7048619389533997,-0.11107958853244781,-3.9806618690490723
251,1912045,1912046,-0.5074647068977356,-0.6110982894897461,0.9706076979637146,-7.810172080993652,-3.54276442527771,-1.5480735301971436,-0.6119694113731384,-0.8639568090438843,-0.29098543524742126,0.7727458477020264,-0.16958953440189362,-4.0098090171813965
252,1912055,1912056,-0.4617064595222473,-0.6848612427711487,1.0402060747146606,-8.020855903625488,-9.047514915466309,0.5881772041320801,-0.5999699831008911,-0.8639568090438843,-0.2969851493835449,0.8368431925773621,-0.2892047166824341,-4.01451301574707
253,1912065,1912066,-0.8254625201225281,-0.47369927167892456,0.9913721680641174,-16.291576385498047,4.51940393447876,0.47496089339256287,-0.5999699831008911,-0.8669566512107849,-0.31798410415649414,0.8939440250396729,-0.36203014850616455,-4.017683029174805
254,1912075,1912076,-0.5547048449516296,-0.4441973567008972,1.0123071670532227,-21.894275665283203,11.969538688659668,2.011733293533325,-0.5924703478813171,-0.8714563846588135,-0.2954852283000946,0.8671250939369202,-0.5572784543037415,-4.006619453430176
255,1912085,1912086,-0.24620555341243744,-0.3526330292224884,0.931084930896759,-20.919095993041992,23.60457420349121,0.6090689897537231,-0.6104694604873657,-0.8684565424919128,-0.3044847846031189,0.6287087798118591,-0.6677368879318237,-4.003391742706299
256,1912095,1912096,-0.32185259461402893,-0.11748085170984268,0.9761819243431091,-21.11622428894043,23.258657455444336,2.5731568336486816,-0.5954701900482178,-0.8654567003250122,-0.3044847846031189,0.33188965916633606,-0.9196333885192871,-3.977440118789673
257,1912105,1912106,-0.275005966424942,-0.1284182220697403,1.0167189836502075,-13.629178047180176,29.283445358276367,2.579244613647461,-0.6014699339866638,-0.8744562864303589,-0.29848507046699524,0.0635390654206276,-1.0921741724014282,-3.951807975769043
258,1912115,1912116,-0.8546907901763916,-0.32294318079948425,1.1280940771102905,-1.8875858783721924,22.20302963256836,1.7162913084030151,-0.5984700918197632,-0.8744562864303589,-0.3014849126338959,-0.0599217414855957,-1.1737523078918457,-3.9568188190460205
259,1912125,1912126,-0.37105831503868103,-0.40463632345199585,1.1190823316574097,12.343825340270996,14.600275039672852,0.06122337281703949,-0.622468888759613,-0.8744562864303589,-0.3044847846031189,-0.08991800248622894,-1.1138044595718384,-3.9822373390197754
260,1912135,1912136,-0.12780562043190002,-0.10676600784063339,1.1481833457946777,22.769498825073242,0.8707046508789062,1.0078235864639282,-0.622468888759613,-0.8744562864303589,-0.3044847846031189,-0.17477907240390778,-0.8516281843185425,-4.005661964416504
261,1912145,1912146,-0.10302256047725677,0.16079701483249664,1.151279330253601,29.800382614135742,-13.722199440002441,0.05198132246732712,-0.622468888759613,-0.8744562864303589,-0.3044847846031189,-0.1329958289861679,-0.5777292847633362,-4.011486530303955
262,1912155,1912156,-0.605652391910553,-0.04651624709367752,1.1225214004516602,27.57343101501465,-14.046314239501953,-0.2454638034105301,-0.6149692535400391,-0.8789560198783875,-0.3029848337173462,-0.05975533276796341,-0.4157913327217102,-3.9875926971435547
263,1912165,1912166,-0.5350004434585571,-0.42544251680374146,1.124542474746704,18.415023803710938,-9.750190734863281,1.2257341146469116,-0.6119694113731384,-0.8819558620452881,-0.2939853072166443,0.06698967516422272,-0.20818088948726654,-3.985088586807251
264,1912175,1912176,-0.2434655874967575,-0.552711546421051,0.9009138345718384,8.053648948669434,6.310413837432861,-1.2197716236114502,-0.6209689378738403,-0.8669566512107849,-0.3029848337173462,0.050101716071367264,-0.046359654515981674,-3.968522787094116
265,1912185,1912186,-0.47974616289138794,-0.24215617775917053,0.9133489727973938,-12.711365699768066,19.268234252929688,-1.1197011470794678,-0.6074696183204651,-0.8624568581581116,-0.3044847846031189,-0.13955503702163696,-0.12110711634159088,-3.944032669067383
266,1912195,1912196,-0.7218036651611328,-0.19944816827774048,1.0262950658798218,-24.7144718170166,15.115452766418457,0.8809669017791748,-0.6254687309265137,-0.8654567003250122,-0.30748462677001953,-0.38778868317604065,-0.3630658686161041,-3.9199917316436768
267,1912205,1912206,-0.4982381761074066,-0.017660120502114296,1.0363428592681885,-28.496932983398438,19.916717529296875,1.1065738201141357,-0.6269686222076416,-0.8609569072723389,-0.28798559308052063,-0.4610029458999634,-0.5147792100906372,-3.9312000274658203
268,1912215,1912216,-0.37851887941360474,0.07192835211753845,1.219268798828125,-26.81049346923828,12.854859352111816,2.9561269283294678,-0.6119694113731384,-0.8549572229385376,-0.3059847056865692,-0.5344743132591248,-0.823511004447937,-3.9363934993743896
269,1912225,1912226,-1.057088851928711,-0.05003811791539192,1.1897225379943848,-10.209940910339355,4.471895217895508,4.839841842651367,-0.6179690957069397,-0.8489575386047363,-0.28498575091362,-0.642900824546814,-0.9826225638389587,-3.907421588897705
270,1912235,1912236,-0.6593618988990784,-0.024310046806931496,0.9463225603103638,8.081476211547852,-8.070786476135254,7.048539161682129,-0.6149692535400391,-0.8579570651054382,-0.2939853072166443,-0.5912380814552307,-0.9604435563087463,-3.879699945449829
271,1912245,1912246,-0.23299193382263184,0.00880743470042944,0.9936696290969849,22.396747589111328,-14.825926780700684,5.6315999031066895,-0.6284685730934143,-0.8834558129310608,-0.2954852283000946,-0.47211411595344543,-0.7346686124801636,-3.8242850303649902
272,1912255,1912256,-0.40373754501342773,-0.24246549606323242,1.2012348175048828,31.62159538269043,-20.450183868408203,8.144566535949707,-0.6299684643745422,-0.8669566512107849,-0.3119843900203705,-0.2549801170825958,-0.5280765295028687,-3.774705648422241
273,1912265,1912266,-0.3538597822189331,-0.3774067461490631,1.1253961324691772,37.53818130493164,-19.271133422851562,8.226913452148438,-0.6194689869880676,-0.8534573316574097,-0.30748462677001953,-0.08783306926488876,-0.21756261587142944,-3.6931090354919434
274,1912275,1912276,-0.6491401195526123,-0.6818922162055969,0.9462745189666748,29.487363815307617,-4.851346969604492,4.10971212387085,-0.622468888759613,-0.8684565424919128,-0.2954852283000946,0.05131106451153755,0.14191077649593353,-3.6189374923706055
275,1912285,1912286,-1.2547945976257324,-0.5754620432853699,0.8988960385322571,16.610074996948242,-1.1999726295471191,6.302093982696533,-0.616469144821167,-0.8804559707641602,-0.3044847846031189,0.07321593165397644,0.3464711308479309,-3.56467342376709
276,1912295,1912296,-1.2075891494750977,-0.3990572690963745,0.8374658823013306,5.987268924713135,7.038895606994629,5.985122203826904,-0.6209689378738403,-0.8669566512107849,-0.3029848337173462,0.00787289347499609,0.4407418966293335,-3.4857089519500732
277,1912305,1912306,-0.9053885340690613,-0.15092086791992188,1.0015833377838135,-12.532964706420898,10.338265419006348,9.749847412109375,-0.6194689869880676,-0.8804559707641602,-0.31048446893692017,-0.06043344363570213,0.35329103469848633,-3.410280227661133
278,1912315,1912316,-0.7397761940956116,-0.23913484811782837,1.0162310600280762,-21.268720626831055,21.447168350219727,10.410871505737305,-0.6104694604873657,-0.8684565424919128,-0.31048446893692017,-0.2615935504436493,0.2171643078327179,-3.2945268154144287
279,1912325,1912326,-0.40735647082328796,-0.06121871992945671,1.0931706428527832,-30.78712272644043,36.405391693115234,8.439257621765137,-0.6074696183204651,-0.8804559707641602,-0.3134843111038208,-0.6634767651557922,-0.06840069591999054,-3.164104700088501
280,1912335,1912336,-0.37590911984443665,-0.11022526025772095,1.0937755107879639,-31.943294525146484,38.10818099975586,9.569193840026855,-0.6014699339866638,-0.8624568581581116,-0.3164841830730438,-0.8396745920181274,-0.4335751235485077,-3.0983011722564697
281,1912345,1912346,-0.2491757720708847,-0.04122338071465492,0.9975875616073608,-27.032541275024414,34.443031311035156,5.384841442108154,-0.622468888759613,-0.8654567003250122,-0.3044847846031189,-1.2851170301437378,-0.7765000462532043,-3.0079193115234375
282,1912355,1912356,-0.6047919988632202,-0.1708933711051941,1.0391501188278198,-16.007509231567383,14.216678619384766,2.4648730754852295,-0.616469144821167,-0.8594570159912109,-0.29848507046699524,-1.5812832117080688,-0.7058396935462952,-2.9408397674560547
283,1912365,1912366,-0.4944453537464142,-0.34513410925865173,1.1808149814605713,-0.36514437198638916,7.724730491638184,1.5656311511993408,-0.6044697761535645,-0.8654567003250122,-0.3044847846031189,-1.5974136590957642,-0.7910202741622925,-2.928129196166992
284,1912375,1912376,-0.03970520198345184,-0.32065919041633606,1.2050484418869019,17.418601989746094,-3.960353374481201,-0.40144258737564087,-0.6299684643745422,-0.8639568090438843,-0.30898454785346985,-1.610010027885437,-0.7212361097335815,-2.915135145187378
285,1912385,1912386,-0.33851900696754456,-0.22630734741687775,1.1231224536895752,29.83387565612793,-10.673578262329102,-3.381660223007202,-0.623968780040741,-0.8759561777114868,-0.3119843900203705,-1.4854813814163208,-0.36080846190452576,-2.91353440284729
286,1912395,1912396,-0.2787095606327057,-0.11692197620868683,1.1512471437454224,28.179258346557617,-13.24716567993164,-3.994753122329712,-0.6194689869880676,-0.8714563846588135,-0.3134843111038208,-1.2837953567504883,-0.19614410400390625,-2.9807615280151367
287,1912405,1912406,-0.14914967119693756,0.11324217170476913,1.272839903831482,26.428298950195312,-23.73792839050293,-0.22405816614627838,-0.6404679417610168,-0.8774561285972595,-0.3044847846031189,-1.0659630298614502,-0.09096413105726242,-3.0568649768829346
288,1912415,1912416,-0.16727431118488312,0.11144251376390457,1.2776298522949219,17.258689880371094,-20.81648063659668,1.034275770187378,-0.6194689869880676,-0.8624568581581116,-0.3164841830730438,-0.8345160484313965,0.20552921295166016,-3.057537317276001
289,1912425,1912426,-0.5839221477508545,-0.2508440911769867,1.1983944177627563,6.049468040466309,-17.444595336914062,4.5046868324279785,-0.6089695692062378,-0.8459576964378357,-0.2939853072166443,-0.7274393439292908,0.25256872177124023,-3.051252841949463
290,1912435,1912436,-0.537429690361023,-0.32288670539855957,1.0427289009094238,-1.2818262577056885,-5.680750370025635,6.783603191375732,-0.6269686222076416,-0.8459576964378357,-0.29998499155044556,-0.5915655493736267,0.28504228591918945,-3.0060696601867676
291,1912445,1912446,-0.4404148757457733,-0.4459206759929657,0.9297661185264587,-9.593156814575195,6.472243309020996,8.226667404174805,-0.6359682083129883,-0.8459576964378357,-0.27898603677749634,-0.6014318466186523,0.18764886260032654,-2.9360601902008057
292,1912455,1912456,-0.5791663527488708,-0.27815768122673035,1.021079659461975,-18.711978912353516,10.919143676757812,9.996705055236816,-0.622468888759613,-0.8324583768844604,-0.28948551416397095,-0.7247366309165955,0.09084461629390717,-2.8328921794891357
293,1912465,1912466,-0.49774599075317383,-0.10976100713014603,1.0792770385742188,-22.461973190307617,23.305156707763672,9.084296226501465,-0.623968780040741,-0.8489575386047363,-0.29098543524742126,-0.9039431214332581,-0.2425234615802765,-2.743154764175415
294,1912475,1912476,-0.25215813517570496,-0.6560520529747009,1.161020278930664,-29.08448028564453,15.292214393615723,13.90027141571045,-0.6254687309265137,-0.8474575877189636,-0.3014849126338959,-1.1139206886291504,-0.4311615228652954,-2.627317190170288
295,1912485,1912486,-0.2148415446281433,-0.582831859588623,1.167694330215454,-20.510435104370117,8.506295204162598,14.017019271850586,-0.616469144821167,-0.8294585347175598,-0.2834858298301697,-1.2202070951461792,-0.6088008880615234,-2.480146646499634
296,1912495,1912496,-1.3747668266296387,0.007560370024293661,1.111826777458191,-14.182294845581055,4.902191638946533,13.93188762664795,-0.6314684152603149,-0.8354582190513611,-0.2954852283000946,-1.2354443073272705,-0.7455134391784668,-2.337852716445923
297,1912505,1912506,-1.0558323860168457,0.1994083672761917,1.0994988679885864,-3.90030837059021,-11.387755393981934,14.76585578918457,-0.6344682574272156,-0.8354582190513611,-0.2864856719970703,-1.2559783458709717,-0.8726407885551453,-2.2044217586517334
298,1912515,1912516,-0.4674377739429474,0.12822020053863525,1.0809518098831177,6.765556335449219,-20.134538650512695,11.614977836608887,-0.6464676856994629,-0.8294585347175598,-0.2744862735271454,-1.0377087593078613,-0.8360926508903503,-2.069572925567627
299,1912525,1912526,-0.42365241050720215,-0.47517871856689453,1.0886731147766113,14.124109268188477,-20.823345184326172,11.247957229614258,-0.6194689869880676,-0.8234587907791138,-0.27148643136024475,-0.9591066241264343,-0.5983555912971497,-1.9134185314178467
300,1912535,1912536,-0.38156744837760925,-0.5552784204483032,0.9693754315376282,27.3747501373291,-22.636323928833008,9.685601234436035,-0.6389680504798889,-0.8249587416648865,-0.26098695397377014,-0.6544626355171204,-0.3593658208847046,-1.8087823390960693
301,1912545,1912546,-0.7108743190765381,-0.8482806086540222,0.9612540006637573,29.792009353637695,-13.827300071716309,9.79470157623291,-0.6209689378738403,-0.8279585838317871,-0.27898603677749634,-0.5950583815574646,-0.20153793692588806,-1.7158784866333008
302,1912555,1912556,-0.7358500361442566,-0.9078987836837769,0.8563175797462463,30.116697311401367,-15.093789100646973,9.232583999633789,-0.6314684152603149,-0.8384580612182617,-0.28048595786094666,-0.3590705692768097,-0.004594327416270971,-1.642500400543213
303,1912565,1912566,-0.6763861775398254,-1.2394773960113525,0.8733051419258118,20.701547622680664,-9.95536994934082,7.376083850860596,-0.6194689869880676,-0.8414579033851624,-0.2834858298301697,-0.2105858027935028,0.4022862911224365,-1.5302627086639404
304,1912575,1912576,-0.19251400232315063,-0.371701180934906,1.0042154788970947,12.290580749511719,-3.266279458999634,5.5839643478393555,-0.6374680995941162,-0.8324583768844604,-0.2864856719970703,-0.13546286523342133,0.5913460850715637,-1.4523015022277832
305,1912585,1912586,-0.36119315028190613,-0.04644337296485901,0.9973058104515076,1.3248823881149292,-3.2372210025787354,4.026610374450684,-0.6254687309265137,-0.8324583768844604,-0.2834858298301697,-0.04554322734475136,0.5540425181388855,-1.4190001487731934
306,1912595,1912596,-0.4631824791431427,-0.10666068643331528,1.0570932626724243,-9.552563667297363,4.398532867431641,2.9409189224243164,-0.6209689378738403,-0.8489575386047363,-0.28498575091362,-0.041472990065813065,0.5167595148086548,-1.388007640838623
307,1912605,1912606,-0.8811052441596985,-0.48527365922927856,0.9640657901763916,-8.882824897766113,2.8419532775878906,1.8381654024124146,-0.623968780040741,-0.8399580121040344,-0.28198590874671936,-0.209137961268425,0.3903018832206726,-1.3601447343826294
308,1912615,1912616,-1.5477796792984009,-0.3381216824054718,1.0177805423736572,-11.080671310424805,17.81810188293457,2.911818742752075,-0.622468888759613,-0.844457745552063,-0.28048595786094666,-0.3364298939704895,0.298928827047348,-1.3339381217956543
309,1912625,1912626,-1.9104039669036865,-0.7934244871139526,0.9340608716011047,-12.322640419006348,28.69671058654785,2.9346561431884766,-0.622468888759613,-0.8384580612182617,-0.2924853563308716,-0.6772580146789551,0.2330925464630127,-1.2881842851638794
310,1912635,1912636,-1.8781836032867432,-1.0578027963638306,1.0327339172363281,-17.37135887145996,18.603961944580078,6.028214931488037,-0.6119694113731384,-0.8429578542709351,-0.27898603677749634,-0.9154444336891174,0.12058929353952408,-1.24528968334198
311,1912645,1912646,-1.1431442499160767,-0.46149390935897827,1.1033731698989868,-16.314159393310547,7.537853240966797,6.976499080657959,-0.6209689378738403,-0.8459576964378357,-0.2939853072166443,-1.085121750831604,-0.14416834712028503,-1.19242262840271
312,1912655,1912656,-0.7221496105194092,-0.7526195049285889,1.0596210956573486,-4.891016006469727,-13.90320873260498,10.465201377868652,-0.6134693026542664,-0.8564571738243103,-0.2924853563308716,-0.974892795085907,-0.2188899964094162,-1.1175024509429932
313,1912665,1912666,-0.6145555377006531,-1.0491241216659546,1.0041546821594238,6.499893665313721,-10.348703384399414,7.56129264831543,-0.6149692535400391,-0.8489575386047363,-0.28498575091362,-0.8081532120704651,-0.146461620926857,-1.0130075216293335
314,1912675,1912676,-0.5874459743499756,-0.9282873272895813,0.8361775279045105,8.903585433959961,-14.37446403503418,11.264240264892578,-0.6059696674346924,-0.8579570651054382,-0.28798559308052063,-0.6436882615089417,-0.04883313179016113,-0.9204189777374268
315,1912685,1912686,-1.6880170106887817,-0.2522277534008026,0.97579026222229,5.95343017578125,-19.899295806884766,11.579253196716309,-0.616469144821167,-0.844457745552063,-0.3044847846031189,-0.40113288164138794,0.05302705243229866,-0.8066500425338745
316,1912695,1912696,-0.6977853178977966,-0.6923206448554993,1.0515576601028442,4.98043966293335,-21.76304817199707,12.38203239440918,-0.6044697761535645,-0.8564571738243103,-0.2954852283000946,-0.3188212513923645,0.13813850283622742,-0.6830970644950867
317,1912705,1912706,-0.8801096081733704,-0.6089118123054504,1.1155736446380615,-0.0638284906744957,-23.004573822021484,12.474382400512695,-0.6119694113731384,-0.8579570651054382,-0.3029848337173462,-0.0055967457592487335,0.12404070794582367,-0.5681561231613159
318,1912715,1912716,-0.3590717613697052,-0.44620373845100403,1.064922571182251,2.0246520042419434,-24.764158248901367,13.472456932067871,-0.6119694113731384,-0.8579570651054382,-0.3119843900203705,0.09717212617397308,0.15176907181739807,-0.4366759955883026
319,1912725,1912726,-0.24062807857990265,-0.41687607765197754,0.9869064092636108,-3.152445077896118,-20.10272216796875,14.4312744140625,-0.6059696674346924,-0.8669566512107849,-0.2969851493835449,0.33898061513900757,0.2008005827665329,-0.3010805547237396
320,1912735,1912736,-0.29836899042129517,-0.6245618462562561,0.9494199156761169,-7.865372180938721,-20.61583709716797,12.302451133728027,-0.5984700918197632,-0.850457489490509,-0.2924853563308716,0.6025371551513672,0.09057502448558807,-0.16668543219566345
321,1912745,1912746,-0.5694321393966675,-0.7217390537261963,0.9530811309814453,-13.650107383728027,-11.780623435974121,11.737768173217773,-0.6014699339866638,-0.8534573316574097,-0.2924853563308716,0.6421060562133789,-0.034284163266420364,-0.04288191720843315
322,1912755,1912756,-0.7014011144638062,-0.1516900360584259,0.9715019464492798,-15.484394073486328,-1.9433413743972778,9.711747169494629,-0.6059696674346924,-0.836958110332489,-0.29998499155044556,0.7656318545341492,-0.21394814550876617,0.0715026929974556
323,1912765,1912766,-0.6598540544509888,-0.5039932131767273,0.9952750205993652,-10.170722961425781,0.5737258195877075,6.9560370445251465,-0.5939702987670898,-0.8609569072723389,-0.28798559308052063,0.7015603184700012,-0.30072590708732605,0.16004441678524017
324,1912775,1912776,-0.5015943050384521,-0.49373888969421387,1.0187780857086182,-4.278881549835205,14.039397239685059,0.8627278804779053,-0.6029698252677917,-0.8609569072723389,-0.29998499155044556,0.5894444584846497,-0.4439699947834015,0.2131536900997162
325,1912785,1912786,-0.1489672213792801,-0.09471383690834045,0.9991926550865173,6.671076774597168,15.528098106384277,-4.851794719696045,-0.5999699831008911,-0.8489575386047363,-0.2939853072166443,0.49951401352882385,-0.42735931277275085,0.19956043362617493
326,1912795,1912796,-0.07469049096107483,-0.04959262162446976,1.0511387586593628,18.919876098632812,9.961978912353516,-7.8544111251831055,-0.6029698252677917,-0.8729563355445862,-0.3059847056865692,0.2908787131309509,-0.22896145284175873,0.13613930344581604
327,1912805,1912806,-0.22197434306144714,-0.18433913588523865,1.0885789394378662,26.74201202392578,-1.8785171508789062,-9.52409839630127,-0.6059696674346924,-0.8609569072723389,-0.29998499155044556,0.22666040062904358,0.057915885001420975,0.04854132607579231
328,1912815,1912816,-0.20005391538143158,-0.8284182548522949,1.0420825481414795,26.162784576416016,-20.218589782714844,-10.055710792541504,-0.616469144821167,-0.8654567003250122,-0.3014849126338959,0.39955204725265503,0.1965882033109665,-0.04579003527760506
329,1912825,1912826,-0.8516537547111511,-0.43441715836524963,0.9650757908821106,21.539583206176758,-29.145599365234375,-12.984209060668945,-0.6119694113731384,-0.8639568090438843,-0.30898454785346985,0.706362247467041,0.5797156691551208,-0.17052841186523438
330,1912835,1912836,-0.7512161135673523,-0.3492882549762726,0.9624807238578796,3.5231170654296875,-33.229007720947266,-12.495705604553223,-0.5894705057144165,-0.8654567003250122,-0.30748462677001953,0.8472506403923035,0.6101545691490173,-0.2858877182006836
331,1912845,1912846,-0.33014345169067383,-0.3995833396911621,1.0236825942993164,-12.628069877624512,-23.713891983032227,-14.729339599609375,-0.5924703478813171,-0.8714563846588135,-0.3014849126338959,1.2435330152511597,0.5101015567779541,-0.4141894578933716
332,1912855,1912856,-0.9712527394294739,-0.2838777005672455,1.0665732622146606,-20.498558044433594,-13.950429916381836,-14.902259826660156,-0.6014699339866638,-0.8744562864303589,-0.30748462677001953,1.4168187379837036,0.30262550711631775,-0.5542637705802917
333,1912865,1912866,-0.47749122977256775,-0.3542950749397278,1.037553071975708,-23.970216751098633,4.067578315734863,-15.557245254516602,-0.5924703478813171,-0.8654567003250122,-0.31048446893692017,1.515291452407837,0.22401349246501923,-0.7234835624694824
334,1912875,1912876,-0.3865925073623657,-0.618373692035675,1.0175777673721313,-25.4993896484375,23.425119400024414,-14.030997276306152,-0.5969701409339905,-0.8699564933776855,-0.2939853072166443,1.3011407852172852,-0.19239382445812225,-0.844519853591919
335,1912885,1912886,-0.2541481852531433,-0.4566837251186371,0.9778277277946472,-20.41603660583496,44.04218292236328,-12.500137329101562,-0.5969701409339905,-0.8699564933776855,-0.29998499155044556,0.8411471247673035,-0.2886858582496643,-1.0131497383117676
336,1912895,1912896,-0.6159539818763733,-0.4554196000099182,1.0090527534484863,-12.668676376342773,52.45991134643555,-9.181004524230957,-0.5984700918197632,-0.8594570159912109,-0.29848507046699524,0.3695297837257385,-0.4984729290008545,-1.1296703815460205
337,1912905,1912906,-0.450412780046463,-0.35430771112442017,1.0609756708145142,1.5864328145980835,61.301902770996094,-7.773637294769287,-0.6104694604873657,-0.8744562864303589,-0.2864856719970703,-0.3147876262664795,-0.5312806963920593,-1.2298625707626343
338,1912915,1912916,-0.5123500823974609,-0.16487658023834229,1.2143688201904297,5.628772735595703,52.46298599243164,-3.4526658058166504,-0.6104694604873657,-0.8744562864303589,-0.2864856719970703,-0.6766499280929565,-0.4862724244594574,-1.3041062355041504
339,1912925,1912926,-0.28994104266166687,-0.3436873257160187,1.1047385931015015,11.624068260192871,19.62664031982422,-2.5019822120666504,-0.6104694604873657,-0.8744562864303589,-0.2864856719970703,-1.1364363431930542,-0.3346191942691803,-1.3494932651519775
340,1912935,1912936,-0.2883317768573761,-0.285302072763443,1.0512933731079102,12.969840049743652,-8.672037124633789,-0.6268935203552246,-0.6044697761535645,-0.8714563846588135,-0.30748462677001953,-0.9964550733566284,-0.2141987830400467,-1.378862738609314
341,1912945,1912946,-0.3718094825744629,-0.07403599470853806,1.0239697694778442,9.110963821411133,-31.320350646972656,0.3543356657028198,-0.6149692535400391,-0.8639568090438843,-0.29098543524742126,-0.7336603403091431,-0.04567870870232582,-1.3892288208007812
342,1912955,1912956,-0.37939217686653137,-0.16912135481834412,1.0444293022155762,1.2620972394943237,-43.52438735961914,0.5937986373901367,-0.5969701409339905,-0.8699564933776855,-0.3119843900203705,-0.45448631048202515,-0.12925031781196594,-1.3723969459533691
343,1912965,1912966,-0.25807633996009827,-0.059620827436447144,0.9579232931137085,-2.7795722484588623,-41.77806091308594,2.5465123653411865,-0.6119694113731384,-0.8729563355445862,-0.3119843900203705,0.14529171586036682,-0.14891493320465088,-1.3651634454727173
344,1912975,1912976,-0.18294520676136017,-0.15212637186050415,1.0729507207870483,-14.704469680786133,-30.61281394958496,2.2723660469055176,-0.5969701409339905,-0.8699564933776855,-0.2969851493835449,0.502608060836792,-0.29786187410354614,-1.3271962404251099
345,1912985,1912986,-0.19770878553390503,-0.3326500654220581,1.1458969116210938,-18.101299285888672,-25.826488494873047,7.093855857849121,-0.6044697761535645,-0.8744562864303589,-0.30748462677001953,0.7914532423019409,-0.46456941962242126,-1.2839257717132568
346,1912995,1912996,-0.624663770198822,-0.2083767056465149,1.1302953958511353,-22.380008697509766,-8.13565731048584,7.9726786613464355,-0.5864706635475159,-0.8684565424919128,-0.30748462677001953,0.865937352180481,-0.7076684236526489,-1.1989376544952393
347,1913005,1913006,-0.18108254671096802,-0.04409994184970856,1.0168553590774536,-22.96510124206543,11.138455390930176,8.013163566589355,-0.5954701900482178,-0.8594570159912109,-0.2954852283000946,0.8012080192565918,-0.9975582361221313,-1.1066874265670776
348,1913015,1913016,-0.2411750704050064,-0.25319355726242065,1.0233138799667358,-15.160223960876465,25.49591827392578,7.505060195922852,-0.6029698252677917,-0.851957380771637,-0.29998499155044556,0.5320999622344971,-1.0820854902267456,-1.0365923643112183
349,1913025,1913026,-0.6412292718887329,-0.15094557404518127,1.0504536628723145,-1.9234397411346436,34.41110610961914,7.6432342529296875,-0.5939702987670898,-0.8549572229385376,-0.2969851493835449,0.27837005257606506,-1.1420704126358032,-0.9740237593650818
350,1913035,1913036,-0.34487125277519226,-0.021779188886284828,1.0301800966262817,11.741913795471191,35.94987869262695,8.09510326385498,-0.6089695692062378,-0.836958110332489,-0.3059847056865692,0.0758826732635498,-1.054466962814331,-0.9227357506752014
351,1913045,1913046,-0.14560696482658386,-0.0813307911157608,0.9868274331092834,20.288061141967773,26.726261138916016,7.440832614898682,-0.6134693026542664,-0.8534573316574097,-0.2834858298301697,-0.19859202206134796,-0.9292157292366028,-0.8517577052116394
352,1913055,1913056,-0.22613771259784698,-0.6404643654823303,1.026761770248413,23.894960403442383,15.163178443908691,6.468810558319092,-0.6179690957069397,-0.8549572229385376,-0.2939853072166443,-0.444789320230484,-0.7670987844467163,-0.7757576107978821
353,1913065,1913066,-0.42159777879714966,-0.6123743057250977,1.021266222000122,22.423938751220703,6.058801174163818,6.289600849151611,-0.622468888759613,-0.8594570159912109,-0.28948551416397095,-0.5237950086593628,-0.5118563175201416,-0.7191921472549438
354,1913075,1913076,-0.49385973811149597,-0.06623516231775284,1.0885467529296875,17.709442138671875,-4.761591911315918,7.725293159484863,-0.6209689378738403,-0.8549572229385376,-0.2939853072166443,-0.37692371010780334,-0.17811784148216248,-0.6788023710250854
355,1913085,1913086,-0.03629986569285393,-0.4694598615169525,1.0467276573181152,9.144658088684082,-13.461243629455566,9.356886863708496,-0.6104694604873657,-0.8534573316574097,-0.28948551416397095,-0.22611834108829498,-0.08217411488294601,-0.6034057140350342
356,1913095,1913096,-0.19888903200626373,-0.5868623852729797,1.0409377813339233,0.2281162440776825,-19.361038208007812,10.15705394744873,-0.6104694604873657,-0.8624568581581116,-0.2954852283000946,-0.04721042886376381,-0.05747881904244423,-0.5085873603820801
357,1913105,1913106,-1.091465711593628,-0.7998158931732178,1.0381749868392944,-4.022459506988525,-18.881885528564453,10.576217651367188,-0.616469144821167,-0.8474575877189636,-0.28048595786094666,0.09847813844680786,-0.07868792861700058,-0.4010838568210602
358,1913115,1913116,-1.2369682788848877,-0.3993900716304779,1.09596848487854,-3.1912193298339844,-15.208488464355469,11.484477996826172,-0.6089695692062378,-0.8429578542709351,-0.29098543524742126,0.2770610451698303,-0.19938933849334717,-0.28967422246932983
359,1913125,1913126,-1.2652860879898071,-0.31755581498146057,1.0660279989242554,3.3177154064178467,-9.052642822265625,11.28519344329834,-0.6119694113731384,-0.836958110332489,-0.29998499155044556,0.37705036997795105,-0.18208281695842743,-0.1749909222126007
360,1913135,1913136,-0.6839417219161987,-0.4122486710548401,1.0368506908416748,4.628444671630859,-0.9056113362312317,12.671147346496582,-0.6149692535400391,-0.8459576964378357,-0.28498575091362,0.4368572533130646,-0.10000844299793243,-0.05991823971271515
361,1913145,1913146,-0.12904298305511475,-0.3274903893470764,0.9961948394775391,2.1084954738616943,6.88788366317749,11.885863304138184,-0.6194689869880676,-0.8324583768844604,-0.28048595786094666,0.3719162344932556,-0.10480507463216782,0.06854183226823807
362,1913155,1913156,-0.681990385055542,-0.3339144289493561,0.997521162033081,1.3721822500228882,12.63415241241455,10.85489273071289,-0.623968780040741,-0.8249587416648865,-0.28198590874671936,0.2702566683292389,-0.13291963934898376,0.1885778307914734
363,1913165,1913166,-0.3792768716812134,-0.08455120772123337,1.0083738565444946,1.954424500465393,12.601837158203125,8.709500312805176,-0.6149692535400391,-0.836958110332489,-0.29098543524742126,0.05176670849323273,-0.08414360880851746,0.29551026225090027
364,1913175,1913176,-0.196176677942276,-0.20571397244930267,1.0076956748962402,0.4275926947593689,11.294791221618652,6.3617048263549805,-0.616469144821167,-0.8264586329460144,-0.2864856719970703,0.045796334743499756,-0.1102176308631897,0.37105414271354675
365,1913185,1913186,-0.5355931520462036,-0.5419934988021851,1.0239595174789429,-0.04012451320886612,8.043508529663086,4.598609924316406,-0.6209689378738403,-0.8309584259986877,-0.2939853072166443,-0.07549242675304413,-0.16525453329086304,0.43218836188316345
366,1913195,1913196,-0.7617624998092651,-0.655925452709198,1.0084075927734375,1.1897413730621338,0.4151086211204529,4.83590841293335,-0.5999699831008911,-0.8249587416648865,-0.28498575091362,-0.16433092951774597,-0.1379929780960083,0.47819972038269043
367,1913205,1913206,-0.28315630555152893,-0.8054056763648987,1.004838228225708,0.7778319120407104,-2.8193724155426025,3.9376866817474365,-0.6119694113731384,-0.8309584259986877,-0.28498575091362,-0.08223364502191544,-0.10542769730091095,0.5189409255981445
368,1913215,1913216,-1.2670207023620605,-0.9643325805664062,1.0706899166107178,4.34666109085083,-6.1800642013549805,6.298986434936523,-0.6179690957069397,-0.8339582681655884,-0.28498575091362,-0.04091738164424896,-0.10737640410661697,0.5602630972862244
369,1913225,1913226,-1.5247461795806885,-1.0379748344421387,0.9238167405128479,6.572958946228027,8.787848472595215,4.242514610290527,-0.6179690957069397,-0.8309584259986877,-0.27898603677749634,-0.08702488988637924,-0.13808099925518036,0.6222783923149109
370,1913235,1913236,-0.44445398449897766,-0.2709898352622986,0.9209941029548645,11.431215286254883,15.417360305786133,4.723515033721924,-0.6254687309265137,-0.844457745552063,-0.2864856719970703,-0.2366720736026764,0.04182598367333412,0.666657030582428
371,1913245,1913246,-0.7687602043151855,-0.5220268964767456,0.8788713812828064,13.358946800231934,19.816282272338867,3.131782293319702,-0.6179690957069397,-0.8309584259986877,-0.27898603677749634,-0.5314851403236389,0.18722763657569885,0.7166984677314758
372,1913255,1913256,-0.8678890466690063,-0.7071587443351746,0.8454881906509399,14.995559692382812,23.48752784729004,-0.12087685614824295,-0.6284685730934143,-0.8534573316574097,-0.2924853563308716,-0.5754483938217163,0.14165377616882324,0.7421379089355469
373,1913265,1913266,-0.4663265645503998,-0.7263501286506653,1.0375032424926758,12.237650871276855,9.71318531036377,1.8787411451339722,-0.623968780040741,-0.836958110332489,-0.29098543524742126,-0.7944921255111694,0.31623169779777527,0.7493881583213806
374,1913275,1913276,-0.46617525815963745,-0.47242164611816406,1.0270048379898071,4.514434814453125,1.283093810081482,-0.8266028761863708,-0.6209689378738403,-0.851957380771637,-0.28798559308052063,-0.8312265872955322,0.36388149857521057,0.7585631012916565
375,1913285,1913286,-1.019243597984314,-0.13996261358261108,1.2010201215744019,-3.9010441303253174,-16.89348030090332,0.9953559637069702,-0.6149692535400391,-0.8609569072723389,-0.2939853072166443,-0.7094718217849731,0.3634510338306427,0.7505005598068237
376,1913295,1913296,-0.9940869808197021,-0.7082062363624573,1.1320174932479858,-4.592892646789551,-18.369461059570312,-2.1369469165802,-0.6254687309265137,-0.8684565424919128,-0.3014849126338959,-0.48600640892982483,0.28921589255332947,0.747913658618927
377,1913305,1913306,-1.0508352518081665,-1.431045413017273,1.055438756942749,-4.309175968170166,-22.88690185546875,-1.4107595682144165,-0.6044697761535645,-0.8594570159912109,-0.2864856719970703,-0.28944891691207886,0.2586938142776489,0.7296434044837952
378,1913315,1913316,-0.6452378034591675,-1.1352622509002686,0.9936091303825378,-4.811166763305664,-9.589159965515137,-5.793912887573242,-0.6119694113731384,-0.8429578542709351,-0.2969851493835449,-0.14184902608394623,0.1976134032011032,0.704456627368927
379,1913325,1913326,-1.1414480209350586,-0.7450491786003113,0.8709695935249329,-5.66519832611084,-9.776934623718262,-4.796247959136963,-0.6194689869880676,-0.8384580612182617,-0.28948551416397095,-0.11883017420768738,0.12846770882606506,0.651228129863739
380,1913335,1913336,-1.292427897453308,-0.9006646871566772,0.8813679218292236,-2.3259265422821045,2.428449869155884,-8.028064727783203,-0.6179690957069397,-0.8339582681655884,-0.28798559308052063,-0.09698542952537537,0.07858693599700928,0.5971835255622864
381,1913345,1913346,-0.913500964641571,-0.6079521775245667,1.0104812383651733,6.341460704803467,-1.7213060855865479,-6.56472110748291,-0.622468888759613,-0.8384580612182617,-0.28948551416397095,-0.13649778068065643,0.14150026440620422,0.5256603956222534
382,1913355,1913356,-0.20382121205329895,-0.26184630393981934,1.0162034034729004,17.857463836669922,3.0146563053131104,-5.816640377044678,-0.6254687309265137,-0.850457489490509,-0.2924853563308716,-0.12907737493515015,0.29865726828575134,0.4640398919582367
383,1913365,1913366,-0.13354095816612244,0.17174620926380157,1.014717936515808,24.79249382019043,3.199514865875244,-3.8308279514312744,-0.6269686222076416,-0.8429578542709351,-0.28198590874671936,-0.16115182638168335,0.6098052263259888,0.4106636345386505
384,1913375,1913376,-1.12776780128479,-0.0896582305431366,1.1497286558151245,23.411479949951172,1.2499271631240845,-4.742537021636963,-0.6089695692062378,-0.8489575386047363,-0.28198590874671936,-0.19814957678318024,0.7034925222396851,0.3608481287956238
385,1913385,1913386,-1.6156864166259766,-1.045656681060791,1.0925068855285645,23.498411178588867,-10.014119148254395,-1.6741279363632202,-0.6254687309265137,-0.8624568581581116,-0.28048595786094666,-0.17063932120800018,0.9950087666511536,0.3211667835712433
386,1913395,1913396,-1.1271153688430786,-1.2693980932235718,0.9678491950035095,11.569607734680176,4.691591262817383,-1.3826361894607544,-0.6119694113731384,-0.8429578542709351,-0.28798559308052063,-0.22472049295902252,1.1461595296859741,0.29657235741615295
387,1913405,1913406,-0.7192967534065247,-0.48276638984680176,0.8602071404457092,2.3840930461883545,6.324287414550781,2.43982195854187,-0.616469144821167,-0.8414579033851624,-0.2954852283000946,-0.2581338584423065,1.2685703039169312,0.29700639843940735
388,1913415,1913416,-0.40797993540763855,-0.2606533169746399,0.9751710891723633,-21.871126174926758,4.716794013977051,2.2689366340637207,-0.6284685730934143,-0.8534573316574097,-0.2924853563308716,-0.28820866346359253,1.1414999961853027,0.31795987486839294
389,1913425,1913426,-0.3474641740322113,-0.06911198049783707,1.0353578329086304,-26.94796371459961,-9.570090293884277,-1.597951054573059,-0.6089695692062378,-0.8399580121040344,-0.29098543524742126,-0.26033326983451843,0.8053730726242065,0.33205151557922363
390,1913435,1913436,-0.8219882249832153,-0.35766905546188354,1.0316758155822754,-27.177871704101562,-1.5239773988723755,-6.088233470916748,-0.6119694113731384,-0.836958110332489,-0.29998499155044556,-0.209107905626297,0.5480475425720215,0.30485132336616516
391,1913445,1913446,-1.5482192039489746,-1.091463565826416,1.0381572246551514,-24.07129669189453,-1.6366002559661865,-8.397181510925293,-0.6254687309265137,-0.850457489490509,-0.2954852283000946,-0.1704719513654709,0.28600186109542847,0.2428332418203354
392,1913455,1913456,-1.668333888053894,-1.1009896993637085,1.1750376224517822,-14.49928092956543,2.796797752380371,-11.12363338470459,-0.6089695692062378,-0.836958110332489,-0.28798559308052063,-0.20349594950675964,0.0645102933049202,0.1460689902305603
393,1913465,1913466,-1.486456274986267,-0.3190426528453827,1.1615864038467407,2.1894381046295166,-5.451289176940918,-9.602706909179688,-0.6179690957069397,-0.8459576964378357,-0.2969851493835449,-0.27642205357551575,0.06709566712379456,0.03298823535442352
394,1913475,1913476,-0.7613648176193237,-0.23368069529533386,1.0991759300231934,7.960724830627441,-7.5592145919799805,-11.261555671691895,-0.623968780040741,-0.8429578542709351,-0.2939853072166443,-0.12682825326919556,0.1145806610584259,-0.06212771683931351
395,1913485,1913486,-0.18106234073638916,-0.2575727701187134,1.035062551498413,16.493730545043945,-19.140501022338867,-10.061481475830078,-0.6209689378738403,-0.836958110332489,-0.28798559308052063,0.011400341987609863,0.36595869064331055,-0.16608060896396637
396,1913495,1913496,-0.5893672704696655,-0.3193782567977905,0.9458600878715515,26.749711990356445,-7.107491493225098,-14.201319694519043,-0.6194689869880676,-0.844457745552063,-0.28048595786094666,-0.020003780722618103,0.5824878215789795,-0.2956431806087494
397,1913505,1913506,-0.7981778979301453,-0.18446531891822815,0.9247667193412781,26.035533905029297,-1.7093781232833862,-13.144658088684082,-0.6269686222076416,-0.8399580121040344,-0.29098543524742126,0.08784522116184235,0.9295344948768616,-0.42492255568504333
398,1913515,1913516,-0.6953054070472717,-0.41979387402534485,1.0038470029830933,28.44915771484375,-5.020598411560059,-12.675597190856934,-0.6269686222076416,-0.851957380771637,-0.29098543524742126,0.1662621945142746,1.0274900197982788,-0.5540862083435059
399,1913525,1913526,-0.5954481363296509,-0.7478486895561218,0.9780572652816772,27.616498947143555,-9.011238098144531,-11.10082721710205,-0.6179690957069397,-0.851957380771637,-0.2939853072166443,0.20686836540699005,1.3757903575897217,-0.6808479428291321
400,1913535,1913536,-0.5024299621582031,-0.6649247407913208,0.7522256374359131,23.97611427307129,-4.075271129608154,-11.545010566711426,-0.616469144821167,-0.8534573316574097,-0.2864856719970703,0.3387290835380554,1.658921241760254,-0.7891464829444885
401,1913545,1913546,-0.2906554341316223,-0.2921951413154602,0.8552972674369812,6.899647235870361,-11.5285062789917,-7.132063865661621,-0.6299684643745422,-0.8579570651054382,-0.2939853072166443,0.293170690536499,1.7676098346710205,-0.9096922278404236
402,1913555,1913556,-0.632739245891571,-0.08330325037240982,1.0518306493759155,-10.124492645263672,-12.066564559936523,-6.12040901184082,-0.6149692535400391,-0.8669566512107849,-0.2969851493835449,0.4100078344345093,1.6408385038375854,-0.9772611856460571
403,1913565,1913566,-0.40188494324684143,-0.20545051991939545,1.0216116905212402,-19.80111312866211,-1.1598269939422607,-5.565463542938232,-0.6134693026542664,-0.8624568581581116,-0.2954852283000946,0.5189876556396484,1.4923357963562012,-1.030664086341858
404,1913575,1913576,-0.9724856615066528,-0.6131857633590698,0.9824707508087158,-28.24322509765625,2.422368288040161,-5.111185550689697,-0.6104694604873657,-0.850457489490509,-0.3044847846031189,0.40163642168045044,1.2574291229248047,-1.1105711460113525
405,1913585,1913586,-0.5616157054901123,-0.3389837145805359,0.9620246887207031,-26.825271606445312,3.757460832595825,-5.176459312438965,-0.6074696183204651,-0.8654567003250122,-0.3014849126338959,0.36545416712760925,0.8369358777999878,-1.1588448286056519
406,1913595,1913596,-0.5602796673774719,-0.5939844250679016,0.9763782620429993,-18.311491012573242,5.736210823059082,-7.300690174102783,-0.6149692535400391,-0.8489575386047363,-0.29998499155044556,0.30113741755485535,0.7716174721717834,-1.2228339910507202
407,1913605,1913606,-0.8708227872848511,-0.3069947063922882,0.992236852645874,-0.71076500415802,2.8467018604278564,-6.539836883544922,-0.623968780040741,-0.8669566512107849,-0.29998499155044556,0.33949941396713257,0.6996937990188599,-1.2788057327270508
408,1913615,1913616,-0.24127411842346191,-0.026999682188034058,0.9721672534942627,14.238024711608887,6.221409320831299,-6.919149875640869,-0.6119694113731384,-0.8759561777114868,-0.3029848337173462,0.3161447048187256,0.807793140411377,-1.3508622646331787
409,1913625,1913626,-0.2600761353969574,0.040034085512161255,0.9989862442016602,21.174896240234375,-7.990179061889648,-3.186506986618042,-0.6134693026542664,-0.8684565424919128,-0.29848507046699524,0.29744476079940796,1.1158291101455688,-1.4203953742980957
410,1913635,1913636,-0.16999578475952148,-0.2862354815006256,0.9298606514930725,27.142276763916016,-9.354092597961426,-3.324389934539795,-0.6269686222076416,-0.8639568090438843,-0.30898454785346985,0.34783586859703064,1.2445242404937744,-1.4498178958892822
411,1913645,1913646,-0.2251361459493637,-0.24649527668952942,0.9376927018165588,12.889119148254395,-1.705890417098999,-1.7774057388305664,-0.6269686222076416,-0.8669566512107849,-0.2969851493835449,0.4461022913455963,1.5560206174850464,-1.4754323959350586
412,1913655,1913656,-0.38420477509498596,-0.06484521180391312,0.9528744220733643,-8.21180248260498,-2.5470783710479736,-1.2060105800628662,-0.616469144821167,-0.8714563846588135,-0.31048446893692017,0.509413480758667,1.4433239698410034,-1.4750306606292725
413,1913665,1913666,-0.26168814301490784,0.006616044323891401,0.9661429524421692,-28.584938049316406,-4.394040584564209,-0.6161397099494934,-0.6014699339866638,-0.8744562864303589,-0.31048446893692017,0.5701776742935181,1.316415548324585,-1.480170726776123
414,1913675,1913676,-0.4242134094238281,-0.3916272819042206,0.9475645422935486,-28.176393508911133,-4.205082893371582,-2.339371919631958,-0.6044697761535645,-0.8654567003250122,-0.31048446893692017,0.537571370601654,1.0674643516540527,-1.5016427040100098
415,1913685,1913686,-0.3849395513534546,-0.5927998423576355,0.9182665348052979,-28.673933029174805,12.397836685180664,-0.3357234299182892,-0.6089695692062378,-0.8789560198783875,-0.29998499155044556,0.4779481291770935,0.7779527902603149,-1.5284762382507324
416,1913695,1913696,-0.46769168972969055,-0.22101111710071564,1.0087573528289795,-23.912782669067383,8.451494216918945,4.1121039390563965,-0.6044697761535645,-0.8624568581581116,-0.3044847846031189,0.36467865109443665,0.4738064110279083,-1.5224934816360474
417,1913705,1913706,-0.5185823440551758,-0.06699986755847931,1.0098211765289307,-10.35838794708252,6.503207683563232,7.576467514038086,-0.6044697761535645,-0.8624568581581116,-0.3044847846031189,0.34120652079582214,0.33593082427978516,-1.46866774559021
418,1913715,1913716,-0.8264132738113403,-0.011969848535954952,1.0431782007217407,0.2137354463338852,0.6342349052429199,11.36801528930664,-0.6044697761535645,-0.8624568581581116,-0.3044847846031189,0.2899014353752136,0.3273506164550781,-1.3868952989578247
419,1913725,1913726,-0.9281114935874939,-0.07572713494300842,1.0591529607772827,6.6500701904296875,-17.373348236083984,13.592399597167969,-0.5894705057144165,-0.8834558129310608,-0.3014849126338959,0.391944020986557,0.43748387694358826,-1.2627547979354858
420,1913735,1913736,-0.2744050621986389,-0.1868738979101181,1.0321109294891357,6.806858539581299,-19.66913414001465,14.512600898742676,-0.6074696183204651,-0.8714563846588135,-0.31048446893692017,0.5854370594024658,0.5171418786048889,-1.123788833618164
421,1913745,1913746,-0.07979295402765274,-0.4257604777812958,0.9616036415100098,3.062370538711548,-26.988903045654297,16.099966049194336,-0.5939702987670898,-0.8789560198783875,-0.3239837884902954,0.8227010369300842,0.5688193440437317,-0.9734556078910828
422,1913755,1913756,-0.1085096076130867,-0.3234714865684509,0.9102239608764648,-2.6679978370666504,-26.2962703704834,15.433298110961914,-0.6074696183204651,-0.8954551815986633,-0.3134843111038208,1.1690906286239624,0.5376752614974976,-0.8006286025047302
423,1913765,1913766,-0.49644607305526733,-0.3760147988796234,0.984817624092102,-13.652926445007324,-18.22587013244629,15.598289489746094,-0.5864706635475159,-0.8744562864303589,-0.31048446893692017,1.352270245552063,0.5765831470489502,-0.6608486771583557
424,1913775,1913776,-1.1193389892578125,-0.7530744671821594,1.0165271759033203,-11.696558952331543,-7.791884899139404,12.76833438873291,-0.5984700918197632,-0.8744562864303589,-0.30748462677001953,1.457623839378357,0.31830692291259766,-0.5012562274932861
425,1913785,1913786,-0.5323337316513062,-0.8427509665489197,1.0579999685287476,-16.476619720458984,13.749770164489746,9.801945686340332,-0.5819708704948425,-0.8759561777114868,-0.3119843900203705,1.3829492330551147,0.24866726994514465,-0.4017295837402344
426,1913795,1913796,-0.16337832808494568,-0.21810215711593628,1.0813043117523193,-11.672651290893555,27.661766052246094,6.562298774719238,-0.5909704566001892,-0.8819558620452881,-0.31798410415649414,1.034066915512085,0.1135086640715599,-0.33547115325927734
427,1913805,1913806,-0.2597504258155823,0.056687671691179276,1.0444831848144531,-4.131256103515625,35.844566345214844,2.8983895778656006,-0.5984700918197632,-0.8714563846588135,-0.3134843111038208,0.65960294008255,-0.04562713950872421,-0.27543288469314575
428,1913815,1913816,-0.39056533575057983,-0.36620470881462097,1.0850200653076172,1.4812321662902832,37.113563537597656,0.8259374499320984,-0.5894705057144165,-0.8894554972648621,-0.31048446893692017,0.2762639820575714,-0.02471926063299179,-0.26176804304122925
429,1913825,1913826,-0.5979979038238525,-0.16619260609149933,1.1173332929611206,6.8000006675720215,33.19800567626953,-2.9988954067230225,-0.6089695692062378,-0.8789560198783875,-0.2969851493835449,-0.015159758739173412,0.004700276535004377,-0.25622475147247314
430,1913835,1913836,-0.8720759749412537,-0.05053600296378136,1.103608250617981,10.731791496276855,18.085668563842773,-3.891981601715088,-0.6014699339866638,-0.8804559707641602,-0.3014849126338959,-0.2167065590620041,0.1894473284482956,-0.2963045835494995
431,1913845,1913846,-0.567133903503418,-0.1341233104467392,1.052368402481079,12.740217208862305,-1.043255090713501,-3.451589345932007,-0.6044697761535645,-0.8834558129310608,-0.3134843111038208,-0.3886699676513672,0.2717731297016144,-0.3335861563682556
432,1913855,1913856,-0.5067528486251831,-0.5172625780105591,1.100433349609375,4.453089237213135,-9.86448860168457,-3.631852388381958,-0.6119694113731384,-0.8729563355445862,-0.30898454785346985,-0.32349732518196106,0.3716285228729248,-0.3672989010810852
433,1913865,1913866,-0.5147996544837952,-0.5572170615196228,1.1190292835235596,-7.184010982513428,-22.15781593322754,-2.3480536937713623,-0.6149692535400391,-0.8699564933776855,-0.30898454785346985,-0.0834771916270256,0.3802664577960968,-0.3965587019920349
434,1913875,1913876,-0.8859657645225525,-0.08764111250638962,1.098456859588623,-16.710220336914062,-29.57793617248535,-2.212031841278076,-0.6059696674346924,-0.8579570651054382,-0.3029848337173462,0.23275944590568542,0.13811829686164856,-0.4061552584171295
435,1913885,1913886,-0.5902792811393738,-0.11589013785123825,1.1296038627624512,-25.2779541015625,-34.001888275146484,-1.2538032531738281,-0.5984700918197632,-0.8714563846588135,-0.31048446893692017,0.49551573395729065,-0.020680395886301994,-0.42942309379577637
436,1913895,1913896,-0.5353800058364868,-0.16010288894176483,1.1053378582000732,-25.939151763916016,-29.774431228637695,-1.636535882949829,-0.5969701409339905,-0.851957380771637,-0.3029848337173462,0.8014621138572693,-0.335119366645813,-0.4388476014137268
437,1913905,1913906,-1.1777622699737549,-0.63038569688797,1.04607093334198,-29.380306243896484,-12.46530532836914,-2.4217100143432617,-0.6104694604873657,-0.8474575877189636,-0.2924853563308716,1.0212559700012207,-0.4890449345111847,-0.4653966724872589
438,1913915,1913916,-0.8385070562362671,-0.5269644260406494,1.0081278085708618,-27.05609130859375,0.39339902997016907,-2.4900705814361572,-0.6074696183204651,-0.844457745552063,-0.2954852283000946,0.9552783370018005,-0.8494215607643127,-0.4791657030582428
439,1913925,1913926,-0.35956332087516785,0.0650520846247673,1.0341733694076538,-21.586332321166992,16.734275817871094,-4.0850653648376465,-0.6044697761535645,-0.8474575877189636,-0.2924853563308716,0.8204213976860046,-1.0765787363052368,-0.51183021068573
440,1913935,1913936,-0.5196018218994141,-0.13774994015693665,1.0765169858932495,-11.94658374786377,27.84647560119629,-4.637675762176514,-0.6074696183204651,-0.8384580612182617,-0.28948551416397095,0.5929337739944458,-1.1789389848709106,-0.5661916136741638
441,1913945,1913946,-0.381588876247406,-0.46566659212112427,1.1028034687042236,1.1162282228469849,31.90211296081543,-6.4824957847595215,-0.6119694113731384,-0.8279585838317871,-0.28498575091362,0.16486264765262604,-1.3044589757919312,-0.6107925772666931
442,1913955,1913956,-0.362211674451828,-0.5154019594192505,1.143413782119751,13.921189308166504,34.271053314208984,-7.638566493988037,-0.6044697761535645,-0.8384580612182617,-0.28948551416397095,-0.0065806410275399685,-1.2232104539871216,-0.7057145237922668
443,1913965,1913966,-0.1414053738117218,-0.23460644483566284,1.1035529375076294,21.96527671813965,23.743968963623047,-10.627745628356934,-0.616469144821167,-0.850457489490509,-0.2924853563308716,-0.32692429423332214,-0.9640732407569885,-0.8022149801254272
444,1913975,1913976,-0.2909063696861267,-0.35533326864242554,1.061142086982727,26.23440933227539,14.749037742614746,-13.300809860229492,-0.622468888759613,-0.8474575877189636,-0.2924853563308716,-0.6522546410560608,-0.609447181224823,-0.9119147062301636
445,1913985,1913986,-0.4213446080684662,-0.39061230421066284,1.0800470113754272,28.715543746948242,1.2937253713607788,-15.17995548248291,-0.6209689378738403,-0.8399580121040344,-0.29098543524742126,-0.6048986315727234,-0.48670804500579834,-1.0725468397140503
446,1913995,1913996,-0.4851078391075134,-0.48404738306999207,1.072774887084961,27.43769645690918,-3.365463972091675,-13.51649284362793,-0.6374680995941162,-0.850457489490509,-0.2924853563308716,-0.5426262617111206,-0.1390424519777298,-1.2307913303375244
447,1914005,1914006,-0.5548062920570374,-0.35018017888069153,1.0091753005981445,20.4914608001709,-8.53587818145752,-12.565194129943848,-0.6299684643745422,-0.8579570651054382,-0.28498575091362,-0.5836514830589294,-0.012679190374910831,-1.344993233680725
448,1914015,1914016,-0.5396806001663208,-0.19422383606433868,0.9710234999656677,2.9232966899871826,-24.657211303710938,-11.537757873535156,-0.622468888759613,-0.844457745552063,-0.2954852283000946,-0.3533523380756378,0.07291220873594284,-1.4798531532287598
449,1914025,1914026,-0.412798136472702,-0.09806210547685623,0.9837198257446289,-10.151421546936035,-27.74639129638672,-11.193780899047852,-0.6344682574272156,-0.8474575877189636,-0.28948551416397095,-0.14274004101753235,-0.005309217609465122,-1.591913104057312
450,1914035,1914036,-0.32334375381469727,-0.06821814179420471,0.9898210763931274,-21.803016662597656,-22.056753158569336,-11.257148742675781,-0.6179690957069397,-0.8399580121040344,-0.29098543524742126,0.1971031129360199,-0.14958567917346954,-1.7149242162704468
451,1914045,1914046,-0.672477662563324,-0.07337646931409836,0.9756160974502563,-31.062068939208984,-14.990663528442383,-9.282980918884277,-0.6029698252677917,-0.836958110332489,-0.27898603677749634,0.43330541253089905,-0.5370689034461975,-1.8242449760437012
452,1914055,1914056,-0.5925811529159546,-0.07372535765171051,0.9682703614234924,-31.034757614135742,-4.400852203369141,-6.864101409912109,-0.6149692535400391,-0.8429578542709351,-0.2759861946105957,0.3898063600063324,-0.845947802066803,-1.8893128633499146
453,1914065,1914066,-0.2875995635986328,-0.17344313859939575,1.0331178903579712,-20.07571792602539,3.9644651412963867,-2.4113991260528564,-0.6134693026542664,-0.8174591064453125,-0.2864856719970703,0.38934025168418884,-1.0567152500152588,-1.9444414377212524
454,1914075,1914076,-0.24642260372638702,-0.47172558307647705,1.0897141695022583,-3.5143728256225586,6.392244815826416,1.500711441040039,-0.6254687309265137,-0.8294585347175598,-0.28048595786094666,0.3549209535121918,-1.1896718740463257,-1.964806318283081
455,1914085,1914086,-0.5325060486793518,-0.41226550936698914,1.0547316074371338,12.778647422790527,5.136941909790039,3.2564380168914795,-0.6104694604873657,-0.8324583768844604,-0.27148643136024475,0.31814754009246826,-1.0544160604476929,-1.9496818780899048
456,1914095,1914096,-0.25406286120414734,-0.469389408826828,1.0016268491744995,23.69471549987793,-0.2635157108306885,4.319429397583008,-0.616469144821167,-0.8324583768844604,-0.2834858298301697,0.2698740065097809,-0.8556296229362488,-1.9128634929656982
457,1914105,1914106,-0.47186195850372314,-0.25646042823791504,0.9916078448295593,27.642959594726562,-2.5981340408325195,3.9663848876953125,-0.622468888759613,-0.8294585347175598,-0.277486115694046,0.2985616624355316,-0.6684337854385376,-1.8736399412155151
458,1914115,1914116,-0.8245882987976074,0.01249769888818264,1.0802453756332397,24.101333618164062,-7.424699783325195,4.4214606285095215,-0.6344682574272156,-0.8384580612182617,-0.28948551416397095,0.3781150281429291,-0.31677672266960144,-1.8432505130767822
459,1914125,1914126,-0.32957935333251953,-0.27764254808425903,0.986809492111206,20.15238380432129,-7.697514533996582,3.8062398433685303,-0.6104694604873657,-0.8324583768844604,-0.277486115694046,0.41149118542671204,-0.10321024805307388,-1.7967292070388794
460,1914135,1914136,-0.5688067674636841,-0.3450896143913269,0.8936070203781128,17.156352996826172,-4.882260799407959,4.610828399658203,-0.6434678435325623,-0.8324583768844604,-0.277486115694046,0.4273211359977722,0.17187777161598206,-1.7471179962158203
461,1914145,1914146,-0.5950783491134644,-0.2668118476867676,1.0214977264404297,1.8137552738189697,11.414382934570312,6.529575824737549,-0.6254687309265137,-0.8354582190513611,-0.2864856719970703,0.40615102648735046,0.2820812165737152,-1.6873128414154053
462,1914155,1914156,-0.3403927981853485,-0.04819762706756592,1.1327576637268066,-12.630941390991211,9.602527618408203,7.74009895324707,-0.6254687309265137,-0.8144592642784119,-0.277486115694046,0.2679051458835602,0.1854064017534256,-1.6071751117706299
463,1914165,1914166,-0.12031302601099014,-0.28323161602020264,1.0216037034988403,-22.96587371826172,14.27734661102295,8.042206764221191,-0.6149692535400391,-0.8339582681655884,-0.27898603677749634,0.12807884812355042,-0.10264001041650772,-1.5230885744094849
464,1914175,1914176,-0.38755789399147034,-0.8575422167778015,0.8514760136604309,-27.537506103515625,22.355533599853516,5.888064861297607,-0.6254687309265137,-0.8294585347175598,-0.28048595786094666,-0.025997813791036606,-0.4712626039981842,-1.4427441358566284
465,1914185,1914186,-0.37486398220062256,-0.3360487222671509,0.8753189444541931,-37.761573791503906,22.220165252685547,8.229086875915527,-0.6254687309265137,-0.8264586329460144,-0.2834858298301697,-0.3331570327281952,-0.8189383745193481,-1.3624249696731567
466,1914195,1914196,-0.5611041188240051,0.12419696152210236,1.01704740524292,-43.50074005126953,19.136837005615234,6.25192928314209,-0.6149692535400391,-0.8219588994979858,-0.29098543524742126,-0.4159800708293915,-1.122889518737793,-1.3041844367980957
467,1914205,1914206,-0.8836992383003235,-0.0911107063293457,1.0818039178848267,-26.269994735717773,11.848950386047363,4.603577136993408,-0.6044697761535645,-0.8294585347175598,-0.2864856719970703,-0.6037508845329285,-1.5435118675231934,-1.2484763860702515
468,1914215,1914216,-0.6050718426704407,-0.5523824691772461,0.9995015859603882,-7.252638339996338,0.3324187099933624,3.126115560531616,-0.6284685730934143,-0.8294585347175598,-0.28048595786094666,-0.7100089192390442,-1.8184325695037842,-1.2094764709472656
