,timestamp_start,timestamp_end,acc.x,acc.y,acc.z,gyro.x,gyro.y,gyro.z,mag.x,mag.y,mag.z,stabilizer.pitch,stabilizer.roll,stabilizer.yaw
0,15136,15137,-0.16903425753116608,-0.24714544415473938,0.9257822036743164,39.95953369140625,-6.329556941986084,-2.7262134552001953,-0.6209689378738403,-0.8729563355445862,-0.3149842321872711,1.772391438484192,2.3364479541778564,-6.362740516662598
1,15146,15147,-0.18011626601219177,-0.10393107682466507,0.9635807275772095,29.334896087646484,7.078802108764648,-0.36599379777908325,-0.6314684152603149,-0.8774561285972595,-0.3224838674068451,1.6888432502746582,2.675525665283203,-6.386385440826416
2,15156,15157,-0.21488475799560547,-0.06385170668363571,0.9431793093681335,15.668008804321289,24.52970314025879,1.9032684564590454,-0.6269686222076416,-0.8729563355445862,-0.3149842321872711,1.434700846672058,2.7829344272613525,-6.370026111602783
3,15166,15167,-0.21193283796310425,-0.05263376981019974,0.9748998880386353,0.35922911763191223,39.42508316040039,3.2468454837799072,-0.623968780040741,-0.8789560198783875,-0.3209839463233948,1.080212950706482,2.9398112297058105,-6.344299793243408
4,15176,15177,-0.7104499340057373,-0.3621760606765747,0.9500738978385925,-9.497872352600098,46.68694305419922,4.735692977905273,-0.623968780040741,-0.8819558620452881,-0.3329833447933197,0.3976375162601471,2.899691343307495,-6.3360466957092285
5,15186,15187,-0.3962368369102478,-0.6659420132637024,0.919918954372406,-12.186899185180664,49.029541015625,5.163629055023193,-0.622468888759613,-0.8834558129310608,-0.3164841830730438,0.21758370101451874,2.6824655532836914,-6.176303386688232
6,15196,15197,-0.2221803218126297,-0.9354770183563232,0.8627969026565552,-11.342195510864258,37.30792999267578,5.234622478485107,-0.6104694604873657,-0.8714563846588135,-0.32848358154296875,-0.3426989018917084,2.659395933151245,-6.154090404510498
7,15206,15207,-0.30361536145210266,-0.694042444229126,0.9362362027168274,-5.448033809661865,25.048547744750977,4.79338264465332,-0.6194689869880676,-0.8684565424919128,-0.31948402523994446,-0.5629807114601135,2.5706968307495117,-6.073244094848633
8,15216,15217,-0.29181164503097534,-0.23954176902770996,0.8712698817253113,3.732358932495117,9.246404647827148,4.189891815185547,-0.6269686222076416,-0.8759561777114868,-0.31798410415649414,-0.659740686416626,2.6334099769592285,-5.99342155456543
9,15226,15227,-0.842688798904419,-0.14859618246555328,0.990759551525116,7.794996738433838,-9.964678764343262,3.8622705936431885,-0.6254687309265137,-0.8744562864303589,-0.3314834237098694,-0.6073545813560486,2.712944507598877,-5.949283599853516
10,15236,15237,-0.5170037150382996,-0.30600616335868835,1.0348278284072876,14.086151123046875,-20.21002960205078,4.813246250152588,-0.622468888759613,-0.8834558129310608,-0.31948402523994446,-0.3539475202560425,2.8872969150543213,-5.883543968200684
11,15246,15247,-0.4755856394767761,-0.29585781693458557,0.9998272061347961,17.60759162902832,-23.73016929626465,5.746489524841309,-0.6284685730934143,-0.8804559707641602,-0.3254837095737457,-0.13437514007091522,3.1513354778289795,-5.8439040184021
12,15256,15257,-0.6732395887374878,-0.4249023497104645,0.9974252581596375,16.590862274169922,-19.786378860473633,6.550836563110352,-0.6194689869880676,-0.8894554972648621,-0.3224838674068451,0.09045376628637314,3.145981788635254,-5.810856819152832
13,15266,15267,-0.27505359053611755,-0.17614348232746124,0.9773141145706177,15.623950958251953,-13.502391815185547,7.765995979309082,-0.622468888759613,-0.8744562864303589,-0.32848358154296875,0.21727114915847778,3.398045301437378,-5.754015922546387
14,15276,15277,-0.05635153874754906,-0.12989087402820587,1.0326770544052124,13.254183769226074,-6.98367977142334,9.324482917785645,-0.6404679417610168,-0.8924553394317627,-0.32848358154296875,0.30967119336128235,3.594311237335205,-5.66645622253418
15,15286,15287,-0.6380131244659424,-0.15737570822238922,0.9879032969474792,10.575261116027832,-1.198353886604309,8.767029762268066,-0.6404679417610168,-0.8924553394317627,-0.32848358154296875,0.18065959215164185,3.729879379272461,-5.639846324920654
16,15296,15297,-0.2636653780937195,-0.48164328932762146,0.950732409954071,8.20650863647461,3.4582810401916504,8.32365608215332,-0.6404679417610168,-0.8924553394317627,-0.32848358154296875,0.1348067969083786,3.8198838233947754,-5.568749904632568
17,15306,15307,-0.4886356294155121,-0.7996023297309875,1.0051989555358887,2.8513853549957275,8.796656608581543,8.399325370788574,-0.6254687309265137,-0.8774561285972595,-0.32848358154296875,0.08581226319074631,3.834958076477051,-5.480222702026367
18,15316,15317,-0.17605705559253693,-0.3315249979496002,0.9638579487800598,-3.285342216491699,9.897951126098633,7.9708967208862305,-0.622468888759613,-0.8744562864303589,-0.3134843111038208,-0.07695777714252472,3.755016565322876,-5.429939270019531
19,15326,15327,-0.007896903902292252,-0.16213926672935486,0.942483127117157,-7.695051670074463,10.143128395080566,8.814010620117188,-0.6314684152603149,-0.8924553394317627,-0.3164841830730438,-0.10529351979494095,3.731916904449463,-5.304974555969238
20,15336,15337,-0.09610656648874283,-0.03850504383444786,1.0163518190383911,-10.825912475585938,8.233664512634277,8.645451545715332,-0.6284685730934143,-0.8864556550979614,-0.3164841830730438,-0.18837791681289673,3.6387369632720947,-5.209514141082764
21,15346,15347,-0.10022979974746704,-0.4076373279094696,1.0736159086227417,-12.568964958190918,8.147662162780762,9.598882675170898,-0.622468888759613,-0.8834558129310608,-0.32848358154296875,-0.34855547547340393,3.5009660720825195,-5.149590969085693
22,15356,15357,-0.329656183719635,-0.6988049745559692,1.0101059675216675,-13.078681945800781,8.58665657043457,9.519298553466797,-0.6284685730934143,-0.8924553394317627,-0.31948402523994446,-0.4905068576335907,3.545215606689453,-5.056372165679932
23,15366,15367,-0.6968918442726135,-0.21812216937541962,1.0014019012451172,-13.794092178344727,7.443833827972412,9.04199504852295,-0.6059696674346924,-0.8849557638168335,-0.32698363065719604,-0.5599918365478516,3.3609535694122314,-4.962321758270264
24,15376,15377,-0.29461225867271423,-0.06909463554620743,0.9936376214027405,-15.458642959594727,5.310606479644775,8.75910758972168,-0.623968780040741,-0.8759561777114868,-0.3239837884902954,-0.6638745665550232,3.2762012481689453,-4.880358695983887
25,15386,15387,-0.16405579447746277,-0.3164408206939697,1.0023914575576782,-18.095041275024414,-0.7562624216079712,9.27536392211914,-0.6194689869880676,-0.8924553394317627,-0.3134843111038208,-0.6088677048683167,3.011613368988037,-4.768775463104248
26,15396,15397,-0.2660885155200958,-0.3116312623023987,1.0180089473724365,-17.755935668945312,-3.411588668823242,9.97083854675293,-0.6299684643745422,-0.8789560198783875,-0.3149842321872711,-0.5489572286605835,2.878911018371582,-4.653232574462891
27,15406,15407,-0.2708915174007416,-0.35012030601501465,1.0169302225112915,-14.875109672546387,-3.2888553142547607,11.5166597366333,-0.6344682574272156,-0.8744562864303589,-0.31048446893692017,-0.41402095556259155,2.7641167640686035,-4.494180202484131
28,15416,15417,-1.1302751302719116,-0.1633567363023758,1.0067007541656494,-16.399267196655273,-2.2702789306640625,12.449006080627441,-0.6149692535400391,-0.8669566512107849,-0.3149842321872711,-0.36823275685310364,2.6496129035949707,-4.363470554351807
29,15426,15427,-1.4399992227554321,-0.1677619069814682,1.007497787475586,-16.31777572631836,-3.1530661582946777,12.293815612792969,-0.616469144821167,-0.8774561285972595,-0.3164841830730438,-0.5176087021827698,2.6434075832366943,-4.290996551513672
30,15436,15437,-0.5369916558265686,-0.5138489603996277,0.9930997490882874,-17.591367721557617,-2.06002140045166,12.955517768859863,-0.6209689378738403,-0.8699564933776855,-0.3119843900203705,-0.46431803703308105,2.407202959060669,-4.169033527374268
31,15446,15447,-0.07465765625238419,-0.5468057990074158,1.0319974422454834,-18.969268798828125,-0.3566981852054596,12.95055866241455,-0.6149692535400391,-0.8759561777114868,-0.3119843900203705,-0.4341541528701782,2.2987048625946045,-4.017191410064697
32,15456,15457,-0.2873508930206299,-0.11671104282140732,0.9830783605575562,-20.199331283569336,1.805554986000061,13.340876579284668,-0.6149692535400391,-0.8699564933776855,-0.31798410415649414,-0.4439513385295868,2.071474075317383,-3.8925774097442627
33,15466,15467,-0.8650627136230469,-0.2866601049900055,0.9915241599082947,-17.410259246826172,4.176457405090332,13.798884391784668,-0.6194689869880676,-0.8594570159912109,-0.31948402523994446,-0.551103949546814,1.8716548681259155,-3.7880303859710693
34,15476,15477,-0.2149328887462616,-0.0823843851685524,0.9946607351303101,-16.027545928955078,5.9072723388671875,14.025556564331055,-0.6314684152603149,-0.8624568581581116,-0.3044847846031189,-0.6153210401535034,1.7681607007980347,-3.6426241397857666
35,15486,15487,-0.07032699137926102,-0.3108755052089691,1.0355769395828247,-16.365768432617188,5.6457343101501465,14.743856430053711,-0.6299684643745422,-0.8549572229385376,-0.3209839463233948,-0.6917846202850342,1.6673002243041992,-3.4910147190093994
36,15496,15497,0.029996171593666077,-0.21167409420013428,0.9757630228996277,-19.809255599975586,5.791046142578125,15.92638111114502,-0.6344682574272156,-0.8684565424919128,-0.30748462677001953,-0.7601056694984436,1.512790322303772,-3.3355255126953125
37,15506,15507,-0.3097195625305176,-0.37030747532844543,1.013926386833191,-23.581363677978516,4.528977394104004,16.740726470947266,-0.6194689869880676,-0.8594570159912109,-0.3164841830730438,-0.8206170797348022,1.2255096435546875,-3.188383102416992
38,15516,15517,-0.18503975868225098,-0.22459831833839417,0.9957919120788574,-26.829879760742188,4.013795375823975,17.239147186279297,-0.6284685730934143,-0.8594570159912109,-0.31048446893692017,-0.8663420081138611,0.8836479783058167,-3.034299850463867
39,15526,15527,-0.19125589728355408,-0.08651851862668991,0.9751392006874084,-26.764324188232422,2.527853488922119,16.814687728881836,-0.622468888759613,-0.8474575877189636,-0.3014849126338959,-0.898546040058136,0.601542055606842,-2.867953300476074
40,15536,15537,-1.202820062637329,-0.3352378010749817,0.9842585921287537,-26.12230682373047,0.8350587487220764,16.538528442382812,-0.6089695692062378,-0.8579570651054382,-0.29998499155044556,-0.909966230392456,0.3245750665664673,-2.700983762741089
41,15546,15547,-0.7336292862892151,-0.21302399039268494,1.0015232563018799,-23.796157836914062,-2.320819139480591,16.571269989013672,-0.6209689378738403,-0.8549572229385376,-0.29998499155044556,-0.8660894632339478,0.145734965801239,-2.516566514968872
42,15556,15557,-0.4422040581703186,-0.029944922775030136,1.0567690134048462,-18.25623893737793,-6.441782474517822,15.425314903259277,-0.6314684152603149,-0.8684565424919128,-0.3044847846031189,-0.7643929719924927,-0.10264378041028976,-2.360771417617798
43,15566,15567,-0.29479965567588806,-0.1585107296705246,1.0446993112564087,-15.76401138305664,-12.0485200881958,15.50737476348877,-0.622468888759613,-0.8624568581581116,-0.30748462677001953,-0.62102210521698,-0.28753861784935,-2.201467275619507
44,15576,15577,-0.26630476117134094,-0.3145309388637543,1.0848053693771362,-11.975927352905273,-13.320728302001953,14.314461708068848,-0.6134693026542664,-0.844457745552063,-0.31048446893692017,-0.5400075316429138,-0.4976431131362915,-2.0692081451416016
45,15586,15587,-0.5769538879394531,-0.09203436970710754,1.0839496850967407,-8.138094902038574,-15.501522064208984,13.85924243927002,-0.6149692535400391,-0.8579570651054382,-0.3119843900203705,-0.41263100504875183,-0.5523223280906677,-1.9203513860702515
46,15596,15597,-0.5378597974777222,-0.033537957817316055,1.046147108078003,-5.446963787078857,-19.556472778320312,12.539005279541016,-0.6209689378738403,-0.8549572229385376,-0.3119843900203705,-0.23970456421375275,-0.3079637289047241,-1.7138439416885376
47,15606,15607,-0.177342027425766,-0.012907679192721844,1.0031241178512573,-3.6369307041168213,-22.85682487487793,11.542409896850586,-0.6119694113731384,-0.8399580121040344,-0.30898454785346985,0.15715475380420685,-0.453030526638031,-1.6241860389709473
48,15616,15617,-0.23885291814804077,-0.004597452003508806,0.9702181816101074,-6.408872604370117,-22.00318717956543,10.122356414794922,-0.6119694113731384,-0.8549572229385376,-0.31798410415649414,0.2619940936565399,-0.4058251678943634,-1.4886102676391602
49,15626,15627,-0.3339522182941437,-0.1831505000591278,0.944919228553772,-13.044966697692871,-12.258267402648926,7.826549530029297,-0.6119694113731384,-0.8459576964378357,-0.29998499155044556,0.40189626812934875,-0.6634817123413086,-1.423362374305725
50,15636,15637,-0.6396000981330872,-0.37960466742515564,0.9870234131813049,-21.204023361206055,-1.772534728050232,4.510947227478027,-0.6104694604873657,-0.850457489490509,-0.2954852283000946,0.5041387677192688,-0.9648250937461853,-1.3922492265701294
51,15646,15647,-0.659171462059021,-0.34975674748420715,0.9681031703948975,-22.0231990814209,5.8601393699646,1.7060085535049438,-0.6209689378738403,-0.8489575386047363,-0.2939853072166443,0.46399712562561035,-1.0305126905441284,-1.341638445854187
52,15656,15657,-0.19712704420089722,-0.09157531708478928,0.9820403456687927,-16.81571388244629,8.3123779296875,-1.7418476343154907,-0.6209689378738403,-0.8279585838317871,-0.29998499155044556,0.37341538071632385,-1.2657078504562378,-1.335821270942688
53,15666,15667,-0.10650482773780823,-0.053180474787950516,1.0465110540390015,-7.438246250152588,8.192185401916504,-4.6081461906433105,-0.6059696674346924,-0.8309584259986877,-0.29098543524742126,0.10624977946281433,-1.225565791130066,-1.317944884300232
54,15676,15677,-0.34601670503616333,0.06782402098178864,1.01604163646698,2.5788159370422363,1.8743876218795776,-6.450287818908691,-0.6179690957069397,-0.8399580121040344,-0.2969851493835449,0.05741807445883751,-1.2308199405670166,-1.377076268196106
55,15686,15687,-0.8054337501525879,-0.3603902757167816,1.0321815013885498,7.215000152587891,-5.535859107971191,-7.987339496612549,-0.6179690957069397,-0.8339582681655884,-0.29098543524742126,0.13843323290348053,-1.2126741409301758,-1.461523413658142
56,15696,15697,-0.6185804009437561,-0.6668789982795715,1.0778526067733765,10.846911430358887,-9.438471794128418,-9.36536979675293,-0.6209689378738403,-0.8399580121040344,-0.30898454785346985,0.13781563937664032,-1.1399251222610474,-1.5363984107971191
57,15706,15707,-0.5446990728378296,-1.3655558824539185,1.0844478607177734,13.530963897705078,-13.566831588745117,-10.696412086486816,-0.6134693026542664,-0.8474575877189636,-0.29848507046699524,0.22907231748104095,-0.9923391342163086,-1.6242913007736206
58,15716,15717,-1.2953249216079712,-1.4361140727996826,1.0887993574142456,10.984272003173828,-15.53573226928711,-12.117515563964844,-0.6059696674346924,-0.8459576964378357,-0.28498575091362,0.3804294764995575,-0.8700108528137207,-1.7297388315200806
59,15726,15727,-0.5409209728240967,-0.4535973370075226,1.0553388595581055,5.142405033111572,-12.120230674743652,-14.003227233886719,-0.6179690957069397,-0.851957380771637,-0.2969851493835449,0.5677986741065979,-0.8236969113349915,-1.8776205778121948
60,15736,15737,-0.6400289535522461,-0.5733640789985657,1.0321834087371826,-1.6925396919250488,-4.819417953491211,-16.39382553100586,-0.616469144821167,-0.8384580612182617,-0.2924853563308716,0.7103098034858704,-0.8082985877990723,-2.0502028465270996
61,15746,15747,-0.5484178066253662,-0.216003879904747,1.0252625942230225,-9.215593338012695,5.828708648681641,-16.582860946655273,-0.616469144821167,-0.8324583768844604,-0.2864856719970703,0.5997024178504944,-0.9073756337165833,-2.160797357559204
62,15756,15757,-0.30053555965423584,-0.20443393290042877,1.1030938625335693,-16.49481201171875,19.302396774291992,-14.505245208740234,-0.6119694113731384,-0.8309584259986877,-0.28498575091362,0.39840805530548096,-1.0668588876724243,-2.3008298873901367
63,15766,15767,-0.16462433338165283,-0.16737887263298035,0.9901953339576721,-22.792682647705078,24.98087501525879,-13.072895050048828,-0.6149692535400391,-0.8309584259986877,-0.28798559308052063,0.28299421072006226,-1.31721031665802,-2.4802212715148926
64,15776,15777,-0.6087939739227295,-0.7246376872062683,0.8727440237998962,-24.327104568481445,21.5566349029541,-9.314952850341797,-0.6209689378738403,-0.8249587416648865,-0.29098543524742126,-0.003170570358633995,-1.5927456617355347,-2.587958812713623
65,15786,15787,-0.5269333124160767,-0.6598499417304993,1.0662673711776733,-24.729793548583984,12.945508003234863,-6.04843807220459,-0.6104694604873657,-0.8114594221115112,-0.2744862735271454,-0.2813156843185425,-1.7416014671325684,-2.6491198539733887
66,15796,15797,-0.357404500246048,-0.2773333191871643,1.1314756870269775,-27.35231590270996,-0.11249678581953049,-3.0590946674346924,-0.6194689869880676,-0.8324583768844604,-0.2834858298301697,-0.29069143533706665,-2.0986199378967285,-2.695133686065674
67,15806,15807,-0.2584078013896942,-0.7726534605026245,1.0584771633148193,-32.3753776550293,-12.839746475219727,-0.8671098351478577,-0.6209689378738403,-0.8039597868919373,-0.26998651027679443,-0.07762587070465088,-2.5001938343048096,-2.7567811012268066
68,15816,15817,-0.9660122990608215,-0.5577288866043091,0.9538144469261169,-37.075748443603516,-23.5562744140625,-0.019756732508540154,-0.6104694604873657,-0.8294585347175598,-0.2954852283000946,0.11533775925636292,-2.7561259269714355,-2.731520891189575
69,15826,15827,-1.3375182151794434,-0.66453617811203,0.9109837412834167,-35.39695358276367,-30.422679901123047,-0.6048837304115295,-0.6119694113731384,-0.8099594712257385,-0.29098543524742126,0.5272725224494934,-3.2042653560638428,-2.7878665924072266
70,15836,15837,-0.44446367025375366,-0.4972165524959564,1.0211995840072632,-25.59779167175293,-28.670759201049805,-2.243716239929199,-0.5924703478813171,-0.8204589486122131,-0.2834858298301697,0.8918952345848083,-3.298326015472412,-2.8147213459014893
71,15846,15847,-0.15701203048229218,-0.27915728092193604,0.9380062818527222,-5.967668056488037,-22.413015365600586,-2.669344902038574,-0.6089695692062378,-0.8219588994979858,-0.29098543524742126,1.149540901184082,-3.5059688091278076,-2.83874249458313
72,15856,15857,-0.25956621766090393,-0.2589815855026245,0.9754073023796082,15.834001541137695,-9.32192611694336,-2.4962778091430664,-0.6149692535400391,-0.8159592151641846,-0.27898603677749634,1.233120322227478,-3.3915677070617676,-2.8316547870635986
73,15866,15867,-0.38195064663887024,-0.08702290058135986,0.9179996252059937,34.63838195800781,3.5477938652038574,-2.7588930130004883,-0.616469144821167,-0.8294585347175598,-0.2834858298301697,1.2723058462142944,-3.0031588077545166,-2.8645174503326416
74,15876,15877,-0.7390927076339722,-0.3481541872024536,0.927115797996521,47.26201629638672,14.958741188049316,-1.6831185817718506,-0.6194689869880676,-0.8294585347175598,-0.2924853563308716,1.0767481327056885,-2.451850414276123,-2.8619158267974854
75,15886,15887,-0.34564679861068726,-0.1961873471736908,0.9136354327201843,50.443870544433594,22.66762924194336,-0.9285157918930054,-0.623968780040741,-0.836958110332489,-0.28498575091362,0.9165523052215576,-2.0764095783233643,-2.891578435897827
76,15896,15897,-0.08061075210571289,-0.1589309126138687,0.9102205038070679,47.48059844970703,28.967201232910156,-0.03898770362138748,-0.6209689378738403,-0.8459576964378357,-0.3029848337173462,0.5539932250976562,-1.5048309564590454,-2.864086151123047
77,15906,15907,-0.12334366142749786,-0.3191898763179779,0.9881551861763,41.65528106689453,28.761608123779297,-0.0015218394109979272,-0.6089695692062378,-0.8459576964378357,-0.3029848337173462,0.16777996718883514,-1.0797349214553833,-2.852627754211426
78,15916,15917,-0.6471478939056396,-0.5118545889854431,1.061764121055603,29.90178871154785,23.8024959564209,2.055485963821411,-0.6194689869880676,-0.8384580612182617,-0.3014849126338959,0.03741024434566498,-0.9039680361747742,-2.9008381366729736
79,15926,15927,-0.9871194958686829,-0.5763998627662659,0.9945671558380127,15.60352897644043,14.609477996826172,3.1588752269744873,-0.622468888759613,-0.8354582190513611,-0.3044847846031189,-0.08461510390043259,-0.8182200789451599,-2.8973371982574463
80,15936,15937,-0.35096505284309387,-0.3240046501159668,0.9299033880233765,3.8304502964019775,3.3464176654815674,4.150729179382324,-0.616469144821167,-0.844457745552063,-0.2864856719970703,-0.028871111571788788,-0.7346901893615723,-2.920374870300293
81,15946,15947,-0.04832347109913826,-0.24393737316131592,1.0483675003051758,-5.11188268661499,-1.1347846984863281,5.028275012969971,-0.622468888759613,-0.8324583768844604,-0.3014849126338959,-0.0017088674940168858,-0.7410873174667358,-2.904766082763672
82,15956,15957,-0.04396071285009384,0.007255207747220993,1.1206645965576172,-14.31032657623291,0.5825398564338684,5.720799922943115,-0.616469144821167,-0.8294585347175598,-0.3044847846031189,0.04002363234758377,-0.9255720376968384,-2.8679776191711426
83,15966,15967,-0.595672070980072,-0.3071480095386505,1.1043701171875,-22.766721725463867,3.353790283203125,6.817476272583008,-0.6059696674346924,-0.8429578542709351,-0.2939853072166443,0.1251877397298813,-1.2425228357315063,-2.811728000640869
84,15976,15977,-0.9042247533798218,-0.42779678106307983,0.9283080101013184,-26.723356246948242,5.843944072723389,8.180264472961426,-0.6119694113731384,-0.8219588994979858,-0.28798559308052063,0.028550028800964355,-1.4705568552017212,-2.7271921634674072
85,15986,15987,-0.6416990160942078,-0.5108334422111511,0.9215425252914429,-23.8510799407959,5.759140491485596,10.223126411437988,-0.6149692535400391,-0.8309584259986877,-0.29998499155044556,0.20032507181167603,-1.6797269582748413,-2.7284798622131348
86,15996,15997,-0.3545258343219757,-0.74604731798172,0.9755276441574097,-18.21186065673828,1.966546893119812,12.41634464263916,-0.616469144821167,-0.8324583768844604,-0.3044847846031189,0.11629681289196014,-1.962438941001892,-2.5884623527526855
87,16006,16007,-0.6840502023696899,-0.8006795644760132,1.094328761100769,-7.4985032081604,-0.9558464288711548,12.555802345275879,-0.6209689378738403,-0.8249587416648865,-0.29098543524742126,0.1303805112838745,-2.032423734664917,-2.478562593460083
88,16016,16017,-1.293601632118225,-0.4525309205055237,1.0342628955841064,8.375287055969238,-1.8432364463806152,12.447147369384766,-0.623968780040741,-0.8189590573310852,-0.3029848337173462,0.09627228230237961,-1.9433406591415405,-2.351644277572632
89,16026,16027,-0.4007253050804138,-0.020772544667124748,1.0049585103988647,27.90361785888672,-1.7886921167373657,13.198003768920898,-0.6284685730934143,-0.8324583768844604,-0.2954852283000946,0.17675454914569855,-1.6876156330108643,-2.2412333488464355
90,16036,16037,-0.4746939241886139,0.05706731975078583,1.018813967704773,39.02153396606445,-3.4024906158447266,15.522979736328125,-0.6269686222076416,-0.8339582681655884,-0.3029848337173462,0.2534688115119934,-1.347147822380066,-2.1141130924224854
91,16046,16047,-0.5400214791297913,-0.18175020813941956,1.0430198907852173,44.4385871887207,-5.029654026031494,18.17780876159668,-0.6329683661460876,-0.8399580121040344,-0.28798559308052063,0.32845133543014526,-0.8097054958343506,-1.9621800184249878
92,16056,16057,-0.23330266773700714,-0.14562304317951202,1.0915822982788086,39.58572769165039,-0.8375833630561829,18.99859619140625,-0.6284685730934143,-0.8414579033851624,-0.2954852283000946,0.38694289326667786,-0.5874432921409607,-1.7823677062988281
93,16066,16067,-0.07836197316646576,0.16150110960006714,1.0355924367904663,37.2257194519043,1.7572683095932007,18.28249168395996,-0.6344682574272156,-0.8474575877189636,-0.30748462677001953,0.37342557311058044,-0.20540973544120789,-1.6031973361968994
94,16076,16077,-0.028414735570549965,0.08982204645872116,1.0344245433807373,30.893226623535156,9.474664688110352,16.856185913085938,-0.622468888759613,-0.850457489490509,-0.2954852283000946,0.2038906067609787,0.1674371361732483,-1.3888729810714722
95,16086,16087,-0.1122654527425766,-0.03220532089471817,1.0643142461776733,23.197988510131836,20.379438400268555,14.578845024108887,-0.6389680504798889,-0.8459576964378357,-0.2939853072166443,0.16901494562625885,0.29632827639579773,-1.2685467004776
96,16096,16097,-0.032889463007450104,0.06434166431427002,1.0179758071899414,17.66071891784668,21.9865665435791,12.375289916992188,-0.6389680504798889,-0.8459576964378357,-0.2939853072166443,-0.12065698951482773,0.593279242515564,-1.1185815334320068
97,16106,16107,-0.07445820420980453,-0.3945292532444,1.0222383737564087,15.449175834655762,22.065553665161133,11.5236234664917,-0.6389680504798889,-0.8459576964378357,-0.2939853072166443,-0.4044559895992279,0.5619407296180725,-0.9811455011367798
98,16116,16117,-0.13343967497348785,-0.3009827435016632,0.9527912735939026,16.75600242614746,14.382951736450195,12.10254192352295,-0.6179690957069397,-0.8339582681655884,-0.29098543524742126,-0.605378270149231,0.8273760080337524,-0.8574879169464111
99,16126,16127,-0.15055115520954132,-0.3020203113555908,0.9299706220626831,16.64832878112793,6.840784549713135,10.069976806640625,-0.623968780040741,-0.8339582681655884,-0.30898454785346985,-0.5159966945648193,0.7408760190010071,-0.7809741497039795
100,16136,16137,-0.42501455545425415,-0.6723474264144897,0.9034520387649536,13.216365814208984,-0.12109443545341492,8.342625617980957,-0.6209689378738403,-0.8489575386047363,-0.3059847056865692,-0.4508920907974243,0.9090234041213989,-0.7013950347900391
101,16146,16147,-1.1686432361602783,-0.33284229040145874,0.9164062738418579,6.7865986824035645,-2.1863646507263184,6.187045097351074,-0.6149692535400391,-0.8489575386047363,-0.29998499155044556,-0.4805852174758911,1.0676387548446655,-0.6227644681930542
102,16156,16157,-0.41229361295700073,-0.06887179613113403,0.9388173818588257,5.694811820983887,2.625753164291382,5.038217544555664,-0.6149692535400391,-0.8459576964378357,-0.3059847056865692,-0.4761696457862854,1.0235563516616821,-0.5720041394233704
103,16166,16167,-0.26641756296157837,-0.2329803705215454,0.8632885813713074,4.488063335418701,5.716735363006592,4.428678512573242,-0.6149692535400391,-0.8459576964378357,-0.3119843900203705,-0.45574694871902466,1.123137354850769,-0.5254669785499573
104,16176,16177,-0.18318462371826172,-0.5475708246231079,0.9424523711204529,4.3791422843933105,8.89732837677002,3.6574089527130127,-0.6104694604873657,-0.8564571738243103,-0.3164841830730438,-0.5655431747436523,1.1344186067581177,-0.48059913516044617
105,16186,16187,-0.40224066376686096,-0.34772631525993347,0.9412121772766113,2.4847490787506104,11.66637134552002,2.0977070331573486,-0.5954701900482178,-0.8474575877189636,-0.30748462677001953,-0.7237550616264343,1.2667443752288818,-0.4461800754070282
106,16196,16197,-0.3166709542274475,0.02888571098446846,1.0048235654830933,2.194243907928467,14.882804870605469,2.057893991470337,-0.6179690957069397,-0.8669566512107849,-0.31798410415649414,-0.8660376667976379,1.237889051437378,-0.43153494596481323
107,16206,16207,-0.687577486038208,-0.26213040947914124,1.0086907148361206,2.0862700939178467,19.074710845947266,0.7693621516227722,-0.622468888759613,-0.8534573316574097,-0.3164841830730438,-1.0020395517349243,1.2009239196777344,-0.4199255108833313
108,16216,16217,-0.49903354048728943,-0.2728292644023895,1.0579369068145752,6.016087055206299,18.54570770263672,-1.3606919050216675,-0.622468888759613,-0.8654567003250122,-0.29848507046699524,-1.0891618728637695,1.2105095386505127,-0.4219174087047577
109,16226,16227,-0.24975064396858215,-0.16679494082927704,1.078666090965271,15.954500198364258,9.090057373046875,-3.2048113346099854,-0.6194689869880676,-0.8624568581581116,-0.3134843111038208,-1.1787863969802856,1.353103756904602,-0.439900666475296
110,16236,16237,-0.1120762750506401,-0.2451484501361847,1.0989856719970703,24.02445411682129,-0.8921584486961365,-4.336398601531982,-0.6254687309265137,-0.8654567003250122,-0.3134843111038208,-1.2291122674942017,1.6333051919937134,-0.4695037603378296
111,16246,16247,-0.1155463382601738,-0.17335554957389832,1.0218632221221924,29.04477882385254,-7.061226844787598,-5.508081912994385,-0.623968780040741,-0.8729563355445862,-0.30898454785346985,-1.218234896659851,1.9996782541275024,-0.5105620622634888
112,16256,16257,-0.6308488845825195,-0.2596435844898224,1.0076346397399902,28.37687110900879,-10.17779541015625,-4.446192741394043,-0.6329683661460876,-0.8699564933776855,-0.3149842321872711,-1.0664209127426147,2.0295557975769043,-0.5947743058204651
113,16266,16267,-0.5907620787620544,-0.5889803767204285,0.9451035857200623,22.70842170715332,-9.249556541442871,-4.28022575378418,-0.6179690957069397,-0.8579570651054382,-0.3119843900203705,-0.9581834077835083,2.361793041229248,-0.6290917992591858
114,16276,16277,-0.58516925573349,-0.7359345555305481,0.9223852157592773,8.959128379821777,-5.844180107116699,-5.24563455581665,-0.6314684152603149,-0.8654567003250122,-0.31948402523994446,-0.8914154171943665,2.4507858753204346,-0.6897059082984924
115,16286,16287,-0.6064649820327759,-0.3130556643009186,0.9856036305427551,-4.745694637298584,2.430394411087036,-6.8953857421875,-0.6314684152603149,-0.8654567003250122,-0.29848507046699524,-0.917234480381012,2.453033685684204,-0.7610523104667664
116,16296,16297,-0.3633933961391449,-0.006777393165975809,1.0126324892044067,-17.869569778442383,5.5753703117370605,-8.392210006713867,-0.6299684643745422,-0.8579570651054382,-0.3209839463233948,-0.9262614250183105,2.299765110015869,-0.8325612545013428
117,16306,16307,-0.47298234701156616,-0.20790041983127594,1.1302158832550049,-22.967304229736328,7.4127702713012695,-9.751551628112793,-0.6269686222076416,-0.8669566512107849,-0.31798410415649414,-1.0014170408248901,2.005605459213257,-0.9337499737739563
118,16316,16317,-1.293899655342102,-0.2354225367307663,1.0989993810653687,-20.468364715576172,11.788775444030762,-11.401814460754395,-0.622468888759613,-0.8684565424919128,-0.30748462677001953,-1.1664352416992188,1.786047339439392,-1.0511282682418823
119,16326,16327,-0.7788569331169128,-0.1290387362241745,1.0089075565338135,-14.069315910339355,13.141128540039062,-12.958878517150879,-0.6134693026542664,-0.8624568581581116,-0.3224838674068451,-1.1055538654327393,1.559860110282898,-1.128568172454834
120,16336,16337,-0.3055823743343353,-0.5393131971359253,1.0015718936920166,-6.381249904632568,13.32519245147705,-13.905964851379395,-0.6179690957069397,-0.8729563355445862,-0.3119843900203705,-1.3184009790420532,1.534066915512085,-1.2686856985092163
121,16346,16347,-0.22385281324386597,-0.5256040096282959,0.9654496908187866,3.268219470977783,14.497174263000488,-15.605108261108398,-0.6434678435325623,-0.8594570159912109,-0.29848507046699524,-1.3029520511627197,1.7864915132522583,-1.3174784183502197
122,16356,16357,-0.05974511057138443,-0.261621356010437,0.8996682167053223,13.24402904510498,8.076651573181152,-16.513574600219727,-0.6284685730934143,-0.8594570159912109,-0.3134843111038208,-1.4800693988800049,1.968368411064148,-1.4743385314941406
123,16366,16367,-0.06591792404651642,-0.42662134766578674,1.0010331869125366,23.877708435058594,5.375401496887207,-17.33100700378418,-0.6434678435325623,-0.8654567003250122,-0.3044847846031189,-1.5552397966384888,2.319411039352417,-1.6138505935668945
124,16376,16377,-0.1393519639968872,-0.05427928268909454,1.0404030084609985,29.68461799621582,-3.83538556098938,-16.822677612304688,-0.6314684152603149,-0.8684565424919128,-0.3134843111038208,-1.5539335012435913,2.5039563179016113,-1.80403470993042
125,16386,16387,-0.9655507802963257,-0.033105529844760895,1.0547958612442017,24.41501808166504,-10.384702682495117,-16.710533142089844,-0.6254687309265137,-0.8834558129310608,-0.3224838674068451,-1.4270312786102295,2.808229446411133,-1.9527738094329834
126,16396,16397,-0.7193878293037415,-0.2282077968120575,0.9163289666175842,11.150384902954102,-7.497941493988037,-18.41773796081543,-0.6359682083129883,-0.8849557638168335,-0.3119843900203705,-1.3195619583129883,2.975918769836426,-2.125643730163574
127,16406,16407,-1.0838732719421387,-0.24702079594135284,0.9310414791107178,-3.9402236938476562,-5.177255630493164,-17.77308464050293,-0.623968780040741,-0.8819558620452881,-0.3059847056865692,-1.2746130228042603,2.9730184078216553,-2.321735143661499
128,16416,16417,-0.5261641144752502,-0.28801029920578003,1.007219672203064,-16.970285415649414,-5.981500148773193,-15.408262252807617,-0.6254687309265137,-0.8714563846588135,-0.3134843111038208,-1.2968825101852417,2.7809975147247314,-2.527188539505005
129,16426,16427,-0.43972206115722656,-0.5769751667976379,1.078507661819458,-18.612356185913086,-1.2549002170562744,-13.656095504760742,-0.6299684643745422,-0.8729563355445862,-0.3059847056865692,-1.1775661706924438,2.607797861099243,-2.6290383338928223
130,16436,16437,-0.5245540738105774,-0.315310001373291,1.0553489923477173,-24.35213279724121,-0.1598769575357437,-9.920013427734375,-0.6284685730934143,-0.8744562864303589,-0.3134843111038208,-1.2214422225952148,2.3643651008605957,-2.775324821472168
131,16446,16447,-0.22804801166057587,-0.159196674823761,1.0221740007400513,-32.24679946899414,4.831233501434326,-8.281774520874023,-0.6419678926467896,-0.8699564933776855,-0.3149842321872711,-1.3047101497650146,2.0906248092651367,-2.8843681812286377
132,16456,16457,-0.2569481134414673,-0.16620495915412903,0.9998729825019836,-37.58649826049805,5.5723419189453125,-8.181997299194336,-0.6329683661460876,-0.8609569072723389,-0.3029848337173462,-1.3436115980148315,1.845981240272522,-2.9187839031219482
133,16466,16467,-0.36003485321998596,-0.26538991928100586,1.1055448055267334,-36.16426467895508,5.378046989440918,-6.99427604675293,-0.6314684152603149,-0.8594570159912109,-0.31048446893692017,-1.447758436203003,1.273091435432434,-3.0548551082611084
134,16476,16477,-0.3297579288482666,-0.6829162240028381,1.0374518632888794,-29.862831115722656,11.84359073638916,-9.117512702941895,-0.6254687309265137,-0.8684565424919128,-0.3044847846031189,-1.5318678617477417,1.2564114332199097,-3.0571467876434326
135,16486,16487,-0.254824697971344,-0.7976594567298889,0.9081284403800964,-24.776538848876953,9.459940910339355,-6.9597859382629395,-0.6344682574272156,-0.8624568581581116,-0.29848507046699524,-1.7125657796859741,0.9252088069915771,-3.1838223934173584
136,16496,16497,-0.5282535552978516,-0.3727911412715912,0.9189165234565735,-19.181575775146484,3.0257568359375,-5.637650012969971,-0.6314684152603149,-0.8624568581581116,-0.30748462677001953,-1.8455297946929932,0.8248434066772461,-3.2347116470336914
137,16506,16507,-0.8408793807029724,-0.09768231958150864,1.0286765098571777,-16.83506202697754,-3.3309597969055176,-4.909688472747803,-0.6509674191474915,-0.8609569072723389,-0.3149842321872711,-1.8099441528320312,0.6328436136245728,-3.281355142593384
138,16516,16517,-0.533295750617981,-0.38684606552124023,0.978229820728302,-10.628910064697266,-9.455808639526367,-6.425116062164307,-0.6269686222076416,-0.8609569072723389,-0.3059847056865692,-1.857506513595581,0.6293702125549316,-3.3316099643707275
139,16526,16527,-0.2822432219982147,-0.3451573848724365,0.9074380993843079,-8.099348068237305,-16.976778030395508,-7.190389633178711,-0.6209689378738403,-0.8759561777114868,-0.30898454785346985,-1.6320263147354126,0.4116573631763458,-3.412997007369995
140,16536,16537,-0.12110015749931335,-0.2701883316040039,0.896955132484436,-3.1670825481414795,-15.878555297851562,-8.003521919250488,-0.6269686222076416,-0.8609569072723389,-0.3029848337173462,-1.37056303024292,0.38474297523498535,-3.456911325454712
141,16546,16547,-0.24414889514446259,-0.20061282813549042,0.9083066582679749,-8.717906951904297,-12.428016662597656,-6.20721960067749,-0.6209689378738403,-0.8729563355445862,-0.32698363065719604,-1.3278957605361938,0.3744905889034271,-3.5520851612091064
142,16556,16557,-0.5782138109207153,-0.07203953713178635,0.9640214443206787,-17.690162658691406,-7.003682613372803,-4.788084030151367,-0.6284685730934143,-0.8594570159912109,-0.3164841830730438,-1.1670312881469727,0.2963014543056488,-3.5808844566345215
143,16566,16567,-0.5190854072570801,-0.28650951385498047,1.0485196113586426,-26.067928314208984,-7.773018836975098,-4.729956150054932,-0.6089695692062378,-0.8789560198783875,-0.3209839463233948,-1.1765539646148682,-0.05311499536037445,-3.6731791496276855
144,16576,16577,-0.8842206597328186,-0.015400982461869717,1.1575257778167725,-25.163053512573242,-2.4645605087280273,-5.227066993713379,-0.6119694113731384,-0.8849557638168335,-0.32998350262641907,-1.1521501541137695,-0.28818368911743164,-3.711064338684082
145,16586,16587,-1.462378978729248,-0.09806877374649048,1.151536226272583,-21.309818267822266,2.643789291381836,-5.189189434051514,-0.6089695692062378,-0.8879556059837341,-0.3209839463233948,-1.1736050844192505,-0.5082002878189087,-3.763660192489624
146,16596,16597,-0.6636701226234436,-0.43953680992126465,1.0711827278137207,-14.33694839477539,5.99086856842041,-5.288074016571045,-0.6149692535400391,-0.8909554481506348,-0.3209839463233948,-1.1794253587722778,-0.730952799320221,-3.8213062286376953
147,16606,16607,-0.47068461775779724,-0.2330102175474167,1.0241098403930664,-14.04910945892334,6.666779518127441,-4.718395233154297,-0.623968780040741,-0.8729563355445862,-0.3149842321872711,-1.269883155822754,-0.940058171749115,-3.8917386531829834
148,16616,16617,-0.6512848138809204,-0.09499158710241318,1.0561209917068481,-13.630261421203613,5.661940097808838,-4.066967487335205,-0.6074696183204651,-0.8684565424919128,-0.3224838674068451,-1.288918137550354,-0.8695836663246155,-3.884678363800049
149,16626,16627,-0.35675734281539917,-0.07416229695081711,1.0090653896331787,-14.084798812866211,4.179381370544434,-3.20778489112854,-0.616469144821167,-0.8804559707641602,-0.3224838674068451,-1.2771635055541992,-1.1674188375473022,-3.952639102935791
150,16636,16637,-0.12875327467918396,0.009927580133080482,1.0792330503463745,-18.960533142089844,2.25429368019104,-1.8295561075210571,-0.6269686222076416,-0.8669566512107849,-0.32698363065719604,-1.3084726333618164,-1.4816062450408936,-4.01544189453125
151,16646,16647,-0.36227068305015564,-0.11359657347202301,1.1250327825546265,-18.048355102539062,-1.6458534002304077,-1.2250752449035645,-0.6149692535400391,-0.8609569072723389,-0.3119843900203705,-1.2944527864456177,-1.5428143739700317,-4.008863925933838
152,16656,16657,-0.4457906484603882,0.010347617790102959,1.1055208444595337,-17.6009464263916,0.3619050979614258,-2.161386728286743,-0.6104694604873657,-0.8774561285972595,-0.31948402523994446,-1.1310783624649048,-1.6688964366912842,-4.022021293640137
153,16666,16667,-0.7454265356063843,0.13453786075115204,1.1441245079040527,-10.509868621826172,-2.3953630924224854,-1.312129259109497,-0.6149692535400391,-0.8729563355445862,-0.32698363065719604,-1.1626025438308716,-1.6398483514785767,-4.006832122802734
154,16676,16677,-1.0128514766693115,-0.5477928519248962,1.2614619731903076,1.3105283975601196,-1.0638208389282227,-1.073356032371521,-0.6179690957069397,-0.8699564933776855,-0.30898454785346985,-1.1884385347366333,-1.702539324760437,-4.019335746765137
155,16686,16687,-0.7083556056022644,-0.8051410913467407,1.1204313039779663,10.541580200195312,2.9224319458007812,0.08226550370454788,-0.6284685730934143,-0.8774561285972595,-0.3254837095737457,-1.2227015495300293,-1.6489492654800415,-4.017314910888672
156,16696,16697,-0.716097891330719,-0.2623834013938904,1.0614280700683594,15.2539701461792,5.628068447113037,2.546903133392334,-0.6404679417610168,-0.8594570159912109,-0.31048446893692017,-1.2928680181503296,-1.4658070802688599,-3.9912848472595215
157,16706,16707,-0.3703821301460266,-0.10883694142103195,1.0922486782073975,15.594006538391113,6.860065937042236,5.381400108337402,-0.6284685730934143,-0.8624568581581116,-0.30748462677001953,-1.3952959775924683,-1.3511090278625488,-3.9527697563171387
158,16716,16717,-0.6737528443336487,-0.43669605255126953,1.0050252676010132,12.408344268798828,7.878206729888916,6.721220970153809,-0.6284685730934143,-0.844457745552063,-0.3134843111038208,-1.478471040725708,-1.2522530555725098,-3.8895764350891113
159,16726,16727,-0.9404718279838562,-0.46686068177223206,0.9566376209259033,0.9422327876091003,0.9715957641601562,10.246813774108887,-0.6299684643745422,-0.851957380771637,-0.3149842321872711,-1.2781414985656738,-1.258005142211914,-3.87333345413208
160,16736,16737,-0.7131635546684265,-0.27686184644699097,1.0520389080047607,-8.277507781982422,-9.804253578186035,14.640753746032715,-0.6284685730934143,-0.850457489490509,-0.3014849126338959,-1.198019027709961,-1.3042503595352173,-3.7613375186920166
161,16746,16747,-0.2559734582901001,-0.45735764503479004,1.1127606630325317,-21.021957397460938,-20.500730514526367,16.434024810791016,-0.6254687309265137,-0.850457489490509,-0.3134843111038208,-1.0108224153518677,-1.5778090953826904,-3.632002830505371
162,16756,16757,-0.7111876606941223,-0.4134562313556671,1.1157788038253784,-24.98299217224121,-30.176843643188477,18.27083969116211,-0.6089695692062378,-0.8399580121040344,-0.30898454785346985,-0.7811886668205261,-1.8659859895706177,-3.462446689605713
163,16766,16767,-0.45204079151153564,-0.39950740337371826,1.1679579019546509,-21.80922508239746,-24.852479934692383,18.3944034576416,-0.6209689378738403,-0.851957380771637,-0.3119843900203705,-0.40893232822418213,-1.9923237562179565,-3.2651824951171875
164,16776,16777,-0.7131925225257874,-0.44804057478904724,1.1133936643600464,-8.951578140258789,-18.59571075439453,20.278135299682617,-0.6134693026542664,-0.8354582190513611,-0.29848507046699524,-0.24840174615383148,-2.1533873081207275,-3.062628746032715
165,16786,16787,-0.24890926480293274,-0.22360633313655853,1.1106079816818237,10.021100044250488,-2.2367262840270996,21.219253540039062,-0.616469144821167,-0.8354582190513611,-0.3044847846031189,-0.24278338253498077,-2.052776575088501,-2.8064513206481934
166,16796,16797,-0.18364495038986206,-0.004542576614767313,1.0213793516159058,28.410743713378906,7.278980731964111,23.120872497558594,-0.6284685730934143,-0.8384580612182617,-0.2954852283000946,-0.329463928937912,-1.798034429550171,-2.5705063343048096
167,16806,16807,-0.4033869504928589,0.1516137570142746,1.0140751600265503,36.70970916748047,15.683161735534668,23.98575210571289,-0.6359682083129883,-0.8459576964378357,-0.29998499155044556,-0.5173441171646118,-1.3847612142562866,-2.3048107624053955
168,16816,16817,-0.31160879135131836,0.036489155143499374,1.0167548656463623,36.788028717041016,14.296384811401367,25.85303497314453,-0.6344682574272156,-0.8534573316574097,-0.3014849126338959,-0.7889056205749512,-1.1545413732528687,-2.0456137657165527
169,16826,16827,-0.9731038212776184,-0.18046002089977264,1.043326735496521,27.78955841064453,13.512248039245605,27.40331268310547,-0.6389680504798889,-0.8309584259986877,-0.3029848337173462,-0.9140052795410156,-0.7822031378746033,-1.7775824069976807
170,16836,16837,-1.2235748767852783,-0.22114695608615875,0.972993016242981,15.244219779968262,5.567051887512207,28.350448608398438,-0.6389680504798889,-0.8399580121040344,-0.3059847056865692,-0.8438295125961304,-0.6137295365333557,-1.5638618469238281
171,16846,16847,-0.4051906168460846,-0.10755185037851334,1.0478267669677734,2.838228225708008,-9.343480110168457,30.285152435302734,-0.6374680995941162,-0.8384580612182617,-0.31048446893692017,-0.7304102182388306,-0.5008110404014587,-1.306006669998169
172,16856,16857,-0.4595739543437958,-0.09723030775785446,1.0083937644958496,-6.9679765701293945,-17.45722770690918,31.425100326538086,-0.6269686222076416,-0.8339582681655884,-0.3059847056865692,-0.562542736530304,-0.5659422874450684,-1.0021458864212036
173,16866,16867,-0.5824387669563293,0.13455483317375183,1.0337727069854736,-15.406512260437012,-23.60924530029297,29.499380111694336,-0.616469144821167,-0.8384580612182617,-0.29848507046699524,-0.35374143719673157,-0.8504706025123596,-0.7050207853317261
174,16876,16877,-0.3743019998073578,0.0781506597995758,0.9921271800994873,-13.94350814819336,-27.52806854248047,28.5168399810791,-0.6119694113731384,-0.8399580121040344,-0.3029848337173462,-0.08990958333015442,-1.019281029701233,-0.42007917165756226
175,16886,16887,-0.48702096939086914,-0.18915432691574097,1.0035550594329834,-8.189783096313477,-21.899417877197266,29.281841278076172,-0.6119694113731384,-0.8399580121040344,-0.3029848337173462,0.5122039318084717,-1.1667811870574951,-0.22535400092601776
176,16896,16897,-0.2846621870994568,-0.24431806802749634,0.951251208782196,-0.25456511974334717,-15.487730979919434,29.68839454650879,-0.6119694113731384,-0.8399580121040344,-0.3029848337173462,0.5551745891571045,-1.1967254877090454,0.1101430132985115
177,16906,16907,-0.042613569647073746,-0.24443432688713074,0.9344242811203003,4.942929744720459,-7.784770488739014,29.354799270629883,-0.6119694113731384,-0.8399580121040344,-0.3029848337173462,0.6910402774810791,-1.1210566759109497,0.3987045884132385
178,16916,16917,-0.03165898472070694,-0.08140238374471664,0.9370037913322449,3.89863657951355,1.3154240846633911,30.381696701049805,-0.6194689869880676,-0.8294585347175598,-0.2954852283000946,0.6813238263130188,-1.036176085472107,0.7061917781829834
179,16926,16927,-0.06060999259352684,0.2267364263534546,0.982579231262207,-1.8378599882125854,12.542622566223145,29.69224739074707,-0.6044697761535645,-0.844457745552063,-0.2954852283000946,0.5152824521064758,-1.3691030740737915,1.0428239107131958
180,16936,16937,-0.06237005814909935,0.24487093091011047,0.9732646346092224,-4.4085469245910645,21.454341888427734,28.854764938354492,-0.6089695692062378,-0.8429578542709351,-0.3149842321872711,0.4534837007522583,-1.1178269386291504,1.2829409837722778
181,16946,16947,-0.4667739272117615,0.005227820016443729,0.9238236546516418,-0.9024878144264221,21.344053268432617,28.710832595825195,-0.6209689378738403,-0.8459576964378357,-0.3059847056865692,0.04344175383448601,-1.0663423538208008,1.6063919067382812
182,16956,16957,-0.22051866352558136,-0.20888163149356842,0.9126259684562683,8.867830276489258,17.485750198364258,26.82217025756836,-0.616469144821167,-0.8324583768844604,-0.3014849126338959,0.051301054656505585,-0.8269452452659607,1.8139111995697021
183,16966,16967,-0.0474512092769146,-0.09866613149642944,0.926383376121521,14.850459098815918,12.875831604003906,25.931970596313477,-0.6119694113731384,-0.851957380771637,-0.2969851493835449,-1.181077480316162,-1.804604411125183,2.4309237003326416
184,16976,16977,-0.04844684526324272,0.05777256190776825,0.9919940829277039,15.393335342407227,4.132137775421143,23.18513298034668,-0.6119694113731384,-0.8459576964378357,-0.29998499155044556,-1.2236261367797852,-1.5210344791412354,2.6604998111724854
185,16986,16987,0.03380627930164337,-0.010459896177053452,1.0208631753921509,15.420737266540527,-11.489025115966797,21.56495475769043,-0.5999699831008911,-0.8489575386047363,-0.30898454785346985,-1.1466007232666016,-1.462913155555725,2.8759877681732178
186,16996,16997,-0.056096915155649185,-0.0014115858357399702,1.0185390710830688,18.553180694580078,-29.603994369506836,20.0481014251709,-0.6194689869880676,-0.8474575877189636,-0.30748462677001953,-0.7314505577087402,-1.2105408906936646,3.0288639068603516
187,17006,17007,-0.06623747944831848,-0.13714593648910522,1.0104140043258667,26.285633087158203,-42.525001525878906,18.4748592376709,-0.6029698252677917,-0.8669566512107849,-0.30898454785346985,-0.35258927941322327,-0.8785533905029297,3.2245681285858154
188,17016,17017,-0.1190795823931694,-0.131089985370636,0.9936051964759827,31.12168312072754,-41.994537353515625,16.64388656616211,-0.5909704566001892,-0.8669566512107849,-0.3149842321872711,0.3288208544254303,-0.5786611437797546,3.3446335792541504
189,17026,17027,-0.06087387353181839,-0.09865745157003403,0.9826964735984802,31.946205139160156,-31.90719985961914,15.285333633422852,-0.5954701900482178,-0.8624568581581116,-0.3164841830730438,0.7200683355331421,-0.18641209602355957,3.4939815998077393
190,17036,17037,-0.18622057139873505,-0.4256455898284912,1.0425463914871216,36.686973571777344,-12.39322280883789,15.040511131286621,-0.5939702987670898,-0.8579570651054382,-0.3149842321872711,0.8672395944595337,0.1084834486246109,3.664289951324463
191,17046,17047,-0.5860787630081177,-0.18872804939746857,1.067511796951294,40.88241195678711,8.662300109863281,15.361738204956055,-0.5954701900482178,-0.8714563846588135,-0.3134843111038208,0.7454606294631958,0.6167822480201721,3.8385374546051025
192,17056,17057,-0.6289669871330261,0.0030638808384537697,1.0067025423049927,36.9808349609375,26.23858642578125,13.684148788452148,-0.5999699831008911,-0.8639568090438843,-0.3149842321872711,0.6625773310661316,0.8392218351364136,3.979734182357788
193,17066,17067,-0.2266691029071808,0.06317736953496933,0.9813060760498047,25.651872634887695,34.289432525634766,12.322372436523438,-0.6044697761535645,-0.8654567003250122,-0.3134843111038208,0.2969104051589966,1.3394936323165894,4.102157115936279
194,17076,17077,-0.02835039421916008,-0.036533065140247345,0.989387035369873,10.696233749389648,33.125450134277344,13.151399612426758,-0.6044697761535645,-0.8684565424919128,-0.3164841830730438,-0.09193850308656693,1.387243628501892,4.256465435028076
195,17086,17087,-0.13603878021240234,0.018079513683915138,1.0282849073410034,-3.885862112045288,22.83980369567871,12.482527732849121,-0.6014699339866638,-0.8474575877189636,-0.3134843111038208,-0.22226448357105255,1.3572672605514526,4.382679462432861
196,17096,17097,-0.10397335141897202,-0.01291606854647398,1.0421040058135986,-17.417831420898438,7.486448764801025,10.434808731079102,-0.5849707126617432,-0.8639568090438843,-0.31798410415649414,-0.3518450856208801,1.2241131067276,4.502652645111084
197,17106,17107,-0.1755155473947525,0.026981763541698456,1.012807846069336,-22.163257598876953,-7.273349761962891,7.338027477264404,-0.5939702987670898,-0.8639568090438843,-0.3059847056865692,-0.15640759468078613,1.0330432653427124,4.581857681274414
198,17116,17117,-0.17920908331871033,-0.15095902979373932,0.981887698173523,-20.00921630859375,-20.558887481689453,1.812410593032837,-0.6014699339866638,-0.8624568581581116,-0.2924853563308716,0.11846982687711716,0.7667816281318665,4.626632213592529
199,17126,17127,-0.11625272035598755,-0.04862287640571594,0.9947147369384766,-10.022148132324219,-25.587871551513672,-0.6478796005249023,-0.6014699339866638,-0.8654567003250122,-0.3164841830730438,0.43310385942459106,0.6244209408760071,4.6237006187438965
200,17136,17137,-0.05482028052210808,0.08131300657987595,1.0439178943634033,9.988388061523438,-19.578235626220703,-1.2154709100723267,-0.5819708704948425,-0.8549572229385376,-0.3059847056865692,0.6975993514060974,0.7413359880447388,4.594070911407471
201,17146,17147,-0.1318066418170929,0.10775163024663925,1.0685031414031982,26.263471603393555,-6.053199291229248,1.7744948863983154,-0.5954701900482178,-0.8534573316574097,-0.3014849126338959,0.7206496596336365,1.1589454412460327,4.569140911102295
202,17156,17157,-0.4278939366340637,0.06753359735012054,1.068568468093872,33.65809631347656,10.182619094848633,4.470702648162842,-0.5939702987670898,-0.8669566512107849,-0.3059847056865692,0.637059211730957,1.5151500701904297,4.594964504241943
203,17166,17167,-0.3256882131099701,-0.3555618226528168,0.97346031665802,31.665191650390625,19.643085479736328,5.432107448577881,-0.6059696674346924,-0.8699564933776855,-0.3149842321872711,0.5013741850852966,1.8197823762893677,4.653807640075684
204,17176,17177,-0.12885695695877075,-0.35627859830856323,0.9814513921737671,19.93598175048828,23.4277286529541,6.256096363067627,-0.6149692535400391,-0.8669566512107849,-0.32698363065719604,0.3353865444660187,1.9965544939041138,4.7380194664001465
205,17186,17187,-0.23476435244083405,0.03284825012087822,0.9857565760612488,4.087560653686523,20.5281982421875,6.520743370056152,-0.6179690957069397,-0.8549572229385376,-0.30898454785346985,0.1752888411283493,2.088406562805176,4.822168827056885
206,17196,17197,-0.7387100458145142,0.0022892781998962164,1.0378402471542358,-10.95724868774414,16.298606872558594,5.970476150512695,-0.5999699831008911,-0.851957380771637,-0.3029848337173462,-0.0606868676841259,2.0428831577301025,4.8825602531433105
207,17206,17207,-0.5772952437400818,0.017170626670122147,1.1014410257339478,-24.58484649658203,12.752556800842285,5.7081708908081055,-0.6059696674346924,-0.851957380771637,-0.30898454785346985,-0.23203818500041962,1.7602341175079346,4.953159809112549
208,17216,17217,-0.12486130744218826,0.18867501616477966,1.0385853052139282,-30.6237850189209,6.948754787445068,5.948160171508789,-0.6119694113731384,-0.8459576964378357,-0.2969851493835449,-0.3946091830730438,1.406883955001831,5.01077938079834
209,17226,17227,-0.032124102115631104,0.09058145433664322,1.0018651485443115,-29.535310745239258,-2.0032026767730713,6.640181064605713,-0.6074696183204651,-0.8474575877189636,-0.3164841830730438,-0.290014386177063,1.1004401445388794,5.098690986633301
210,17236,17237,-0.09355416893959045,-0.013896183110773563,0.9819869995117188,-20.514558792114258,-7.543737411499023,6.259607791900635,-0.6074696183204651,-0.8534573316574097,-0.3014849126338959,-0.22355706989765167,0.9072966575622559,5.160025119781494
211,17246,17247,-0.21269553899765015,-0.2003207951784134,1.008950114250183,-11.842208862304688,-9.851696014404297,6.147121429443359,-0.6119694113731384,-0.836958110332489,-0.2939853072166443,-0.10323715209960938,0.7218133211135864,5.230668067932129
212,17256,17257,-0.3092462718486786,-0.09683799743652344,0.9685347080230713,-5.2861409187316895,-2.9634363651275635,4.443615436553955,-0.6104694604873657,-0.8294585347175598,-0.3164841830730438,-0.02221457101404667,0.774074912071228,5.269163608551025
213,17266,17267,-0.21275633573532104,0.04735267907381058,0.9898583292961121,1.2157353162765503,10.742993354797363,2.4866414070129395,-0.6029698252677917,-0.8459576964378357,-0.3059847056865692,-0.12687799334526062,0.803842306137085,5.286548614501953
214,17276,17277,-0.09437347203493118,0.014046408236026764,1.00071382522583,8.822894096374512,18.247699737548828,-0.5662840008735657,-0.622468888759613,-0.8414579033851624,-0.2954852283000946,-0.13210056722164154,0.8723377585411072,5.328655242919922
215,17286,17287,-0.04759753867983818,-0.1689780205488205,0.9995205402374268,12.231038093566895,16.800373077392578,-3.077779531478882,-0.6074696183204651,-0.8414579033851624,-0.3164841830730438,-0.3154471516609192,1.0191513299942017,5.308477401733398
216,17296,17297,-0.04490622505545616,-0.3927888572216034,1.0023467540740967,8.458488464355469,12.857330322265625,-5.650028228759766,-0.6074696183204651,-0.8474575877189636,-0.2954852283000946,-0.4264630973339081,1.1392947435379028,5.264968395233154
217,17306,17307,-0.5240060687065125,-1.0836511850357056,1.0114455223083496,2.95487117767334,10.907615661621094,-7.552086353302002,-0.6134693026542664,-0.8414579033851624,-0.31048446893692017,-0.46703004837036133,1.162591814994812,5.216763973236084
218,17316,17317,-1.173531174659729,-0.3049261271953583,1.0176641941070557,0.056965697556734085,12.7760009765625,-10.111929893493652,-0.6149692535400391,-0.8549572229385376,-0.2939853072166443,-0.6327829957008362,1.124261736869812,5.121637344360352
219,17326,17327,-0.500312864780426,0.03523467853665352,1.0034252405166626,1.4719523191452026,13.325939178466797,-10.648697853088379,-0.6104694604873657,-0.844457745552063,-0.3014849126338959,-0.7433815002441406,1.020479440689087,5.027683734893799
220,17336,17337,-0.5863882899284363,-0.12059265375137329,0.990286648273468,4.673693656921387,9.074000358581543,-9.896824836730957,-0.616469144821167,-0.8384580612182617,-0.3014849126338959,-0.8974931836128235,1.117107629776001,4.917102813720703
221,17346,17347,-0.25055742263793945,-0.15019993484020233,0.9643822908401489,3.018545150756836,3.2803943157196045,-8.695329666137695,-0.6149692535400391,-0.8549572229385376,-0.2969851493835449,-0.9465231895446777,1.2026898860931396,4.827919006347656
222,17356,17357,-0.06871550530195236,-0.0014731577830389142,0.95402991771698,0.95473313331604,1.5071150064468384,-8.91331958770752,-0.6269686222076416,-0.851957380771637,-0.3029848337173462,-0.9301615953445435,1.254088044166565,4.748525142669678
223,17366,17367,0.013243398629128933,0.08325567096471786,0.9786450266838074,-2.4879610538482666,-3.664865016937256,-8.925121307373047,-0.6104694604873657,-0.850457489490509,-0.31048446893692017,-0.8699275255203247,1.1726435422897339,4.6702046394348145
224,17376,17377,-0.22317662835121155,-0.03607982397079468,0.9648255109786987,-8.690983772277832,-7.858701705932617,-8.369572639465332,-0.6014699339866638,-0.844457745552063,-0.29848507046699524,-0.8007135987281799,1.094272494316101,4.580018997192383
225,17386,17387,-0.38720181584358215,-0.08826319873332977,0.9188758134841919,-15.192143440246582,-10.3651704788208,-7.198602676391602,-0.6089695692062378,-0.851957380771637,-0.29998499155044556,-0.690254807472229,0.906270444393158,4.504886627197266
226,17396,17397,-0.39494606852531433,-0.5660641193389893,0.9444178342819214,-19.427919387817383,-14.972400665283203,-6.736208438873291,-0.6134693026542664,-0.850457489490509,-0.3014849126338959,-0.5871838331222534,0.7757701277732849,4.429447650909424
227,17406,17407,-0.35066279768943787,-0.3205018639564514,0.9664667248725891,-22.263713836669922,-17.735048294067383,-6.933393955230713,-0.6194689869880676,-0.8534573316574097,-0.28948551416397095,-0.35392817854881287,0.5844519734382629,4.372796058654785
228,17416,17417,-0.42202094197273254,0.07808370143175125,1.059219479560852,-21.401958465576172,-16.771371841430664,-6.62984037399292,-0.6059696674346924,-0.8489575386047363,-0.3029848337173462,-0.09611722826957703,0.24168887734413147,4.316932201385498
229,17426,17427,-0.16542038321495056,0.1590578258037567,0.9617356061935425,-17.311304092407227,-10.142077445983887,-7.1990580558776855,-0.6104694604873657,-0.8474575877189636,-0.3044847846031189,-0.06398311257362366,0.01818009279668331,4.229803562164307
230,17436,17437,-0.16616256535053253,0.04716041684150696,1.0078190565109253,-7.799933910369873,0.5978848934173584,-7.560116291046143,-0.6299684643745422,-0.8489575386047363,-0.3059847056865692,-0.024213945493102074,-0.07286964356899261,4.152966022491455
231,17446,17447,-0.1233709529042244,-0.06867530196905136,0.9487717747688293,5.048327922821045,14.806553840637207,-7.657879829406738,-0.6014699339866638,-0.844457745552063,-0.30748462677001953,-0.19774797558784485,-0.05470528081059456,4.059813499450684
232,17456,17457,-0.17425283789634705,-0.025721829384565353,0.9588966369628906,14.885189056396484,20.673627853393555,-9.055547714233398,-0.6179690957069397,-0.8429578542709351,-0.28798559308052063,-0.40809112787246704,0.14981544017791748,3.9736881256103516
233,17466,17467,-0.2731056213378906,-0.005607562605291605,1.063130259513855,18.72442626953125,26.190048217773438,-9.981711387634277,-0.6209689378738403,-0.8489575386047363,-0.3029848337173462,-0.6192768812179565,0.44282346963882446,3.8825769424438477
234,17476,17477,-0.2405652403831482,-0.08924967795610428,1.0629957914352417,20.5795841217041,21.84319496154785,-10.185619354248047,-0.6119694113731384,-0.8699564933776855,-0.2969851493835449,-0.8261508941650391,0.4942391812801361,3.784497022628784
235,17486,17487,-0.13293232023715973,-0.11771305650472641,0.9904604554176331,17.5172119140625,11.670703887939453,-8.984082221984863,-0.6254687309265137,-0.8534573316574097,-0.3224838674068451,-1.0947239398956299,0.7464395761489868,3.679216146469116
236,17496,17497,-0.12647785246372223,-0.19962459802627563,0.9962490797042847,13.947327613830566,3.9217348098754883,-7.47836446762085,-0.616469144821167,-0.8594570159912109,-0.30748462677001953,-0.9938344359397888,0.7273474335670471,3.6116724014282227
237,17506,17507,0.020190274342894554,-0.051895394921302795,0.9281238317489624,6.906589984893799,-12.24350643157959,-6.5169501304626465,-0.6104694604873657,-0.8744562864303589,-0.30748462677001953,-0.879947304725647,0.9144859910011292,3.5492606163024902
238,17516,17517,-0.23583242297172546,-0.12920933961868286,0.9815117120742798,-2.1672725677490234,-15.039406776428223,-5.679076671600342,-0.616469144821167,-0.8624568581581116,-0.3254837095737457,-0.6693406105041504,0.8090781569480896,3.488450050354004
239,17526,17527,-0.44591817259788513,-0.4095631241798401,0.9028909206390381,-14.295332908630371,-16.140199661254883,-4.314208507537842,-0.6059696674346924,-0.8489575386047363,-0.3059847056865692,-0.5843477845191956,0.7370684742927551,3.4321141242980957
240,17536,17537,-0.1852840930223465,-0.43576520681381226,0.9087917804718018,-17.998607635498047,-13.184051513671875,-4.224509239196777,-0.6074696183204651,-0.8474575877189636,-0.3224838674068451,-0.38381287455558777,0.4786718487739563,3.3898746967315674
241,17546,17547,-0.03985259309411049,-0.12637335062026978,0.9027769565582275,-18.31840705871582,-5.113474369049072,-4.564718723297119,-0.616469144821167,-0.8534573316574097,-0.3164841830730438,-0.35863950848579407,0.27122506499290466,3.3393073081970215
242,17556,17557,-0.06798683851957321,0.2014862298965454,0.9676709175109863,-13.757027626037598,2.942166566848755,-5.290463447570801,-0.6089695692062378,-0.8579570651054382,-0.3029848337173462,-0.40231961011886597,0.12159249186515808,3.2859983444213867
243,17566,17567,-0.08209028840065002,0.2051822990179062,1.0116289854049683,-5.2844977378845215,4.60128116607666,-4.609228610992432,-0.5999699831008911,-0.851957380771637,-0.3119843900203705,-0.5111205577850342,0.019136259332299232,3.233494997024536
244,17576,17577,-0.06954652816057205,-0.2551121115684509,0.9899773001670837,3.3412437438964844,3.8976473808288574,-5.022223949432373,-0.6134693026542664,-0.8534573316574097,-0.30748462677001953,-0.614190399646759,0.058249443769454956,3.182882308959961
245,17586,17587,-0.3440415561199188,-0.6020720601081848,0.9770687222480774,12.250625610351562,1.8225971460342407,-5.046154975891113,-0.6014699339866638,-0.8594570159912109,-0.31948402523994446,-0.5353636741638184,0.2159319967031479,3.1414718627929688
246,17596,17597,-0.4510003626346588,-0.6191638112068176,1.0142813920974731,16.733905792236328,-1.7180147171020508,-5.929145336151123,-0.6179690957069397,-0.8579570651054382,-0.3149842321872711,-0.561732292175293,0.3448258936405182,3.080335855484009
247,17606,17607,-0.31477323174476624,-0.1948464810848236,1.027084469795227,14.70592975616455,-0.13069143891334534,-5.900958061218262,-0.6029698252677917,-0.8789560198783875,-0.31798410415649414,-0.48201507329940796,0.42242980003356934,3.020358085632324
248,17616,17617,-0.42424070835113525,-0.2820103168487549,0.9939541816711426,7.059078693389893,4.5287322998046875,-6.209387302398682,-0.6044697761535645,-0.8684565424919128,-0.31948402523994446,-0.5390399098396301,0.6072601079940796,2.961343765258789
249,17626,17627,-0.3272140920162201,-0.5739691853523254,1.0270124673843384,5.0168352127075195,1.9818459749221802,-6.473574638366699,-0.6044697761535645,-0.8684565424919128,-0.31948402523994446,-0.6209074854850769,0.5700622200965881,2.8902502059936523
250,17636,17637,-0.19955886900424957,-0.20342715084552765,1.050926923751831,6.684594631195068,-0.5145573019981384,-5.378176212310791,-0.6044697761535645,-0.8684565424919128,-0.31948402523994446,-0.6589270830154419,0.6939204335212708,2.8290536403656006
251,17646,17647,-0.1724444478750229,0.045759040862321854,1.055993676185608,7.958175182342529,-0.05856167897582054,-4.338111877441406,-0.5984700918197632,-0.8804559707641602,-0.31948402523994446,-0.6588595509529114,0.692910373210907,2.777343988418579
252,17656,17657,-0.13496200740337372,0.017481118440628052,1.0485345125198364,8.680379867553711,3.3973917961120605,-4.2139506340026855,-0.6104694604873657,-0.8894554972648621,-0.3254837095737457,-0.6902499794960022,0.7938871383666992,2.7399439811706543
253,17666,17667,-0.30524370074272156,-0.031245436519384384,1.0781093835830688,7.548093318939209,4.6854143142700195,-2.9538321495056152,-0.5984700918197632,-0.8924553394317627,-0.31948402523994446,-0.7657565474510193,0.87496018409729,2.7013165950775146
254,17676,17677,-1.0076649188995361,-0.625836193561554,1.0619789361953735,6.56805944442749,2.0979394912719727,-1.6966843605041504,-0.5894705057144165,-0.8954551815986633,-0.32848358154296875,-0.8347101211547852,0.9457875490188599,2.6775104999542236
255,17686,17687,-0.5956400036811829,-0.6850237846374512,1.0695220232009888,1.7226085662841797,1.4854607582092285,-1.2792712450027466,-0.6074696183204651,-0.8984550833702087,-0.33748310804367065,-0.7281334400177002,0.8831760287284851,2.666084051132202
256,17696,17697,-0.42770838737487793,-0.2356092631816864,1.1108945608139038,-4.549165725708008,1.8547523021697998,-1.7038602828979492,-0.5999699831008911,-0.8939552903175354,-0.30898454785346985,-0.7757464647293091,0.8630049824714661,2.6496875286102295
257,17706,17707,-0.198888897895813,-0.042146217077970505,1.0868631601333618,-7.7378129959106445,1.6060062646865845,-2.765676736831665,-0.5879706144332886,-0.8879556059837341,-0.33898305892944336,-0.8110644221305847,0.7841702699661255,2.6283702850341797
258,17716,17717,-0.16718825697898865,0.0308054368942976,1.0869457721710205,-10.395666122436523,4.57030725479126,-3.7303473949432373,-0.5864706635475159,-0.8954551815986633,-0.3224838674068451,-0.8589267730712891,0.6650461554527283,2.5974318981170654
259,17726,17727,-0.1255611926317215,-0.034776076674461365,1.0695152282714844,-12.031580924987793,2.2665560245513916,-5.442503929138184,-0.5969701409339905,-0.8909554481506348,-0.32698363065719604,-0.9171145558357239,0.589410662651062,2.5462632179260254
260,17736,17737,-0.29423215985298157,-0.17355746030807495,1.0708554983139038,-14.460352897644043,4.861505031585693,-7.769282341003418,-0.6044697761535645,-0.8864556550979614,-0.3224838674068451,-0.9832680225372314,0.45296573638916016,2.4816060066223145
261,17746,17747,-0.42920082807540894,-0.038869138807058334,1.10613214969635,-10.208983421325684,7.729238033294678,-9.273308753967285,-0.6104694604873657,-0.8774561285972595,-0.3254837095737457,-1.1027610301971436,0.331358402967453,2.391890048980713
262,17756,17757,-0.23760484158992767,-0.06279309093952179,1.1299418210983276,-0.2361740916967392,14.59102725982666,-10.169660568237305,-0.6119694113731384,-0.8759561777114868,-0.3239837884902954,-1.1387462615966797,0.29317694902420044,2.3001372814178467
263,17766,17767,-0.170774444937706,-0.06211155280470848,1.110241413116455,12.852985382080078,13.237184524536133,-10.388087272644043,-0.5969701409339905,-0.8699564933776855,-0.3209839463233948,-1.240461826324463,0.37267690896987915,2.2004241943359375
264,17776,17777,-0.16580279171466827,-0.10818015784025192,1.0651586055755615,21.510719299316406,10.318400382995605,-9.403552055358887,-0.6149692535400391,-0.8849557638168335,-0.3239837884902954,-1.4173858165740967,0.6945779919624329,2.108196496963501
265,17786,17787,-0.19447697699069977,0.0007449310505762696,1.0567388534545898,23.169187545776367,2.2923331260681152,-8.676834106445312,-0.616469144821167,-0.8834558129310608,-0.33448326587677,-1.381198525428772,0.9231442213058472,2.023804187774658
266,17796,17797,-0.18831652402877808,-0.0253473911434412,1.053613543510437,16.14337921142578,-8.022560119628906,-6.091676712036133,-0.616469144821167,-0.8774561285972595,-0.3134843111038208,-1.318615436553955,1.1092818975448608,1.9497920274734497
267,17806,17807,-0.41704902052879333,-0.12031590193510056,1.0255229473114014,6.015354156494141,-16.342609405517578,-5.459818363189697,-0.623968780040741,-0.8699564933776855,-0.32698363065719604,-1.1107690334320068,1.188995599746704,1.8928227424621582
268,17816,17817,-0.4069026708602905,0.07006587088108063,1.000821828842163,-2.8593454360961914,-27.350017547607422,-4.664312839508057,-0.6194689869880676,-0.8744562864303589,-0.3314834237098694,-0.886008083820343,1.1980822086334229,1.8362855911254883
269,17826,17827,-0.19308991730213165,0.07841987907886505,1.0343403816223145,-12.927776336669922,-29.704648971557617,-4.732490062713623,-0.6194689869880676,-0.8864556550979614,-0.3224838674068451,-0.39992469549179077,0.9735371470451355,1.7820407152175903
270,17836,17837,-0.10383792221546173,0.05130978673696518,1.0253416299819946,-13.468082427978516,-30.000154495239258,-4.495904445648193,-0.6059696674346924,-0.8819558620452881,-0.3209839463233948,-0.3699178099632263,0.898766815662384,1.721993327140808
271,17846,17847,-0.6697949171066284,-0.1768018752336502,1.0500648021697998,-10.087393760681152,-26.721323013305664,-2.499594211578369,-0.6014699339866638,-0.8624568581581116,-0.3164841830730438,0.031694959849119186,0.7236180305480957,1.6855448484420776
272,17856,17857,-1.682036280632019,-0.6566518545150757,1.01328706741333,-4.586089134216309,-21.034006118774414,-0.24483364820480347,-0.6194689869880676,-0.8654567003250122,-0.3014849126338959,0.19020172953605652,0.7726181745529175,1.6755648851394653
273,17866,17867,-0.9242491722106934,-0.31958794593811035,1.0181277990341187,3.1818926334381104,-16.796791076660156,2.465423822402954,-0.6089695692062378,-0.8669566512107849,-0.3119843900203705,0.4702206552028656,0.77375727891922,1.6921449899673462
274,17876,17877,-0.29332080483436584,-0.05206935480237007,1.0817396640777588,6.009982109069824,-6.069635391235352,5.730347156524658,-0.6134693026542664,-0.8624568581581116,-0.31948402523994446,0.6099646091461182,0.8611613512039185,1.7358546257019043
275,17886,17887,-0.27780401706695557,-0.15736420452594757,1.0757594108581543,3.1734979152679443,7.791623592376709,5.514091968536377,-0.6179690957069397,-0.8639568090438843,-0.3059847056865692,0.501620352268219,0.9303403496742249,1.791839599609375
276,17896,17897,-0.16494415700435638,-0.05515063926577568,1.036391258239746,-5.246603488922119,11.746691703796387,2.8498637676239014,-0.6194689869880676,-0.8564571738243103,-0.2954852283000946,0.3113056421279907,0.8962931036949158,1.829007625579834
277,17906,17907,-0.2232777625322342,-0.007522850763052702,0.994290828704834,-13.405252456665039,12.871855735778809,1.0768632888793945,-0.6014699339866638,-0.8714563846588135,-0.3134843111038208,0.17011569440364838,0.7172699570655823,1.8464316129684448
278,17916,17917,-0.3382134437561035,-0.5140545964241028,1.0298336744308472,-15.53627872467041,12.155766487121582,0.28641802072525024,-0.6134693026542664,-0.8684565424919128,-0.31948402523994446,-0.03541911020874977,0.5399671196937561,1.850136160850525
279,17926,17927,-0.09609771519899368,-0.448762983083725,1.0147427320480347,-13.520055770874023,9.67129135131836,-0.32238122820854187,-0.6194689869880676,-0.8564571738243103,-0.31048446893692017,-0.1281149536371231,0.36021867394447327,1.8518582582473755
280,17936,17937,-0.39295968413352966,-0.040274396538734436,1.0290900468826294,-7.628939628601074,7.174556732177734,0.3802521526813507,-0.6059696674346924,-0.8699564933776855,-0.3059847056865692,-0.11268381774425507,0.2660672962665558,1.8589966297149658
281,17946,17947,-0.385187029838562,-0.15619505941867828,1.0427687168121338,-1.1989843845367432,5.7250213623046875,1.490738868713379,-0.6179690957069397,-0.8609569072723389,-0.3119843900203705,-0.2141273021697998,0.20711761713027954,1.8676813840866089
282,17956,17957,-0.13370028138160706,-0.09059593081474304,0.9920583963394165,3.3992559909820557,6.183420181274414,1.8179728984832764,-0.6059696674346924,-0.8699564933776855,-0.3209839463233948,-0.23790542781352997,0.37101975083351135,1.8815746307373047
283,17966,17967,-0.2000960409641266,-0.5656842589378357,0.9922294020652771,2.5315141677856445,-0.5986055135726929,0.594292163848877,-0.6209689378738403,-0.8579570651054382,-0.3209839463233948,-0.2768004834651947,0.34226617217063904,1.8981858491897583
284,17976,17977,-0.99686598777771,-0.1859675645828247,1.018837809562683,0.30492866039276123,-7.424266338348389,-0.7532738447189331,-0.6194689869880676,-0.8654567003250122,-0.3134843111038208,-0.2173527032136917,0.3553585410118103,1.8896344900131226
285,17986,17987,-0.4918570816516876,-0.06475228816270828,1.0573495626449585,-1.211022138595581,-11.951615333557129,-1.967939019203186,-0.6089695692062378,-0.8579570651054382,-0.30898454785346985,-0.0416635237634182,0.3337227702140808,1.8773572444915771
286,17996,17997,-0.060515426099300385,-0.011303712613880634,1.0257606506347656,-4.94028377532959,-9.235700607299805,-1.4514484405517578,-0.6044697761535645,-0.8594570159912109,-0.3044847846031189,0.13811016082763672,0.26573124527931213,1.8612483739852905
287,18006,18007,-0.41937384009361267,-0.16494031250476837,1.0327214002609253,-10.403190612792969,-1.4832096099853516,-0.9922425746917725,-0.6074696183204651,-0.8534573316574097,-0.30748462677001953,0.209343820810318,0.13099081814289093,1.8499952554702759
288,18016,18017,-1.2925158739089966,-0.7724940180778503,1.0360878705978394,-14.993093490600586,6.8081536293029785,-0.9315394759178162,-0.6134693026542664,-0.8534573316574097,-0.30748462677001953,0.13726821541786194,-0.015988394618034363,1.8411239385604858
289,18026,18027,-0.43905892968177795,-0.4479157030582428,1.0029515027999878,-18.824756622314453,11.305051803588867,-2.1980159282684326,-0.6119694113731384,-0.8609569072723389,-0.3029848337173462,0.037943437695503235,-0.16674542427062988,1.8233225345611572
290,18036,18037,0.001558926422148943,0.04093888774514198,0.9645256996154785,-14.1220703125,14.86581802368164,-4.17151403427124,-0.616469144821167,-0.850457489490509,-0.29848507046699524,-0.17757607996463776,-0.3718501627445221,1.7923758029937744
291,18046,18047,-0.0772038921713829,-0.0349019430577755,1.025673270225525,-6.665433883666992,16.478790283203125,-4.812309265136719,-0.6134693026542664,-0.8354582190513611,-0.3014849126338959,-0.3613523542881012,-0.457309365272522,1.7456393241882324
292,18056,18057,-0.07637609541416168,-0.11308075487613678,0.9954279065132141,4.060114860534668,14.025506019592285,-5.6921539306640625,-0.622468888759613,-0.844457745552063,-0.3044847846031189,-0.4694289565086365,-0.46746179461479187,1.6886892318725586
293,18066,18067,-0.320077121257782,0.009450258687138557,0.9930667281150818,11.681092262268066,5.468122959136963,-5.729611396789551,-0.6149692535400391,-0.851957380771637,-0.28498575091362,-0.5730610489845276,-0.24122942984104156,1.6229569911956787
294,18076,18077,-0.20496493577957153,-0.03015662357211113,0.9482975602149963,14.503787994384766,-4.0634942054748535,-4.906594753265381,-0.623968780040741,-0.8459576964378357,-0.3029848337173462,-0.5120583772659302,-0.24397265911102295,1.572946548461914
295,18086,18087,-0.11599051207304001,-0.04336300119757652,0.9556057453155518,15.5105562210083,-11.62334156036377,-3.744028329849243,-0.6119694113731384,-0.851957380771637,-0.3029848337173462,-0.381729394197464,0.0011074761860072613,1.5214530229568481
296,18096,18097,-0.3198607265949249,-0.2574286162853241,1.0484097003936768,15.858081817626953,-17.71959686279297,-1.8775606155395508,-0.6149692535400391,-0.8489575386047363,-0.29998499155044556,-0.12522107362747192,0.18521557748317719,1.485939383506775
297,18106,18107,-0.239683136343956,-0.05740547552704811,0.9546158909797668,15.1416654586792,-15.80339241027832,0.1835896074771881,-0.6119694113731384,-0.8459576964378357,-0.3119843900203705,0.06770867854356766,0.29312896728515625,1.478679895401001
298,18116,18117,-0.11209914833307266,-0.22006067633628845,0.9523181319236755,9.23354721069336,-7.62781286239624,2.1531598567962646,-0.6179690957069397,-0.8399580121040344,-0.29998499155044556,0.23101171851158142,0.48456406593322754,1.483790397644043
299,18126,18127,-0.9981319308280945,-0.32893580198287964,1.004280924797058,0.29809901118278503,-0.47561338543891907,2.214388132095337,-0.6149692535400391,-0.8579570651054382,-0.2969851493835449,0.2715468406677246,0.4785212576389313,1.5111006498336792
300,18136,18137,-0.3978477418422699,-0.47060927748680115,0.9676010012626648,-10.593388557434082,4.284499645233154,2.7860867977142334,-0.6074696183204651,-0.8474575877189636,-0.2924853563308716,0.21845005452632904,0.37477174401283264,1.5455938577651978
301,18146,18147,-0.7296433448791504,-0.13518042862415314,0.9306088089942932,-19.84346580505371,8.425559043884277,2.0779826641082764,-0.616469144821167,-0.8324583768844604,-0.3014849126338959,0.09315009415149689,0.11439825594425201,1.5832204818725586
302,18156,18157,-0.34361934661865234,0.08018559217453003,0.9335882067680359,-22.664592742919922,14.334734916687012,0.2746675908565521,-0.6104694604873657,-0.8414579033851624,-0.3044847846031189,-0.12435516715049744,-0.0999249815940857,1.59980046749115
303,18166,18167,-0.1708122342824936,-0.006386023946106434,0.9432290196418762,-19.331995010375977,20.254722595214844,0.32199952006340027,-0.6089695692062378,-0.8429578542709351,-0.29098543524742126,-0.40325790643692017,-0.37807703018188477,1.6081711053848267
304,18176,18177,-0.3388504981994629,-0.22471897304058075,1.0049580335617065,-8.049840927124023,20.17827796936035,-0.036688417196273804,-0.6254687309265137,-0.8384580612182617,-0.3044847846031189,-0.6560359001159668,-0.44293245673179626,1.6058030128479004
305,18186,18187,-0.1106228455901146,-0.35281404852867126,0.9534485340118408,7.278957366943359,17.098148345947266,0.35899618268013,-0.6209689378738403,-0.8429578542709351,-0.29998499155044556,-0.733600378036499,-0.4418066143989563,1.594436526298523
306,18196,18197,-0.12669099867343903,-0.08260354399681091,0.9871231913566589,23.681617736816406,7.615025520324707,2.1332952976226807,-0.6179690957069397,-0.8489575386047363,-0.31798410415649414,-0.8533738851547241,-0.1588459014892578,1.599547266960144
307,18206,18207,-0.4503375291824341,-0.35360872745513916,1.0029375553131104,33.63117980957031,-4.672343730926514,4.50869083404541,-0.6179690957069397,-0.8579570651054382,-0.29998499155044556,-0.5724087953567505,0.2605365514755249,1.6015881299972534
308,18216,18217,-0.09566831588745117,-0.030277341604232788,0.9633306860923767,37.54021072387695,-12.491111755371094,6.113689422607422,-0.616469144821167,-0.8684565424919128,-0.3254837095737457,-0.44088131189346313,0.6215435266494751,1.65264093875885
309,18226,18227,-0.23112620413303375,-0.18766054511070251,1.0301154851913452,38.169036865234375,-13.061320304870605,9.420371055603027,-0.6179690957069397,-0.8759561777114868,-0.3119843900203705,-0.3209032714366913,0.8855672478675842,1.732825756072998
310,18236,18237,-0.1989043951034546,-0.12502142786979675,1.0554920434951782,31.107297897338867,-9.7382230758667,12.591663360595703,-0.6044697761535645,-0.8744562864303589,-0.31948402523994446,-0.22796587646007538,1.3048670291900635,1.8449351787567139
311,18246,18247,-0.09120545536279678,-0.029774868860840797,0.9984278678894043,12.115484237670898,-6.027837753295898,12.176863670349121,-0.6104694604873657,-0.8744562864303589,-0.3254837095737457,-0.1252593696117401,1.3552931547164917,1.9709956645965576
312,18256,18257,-0.1663142442703247,0.026279747486114502,0.9952512979507446,-7.333386421203613,-0.5396118760108948,10.056985855102539,-0.6149692535400391,-0.8669566512107849,-0.3209839463233948,-0.09783878922462463,1.3609845638275146,2.083916187286377
313,18266,18267,-0.5029310584068298,-0.2754597067832947,1.0175498723983765,-20.946491241455078,7.101600646972656,7.700852870941162,-0.6104694604873657,-0.8624568581581116,-0.3254837095737457,-0.1879691630601883,1.1056379079818726,2.1741957664489746
314,18276,18277,-0.8444335460662842,-0.5445960760116577,1.0207183361053467,-28.259248733520508,10.378841400146484,6.758507251739502,-0.6074696183204651,-0.8624568581581116,-0.3134843111038208,-0.3629913330078125,0.8303308486938477,2.2480216026306152
315,18286,18287,-0.3378133475780487,-0.05058535188436508,0.9870615005493164,-30.763479232788086,13.86031723022461,7.7958197593688965,-0.6149692535400391,-0.8549572229385376,-0.3029848337173462,-0.569550633430481,0.4851861298084259,2.3216912746429443
316,18296,18297,-0.274904727935791,-0.07886657118797302,1.035180926322937,-29.957454681396484,20.636455535888672,7.50523567199707,-0.6134693026542664,-0.8564571738243103,-0.30748462677001953,-0.779451310634613,0.2774375081062317,2.3996033668518066
317,18306,18307,-0.5388447642326355,-0.32555752992630005,1.0124168395996094,-22.758270263671875,24.474660873413086,5.382986068725586,-0.6269686222076416,-0.8639568090438843,-0.3029848337173462,-0.9455095529556274,-0.06334378570318222,2.4693989753723145
318,18316,18317,-0.2578783333301544,-0.23280775547027588,1.0232661962509155,-13.657666206359863,22.189682006835938,1.7190948724746704,-0.6104694604873657,-0.8474575877189636,-0.30748462677001953,-1.2559945583343506,-0.26847347617149353,2.5024185180664062
319,18326,18327,-0.05372558906674385,-0.07220270484685898,1.0191296339035034,-0.44784313440322876,15.587868690490723,-0.17751199007034302,-0.6134693026542664,-0.850457489490509,-0.3134843111038208,-1.42254638671875,-0.2195194810628891,2.5104780197143555
320,18336,18337,-0.11629360169172287,-0.03563707694411278,1.0082162618637085,15.208952903747559,2.1353726387023926,-2.7284586429595947,-0.6329683661460876,-0.8549572229385376,-0.30898454785346985,-1.4182769060134888,-0.017797362059354782,2.499314308166504
321,18346,18347,-0.20191590487957,-0.06700819730758667,1.008360505104065,29.349782943725586,-12.516376495361328,-4.497162342071533,-0.6269686222076416,-0.851957380771637,-0.2969851493835449,-1.3139475584030151,0.2267368733882904,2.4624440670013428
322,18356,18357,-0.12347245216369629,-0.023710226640105247,0.9702104926109314,37.45286178588867,-22.088388442993164,-5.659688472747803,-0.6179690957069397,-0.8819558620452881,-0.3239837884902954,-0.9955894351005554,0.6478267312049866,2.418067216873169
323,18366,18367,-0.48015910387039185,-0.10927318781614304,0.9695186018943787,40.75041961669922,-24.323890686035156,-6.652501583099365,-0.6179690957069397,-0.8819558620452881,-0.3239837884902954,-0.7723673582077026,0.9877054691314697,2.3506529331207275
324,18376,18377,-0.9675057530403137,-0.25254884362220764,0.9853460788726807,34.910030364990234,-21.243789672851562,-6.253955841064453,-0.6179690957069397,-0.8819558620452881,-0.3239837884902954,-0.6306854486465454,1.3746778964996338,2.2811474800109863
325,18386,18387,-0.6950156092643738,-0.2711050808429718,0.9922863841056824,21.43109130859375,-15.667764663696289,-6.084794998168945,-0.6314684152603149,-0.8594570159912109,-0.3224838674068451,-0.3557675778865814,1.6466761827468872,2.211709976196289
326,18396,18397,-0.609168291091919,-0.15486004948616028,0.9888671636581421,5.126927375793457,-9.491166114807129,-5.9885783195495605,-0.6179690957069397,-0.8639568090438843,-0.3119843900203705,-0.4617237448692322,1.6121493577957153,2.1321732997894287
327,18406,18407,-0.3145929276943207,-0.016712529584765434,0.9681729078292847,-11.5386323928833,-1.6937073469161987,-5.30497932434082,-0.6299684643745422,-0.8549572229385376,-0.3149842321872711,-0.39458367228507996,1.5126351118087769,2.0670769214630127
328,18416,18417,-0.16654713451862335,0.04986977577209473,0.9608816504478455,-22.009782791137695,4.694316864013672,-4.585021018981934,-0.6074696183204651,-0.8414579033851624,-0.31048446893692017,-0.4322865605354309,1.4195375442504883,2.0201573371887207
329,18426,18427,-0.15390169620513916,-0.07786089181900024,0.9469584226608276,-28.149293899536133,7.526391506195068,-4.580979824066162,-0.6269686222076416,-0.8579570651054382,-0.3149842321872711,-0.5440753698348999,1.1188929080963135,1.9692672491073608
330,18436,18437,-0.15840797126293182,-0.21402908861637115,0.92850661277771,-34.36684036254883,13.857900619506836,-2.5916528701782227,-0.6284685730934143,-0.8534573316574097,-0.31048446893692017,-0.646780788898468,0.7241868376731873,1.9281861782073975
331,18446,18447,-0.03521338105201721,-0.03192824870347977,0.9750077128410339,-37.660221099853516,15.6565523147583,-0.1343601644039154,-0.6119694113731384,-0.8549572229385376,-0.3119843900203705,-0.8253263235092163,0.3963248133659363,1.9167797565460205
332,18456,18457,-0.22839418053627014,0.02548595331609249,0.9828711748123169,-41.67441940307617,10.447771072387695,3.506798505783081,-0.6149692535400391,-0.8429578542709351,-0.3029848337173462,-0.8672499060630798,-0.060186777263879776,1.9456723928451538
333,18466,18467,-0.3849152624607086,-0.050327613949775696,1.0134068727493286,-39.6192626953125,1.4324846267700195,4.774724006652832,-0.616469144821167,-0.8564571738243103,-0.30748462677001953,-0.8721956610679626,-0.30759817361831665,2.003502368927002
334,18476,18477,-1.2113981246948242,-0.49442464113235474,1.0367133617401123,-31.3690242767334,-7.871377944946289,5.5215678215026855,-0.6254687309265137,-0.8534573316574097,-0.31048446893692017,-0.9372743368148804,-0.6109061241149902,2.051469087600708
335,18486,18487,-0.7515503168106079,-0.7270117402076721,1.0204468965530396,-21.21265983581543,-14.822667121887207,5.348844528198242,-0.6179690957069397,-0.851957380771637,-0.29998499155044556,-0.7855545878410339,-0.8955717086791992,2.11067533493042
336,18496,18497,-0.16344740986824036,-0.07261479645967484,0.9979987144470215,-9.858287811279297,-22.105506896972656,4.659709930419922,-0.616469144821167,-0.8324583768844604,-0.3044847846031189,-0.592404842376709,-0.9375113844871521,2.1722638607025146
337,18506,18507,-0.24519500136375427,0.06445915251970291,0.9735207557678223,3.8696300983428955,-25.7508602142334,5.146279811859131,-0.6104694604873657,-0.844457745552063,-0.31048446893692017,-0.2434212565422058,-0.9118578433990479,2.228919267654419
338,18516,18517,-0.5129320025444031,-0.3379090130329132,1.0063767433166504,13.107596397399902,-24.011940002441406,6.284799098968506,-0.6209689378738403,-0.8489575386047363,-0.3059847056865692,0.03175586089491844,-0.7773557901382446,2.2932114601135254
339,18526,18527,-0.2312592715024948,-0.24218283593654633,0.9717543721199036,18.396869659423828,-18.62826156616211,6.998236179351807,-0.623968780040741,-0.851957380771637,-0.31798410415649414,0.1730378419160843,-0.6035416722297668,2.3661341667175293
340,18536,18537,-0.22054684162139893,-0.11267080157995224,1.0106459856033325,17.393877029418945,-10.065032958984375,7.23857307434082,-0.6254687309265137,-0.8594570159912109,-0.31048446893692017,0.318274587392807,-0.4870571196079254,2.4366087913513184
341,18546,18547,-0.1481439620256424,-0.08050137013196945,1.037692904472351,14.596668243408203,-0.21912166476249695,5.57130241394043,-0.616469144821167,-0.8594570159912109,-0.3164841830730438,0.31668272614479065,-0.2574027478694916,2.506986379623413
342,18556,18557,-0.06693315505981445,0.08585598319768906,0.9548603296279907,9.611483573913574,9.56973934173584,4.613462448120117,-0.616469144821167,-0.8534573316574097,-0.3134843111038208,0.23669570684432983,-0.10839007049798965,2.5590462684631348
343,18566,18567,-0.33732759952545166,-0.2036404013633728,1.0354012250900269,-1.8855791091918945,10.289253234863281,3.5240700244903564,-0.6119694113731384,-0.8579570651054382,-0.3119843900203705,0.06870615482330322,-0.25059977173805237,2.604846715927124
344,18576,18577,-0.5627115368843079,-0.1580258458852768,0.9383256435394287,-11.723626136779785,8.710851669311523,2.0128233432769775,-0.6074696183204651,-0.8654567003250122,-0.31048446893692017,0.06758251041173935,-0.40637218952178955,2.624525547027588
345,18586,18587,-0.5729702711105347,-0.08054832369089127,0.9834216833114624,-19.190021514892578,6.088905334472656,0.7859705686569214,-0.6104694604873657,-0.8474575877189636,-0.3164841830730438,-0.031043218448758125,-0.6223962903022766,2.641317367553711
346,18596,18597,-0.27770107984542847,-0.10922602564096451,0.9136929512023926,-26.500669479370117,-0.15605667233467102,-1.2870736122131348,-0.6089695692062378,-0.851957380771637,-0.3029848337173462,-0.047352179884910583,-0.8154218792915344,2.6355156898498535
347,18606,18607,-0.19977785646915436,0.08483802527189255,0.9668402671813965,-24.821184158325195,-5.51830530166626,-2.1016361713409424,-0.6089695692062378,-0.851957380771637,-0.31798410415649414,0.028232941403985023,-1.1805894374847412,2.613579511642456
348,18616,18617,-0.07314664125442505,0.07019630074501038,0.9398687481880188,-15.255295753479004,-13.669413566589355,-3.4395384788513184,-0.6029698252677917,-0.8549572229385376,-0.30898454785346985,0.07791880518198013,-1.2041829824447632,2.588002920150757
349,18626,18627,-0.49045297503471375,-0.30305948853492737,0.9828702211380005,-4.55792236328125,-15.829254150390625,-4.292909145355225,-0.6179690957069397,-0.8489575386047363,-0.3119843900203705,0.27483677864074707,-1.2663332223892212,2.5491535663604736
350,18636,18637,-0.1674870252609253,-0.04537220299243927,0.9654502272605896,6.27767276763916,-6.566202640533447,-4.871862411499023,-0.6014699339866638,-0.8414579033851624,-0.30748462677001953,0.2569906413555145,-1.1677939891815186,2.519672155380249
351,18646,18647,-0.1456424444913864,-0.19018201529979706,1.0188984870910645,16.628877639770508,0.2740209400653839,-5.414615154266357,-0.6044697761535645,-0.8534573316574097,-0.3014849126338959,0.298570841550827,-0.9807552695274353,2.458613872528076
352,18656,18657,-0.537831723690033,-0.2381485551595688,1.0772814750671387,25.22390365600586,4.442241191864014,-7.684525012969971,-0.6104694604873657,-0.8654567003250122,-0.3164841830730438,0.25941869616508484,-0.766399085521698,2.3922340869903564
353,18666,18667,-0.200641930103302,-0.0026908519212156534,1.0195459127426147,28.278112411499023,3.038058280944824,-8.95556640625,-0.6044697761535645,-0.8654567003250122,-0.3134843111038208,0.20171800255775452,-0.5470317006111145,2.3142788410186768
354,18676,18677,-0.43020063638687134,0.06870386004447937,0.9598506093025208,27.430580139160156,2.9380171298980713,-8.51186466217041,-0.6074696183204651,-0.8684565424919128,-0.3134843111038208,0.17014890909194946,-0.17351962625980377,2.2159464359283447
355,18686,18687,-0.3106841742992401,-0.1381191611289978,1.0314348936080933,21.88224220275879,4.932158470153809,-5.774811744689941,-0.6089695692062378,-0.8699564933776855,-0.3119843900203705,0.11863592267036438,-0.08211707323789597,2.1611599922180176
356,18696,18697,-0.329336553812027,-0.1653471291065216,0.984663188457489,10.556422233581543,1.3873399496078491,-4.634538650512695,-0.6149692535400391,-0.8639568090438843,-0.3029848337173462,0.2311873733997345,0.14662791788578033,2.0779340267181396
357,18706,18707,-0.12817886471748352,-0.1596015840768814,0.9914811849594116,-3.3026556968688965,-4.927754878997803,-3.689610242843628,-0.5999699831008911,-0.8549572229385376,-0.31798410415649414,0.2887493371963501,0.09570404142141342,2.0383658409118652
358,18716,18717,-0.2778325080871582,-0.0864979699254036,0.9831945300102234,-19.63196563720703,-8.952828407287598,-2.615812301635742,-0.5924703478813171,-0.8654567003250122,-0.3044847846031189,0.28926900029182434,-0.13969695568084717,2.0341544151306152
359,18726,18727,-0.14848388731479645,-0.06988346576690674,0.9879659414291382,-28.343782424926758,-8.88020133972168,-3.072087049484253,-0.6044697761535645,-0.8594570159912109,-0.3014849126338959,0.382112979888916,-0.4837111532688141,2.0175161361694336
360,18736,18737,-0.4347204566001892,-0.049921683967113495,1.0093570947647095,-30.8082332611084,-3.792904853820801,-3.1964731216430664,-0.6029698252677917,-0.8579570651054382,-0.30898454785346985,0.4678744971752167,-0.7618353366851807,1.9792156219482422
361,18746,18747,-0.4739103615283966,-0.3631785809993744,0.9893702864646912,-20.835264205932617,-0.8021426796913147,-3.568243980407715,-0.5984700918197632,-0.850457489490509,-0.3134843111038208,0.4994924068450928,-1.0220874547958374,1.9429703950881958
362,18756,18757,-0.6430550813674927,-0.08133962005376816,0.9863662719726562,-7.843488693237305,0.9400222301483154,-2.92037296295166,-0.6059696674346924,-0.8609569072723389,-0.3029848337173462,0.5047791600227356,-1.227299451828003,1.9181095361709595
363,18766,18767,-0.21605437994003296,-0.000749391270801425,1.0227609872817993,7.791670322418213,0.22396455705165863,-2.8819398880004883,-0.6089695692062378,-0.8489575386047363,-0.31798410415649414,0.5033854842185974,-1.1089262962341309,1.874456524848938
364,18776,18777,-0.31247779726982117,-0.2566615045070648,1.0404719114303589,22.332609176635742,-0.333769828081131,-2.986478090286255,-0.616469144821167,-0.8564571738243103,-0.31048446893692017,0.5190054178237915,-0.8251709938049316,1.8265199661254883
365,18786,18787,-0.7443561553955078,-0.5160898566246033,1.0080931186676025,31.6679744720459,2.4267349243164062,-1.996198058128357,-0.6209689378738403,-0.8609569072723389,-0.32698363065719604,0.43643197417259216,-0.4895348846912384,1.8076611757278442
366,18796,18797,-0.24342502653598785,-0.12123759090900421,0.9797651171684265,32.45825958251953,5.986196517944336,-2.8871967792510986,-0.6089695692062378,-0.8609569072723389,-0.3149842321872711,0.3653098940849304,-0.03596333786845207,1.7719495296478271
367,18806,18807,-0.5290208458900452,-0.010888670571148396,1.0416538715362549,28.548519134521484,2.81978702545166,-4.131961822509766,-0.6119694113731384,-0.8639568090438843,-0.3119843900203705,0.31635215878486633,0.23777709901332855,1.7415825128555298
368,18816,18817,-0.7084509134292603,-0.6057850122451782,1.029633641242981,21.246789932250977,-3.990921974182129,-3.3083901405334473,-0.6149692535400391,-0.8549572229385376,-0.3149842321872711,0.3584614098072052,0.2747785449028015,1.7300255298614502
369,18826,18827,-0.269598126411438,-0.19629710912704468,1.043200969696045,11.62838077545166,-11.213623046875,-3.534174919128418,-0.6089695692062378,-0.8669566512107849,-0.30898454785346985,0.5062273144721985,0.3920648694038391,1.6937906742095947
370,18836,18837,-0.0727056935429573,-0.04949219897389412,0.9955803751945496,-2.954735279083252,-13.849228858947754,-3.4676921367645264,-0.6074696183204651,-0.8624568581581116,-0.3134843111038208,0.7215344309806824,0.44259896874427795,1.643419861793518
371,18846,18847,-0.08323701471090317,-0.00181665422860533,0.9866816997528076,-17.913631439208984,-12.036463737487793,-3.8029422760009766,-0.5999699831008911,-0.8639568090438843,-0.3119843900203705,0.8448671698570251,0.2378903031349182,1.619787573814392
372,18856,18857,-0.04761701822280884,-0.0359710156917572,0.9642226696014404,-29.98219871520996,-4.2322187423706055,-4.106324195861816,-0.616469144821167,-0.844457745552063,-0.3134843111038208,0.9544946551322937,-0.11402600258588791,1.5952478647232056
373,18866,18867,-0.6316766142845154,-0.08286529779434204,0.9866096377372742,-31.179494857788086,2.9509880542755127,-4.760477542877197,-0.5939702987670898,-0.8579570651054382,-0.29998499155044556,0.7931860089302063,-0.3983823359012604,1.5578092336654663
374,18876,18877,-0.6287091374397278,-0.12071164697408676,1.0136122703552246,-18.399131774902344,9.476927757263184,-4.016568183898926,-0.5999699831008911,-0.8489575386047363,-0.30898454785346985,0.673760175704956,-0.6901740431785583,1.5260597467422485
375,18886,18887,-0.2365795224905014,-0.2155478149652481,1.0434614419937134,-2.979665517807007,13.422910690307617,-3.2806265354156494,-0.6134693026542664,-0.8414579033851624,-0.30748462677001953,0.5595754384994507,-0.7883866429328918,1.4880797863006592
376,18896,18897,-0.5365382432937622,-0.4409058094024658,1.0248701572418213,13.626795768737793,14.454310417175293,-1.49641752243042,-0.6029698252677917,-0.8549572229385376,-0.29998499155044556,0.49331578612327576,-0.6249857544898987,1.4392935037612915
377,18906,18907,-0.21503211557865143,-0.06466348469257355,1.0159170627593994,26.008398056030273,20.7307186126709,-0.5938908457756042,-0.6269686222076416,-0.8489575386047363,-0.31798410415649414,0.20642684400081635,-0.25098323822021484,1.4103543758392334
378,18916,18917,-0.3343915343284607,-0.1766049563884735,0.9814097285270691,34.171966552734375,21.134119033813477,-0.011467237956821918,-0.616469144821167,-0.8594570159912109,-0.31948402523994446,-0.05888928845524788,0.1943349987268448,1.3911081552505493
379,18926,18927,-0.48669296503067017,-0.46968433260917664,1.0461348295211792,35.470340728759766,12.529324531555176,1.6149661540985107,-0.6194689869880676,-0.8654567003250122,-0.3224838674068451,-0.16328197717666626,0.635730504989624,1.37955904006958
380,18936,18937,-0.3758144676685333,-0.5378468036651611,1.0257670879364014,28.935243606567383,-0.1532984972000122,3.108017921447754,-0.6269686222076416,-0.8639568090438843,-0.30898454785346985,-0.14667466282844543,0.8017673492431641,1.424842119216919
381,18946,18947,-0.5588449239730835,-0.28366246819496155,0.9685185551643372,13.876397132873535,-10.245939254760742,2.69861102104187,-0.6104694604873657,-0.8684565424919128,-0.30748462677001953,-0.012978116050362587,0.9673953652381897,1.4563442468643188
382,18956,18957,-0.6085211634635925,-0.13138747215270996,0.940698504447937,-9.479220390319824,-15.131257057189941,2.4384593963623047,-0.616469144821167,-0.8624568581581116,-0.30748462677001953,0.1969895213842392,0.9451627135276794,1.4758214950561523
383,18966,18967,-0.5997623801231384,-0.24190577864646912,1.0005085468292236,-27.033527374267578,-14.651622772216797,1.6530430316925049,-0.6044697761535645,-0.8654567003250122,-0.3164841830730438,0.3611524701118469,0.599096417427063,1.509897232055664
384,18976,18977,-0.17771783471107483,0.004880121909081936,1.0146534442901611,-36.231204986572266,-10.565642356872559,0.4254697561264038,-0.6059696674346924,-0.8669566512107849,-0.31798410415649414,0.40967997908592224,0.06376864016056061,1.5464088916778564
385,18986,18987,-0.22998328506946564,0.021142950281500816,1.0176842212677002,-33.23494338989258,-2.634448766708374,-0.6308520436286926,-0.6119694113731384,-0.8609569072723389,-0.3119843900203705,0.4880531132221222,-0.14045022428035736,1.5252752304077148
386,18996,18997,-0.5797504186630249,-0.3278510570526123,1.017269253730774,-22.399730682373047,6.8887834548950195,-0.5030882358551025,-0.6014699339866638,-0.850457489490509,-0.30748462677001953,0.2842339277267456,-0.4786565899848938,1.5283621549606323
387,19006,19007,-0.4575914144515991,-0.2494615614414215,1.012699007987976,-7.792768478393555,14.034786224365234,-0.489336222410202,-0.6044697761535645,-0.8564571738243103,-0.3014849126338959,0.23879438638687134,-0.5223698616027832,1.5109813213348389
388,19016,19017,-0.27577075362205505,-0.011974602937698364,1.029194712638855,10.781954765319824,16.947057723999023,-0.29923495650291443,-0.6149692535400391,-0.8699564933776855,-0.3029848337173462,0.02914884127676487,-0.45044001936912537,1.4977686405181885
389,19026,19027,-0.16520874202251434,-0.10559884458780289,1.0002377033233643,23.728498458862305,14.854353904724121,0.3641839027404785,-0.6119694113731384,-0.8729563355445862,-0.3209839463233948,-0.1686708778142929,-0.26021862030029297,1.4944655895233154
390,19036,19037,-0.09169327467679977,-0.0982983261346817,1.0387399196624756,30.313081741333008,7.125092506408691,0.2143278419971466,-0.622468888759613,-0.8744562864303589,-0.3134843111038208,-0.18025919795036316,0.13899420201778412,1.484513521194458
391,19046,19047,-0.06438985466957092,-0.04295920580625534,1.0037541389465332,26.857759475708008,-1.676511526107788,0.8059991002082825,-0.6209689378738403,-0.8789560198783875,-0.3239837884902954,-0.19233420491218567,0.40191900730133057,1.4922065734863281
392,19056,19057,-0.4501053988933563,-0.15795156359672546,1.0256654024124146,14.663531303405762,-8.442059516906738,1.4710569381713867,-0.6119694113731384,-0.8639568090438843,-0.31798410415649414,-0.21614210307598114,0.5810588598251343,1.508848786354065
393,19066,19067,-0.30920499563217163,-0.1312527060508728,1.0474711656570435,1.948315978050232,-14.014581680297852,1.2001651525497437,-0.622468888759613,-0.8654567003250122,-0.30748462677001953,-0.003126549068838358,0.6947207450866699,1.5182257890701294
394,19076,19077,-1.2666651010513306,-0.15636299550533295,0.9837946891784668,-7.574931621551514,-20.488157272338867,0.2972027063369751,-0.5999699831008911,-0.8549572229385376,-0.32998350262641907,0.2357957810163498,0.5472279787063599,1.530268907546997
395,19086,19087,-0.8246856927871704,-0.1388527750968933,0.9661033749580383,-14.525765419006348,-19.91265106201172,0.006346649955958128,-0.6089695692062378,-0.8549572229385376,-0.31798410415649414,0.492254376411438,0.35377779603004456,1.5360710620880127
396,19096,19097,-0.1149788498878479,0.01335320994257927,0.9946175217628479,-13.218132972717285,-12.291916847229004,-0.32198330760002136,-0.6089695692062378,-0.8549572229385376,-0.31798410415649414,0.6637038588523865,0.2099948525428772,1.5313401222229004
397,19106,19107,-0.12621337175369263,0.004107090178877115,1.0428030490875244,-9.128576278686523,0.8431767225265503,0.2949534058570862,-0.6089695692062378,-0.8549572229385376,-0.31798410415649414,0.6566705703735352,0.05279065668582916,1.5326201915740967
398,19116,19117,-0.21246439218521118,-0.15926750004291534,1.0138248205184937,-3.8191678524017334,13.744192123413086,1.6199700832366943,-0.6179690957069397,-0.8399580121040344,-0.2939853072166443,0.5020228028297424,0.04682859778404236,1.5372706651687622
399,19126,19127,-0.1209288090467453,-0.10755756497383118,1.0067788362503052,1.8210893869400024,23.30364418029785,3.124901056289673,-0.616469144821167,-0.8624568581581116,-0.3044847846031189,0.2285323590040207,0.06363977491855621,1.5601534843444824
400,19136,19137,-0.5531747937202454,-0.25262483954429626,1.0252009630203247,2.893460988998413,27.93533706665039,4.5929975509643555,-0.6089695692062378,-0.8609569072723389,-0.30898454785346985,-0.08040999621152878,0.12003858387470245,1.5959125757217407
401,19146,19147,-0.6679954528808594,-0.1628100574016571,0.9195857644081116,-0.18172171711921692,24.519115447998047,5.2410759925842285,-0.6179690957069397,-0.8489575386047363,-0.3119843900203705,-0.509189784526825,0.1409548670053482,1.6424522399902344
402,19156,19157,-0.7202360033988953,-0.5383683443069458,1.0003852844238281,2.265974283218384,14.669181823730469,5.091211795806885,-0.6179690957069397,-0.8579570651054382,-0.31798410415649414,-0.5771992206573486,0.1652514487504959,1.6974331140518188
403,19166,19167,-0.6810120344161987,-0.3627406656742096,1.017337441444397,4.769261837005615,5.918610572814941,4.288390159606934,-0.616469144821167,-0.8564571738243103,-0.3224838674068451,-0.6387679576873779,0.1690477877855301,1.746117353439331
404,19176,19177,-0.16632160544395447,0.028206758201122284,1.0014698505401611,3.7674965858459473,-2.4171693325042725,4.130680561065674,-0.6179690957069397,-0.8549572229385376,-0.30898454785346985,-0.6287949681282043,0.24859555065631866,1.7885292768478394
405,19186,19187,-0.21927747130393982,0.041143327951431274,1.0503573417663574,3.817638635635376,-7.286670684814453,5.7189860343933105,-0.6194689869880676,-0.8624568581581116,-0.3134843111038208,-0.38596203923225403,0.3137659728527069,1.8421179056167603
406,19196,19197,-0.39304763078689575,-0.0030362035613507032,1.0617220401763916,2.7534537315368652,-10.881673812866211,6.963358402252197,-0.6179690957069397,-0.8669566512107849,-0.30898454785346985,-0.3780357241630554,0.2995578944683075,1.9044816493988037
407,19206,19207,-0.9807104468345642,-0.0016177392099052668,1.0862078666687012,6.470058441162109,-12.032639503479004,7.0076680183410645,-0.6179690957069397,-0.8639568090438843,-0.3119843900203705,-0.18246126174926758,0.17873996496200562,1.977608561515808
408,19216,19217,-0.30489933490753174,-0.18860316276550293,1.0401356220245361,7.585864543914795,-10.26890754699707,6.558248996734619,-0.6119694113731384,-0.8579570651054382,-0.31798410415649414,-0.016471873968839645,0.3202056586742401,2.048755407333374
409,19226,19227,-0.20544672012329102,-0.07318884879350662,1.031966209411621,6.30489444732666,-5.366247653961182,5.580401420593262,-0.6104694604873657,-0.8654567003250122,-0.31048446893692017,0.022281454876065254,0.43759503960609436,2.1071128845214844
410,19236,19237,-0.1016009971499443,0.0009427213226445019,0.9775242805480957,6.2880539894104,1.1599562168121338,4.057085990905762,-0.623968780040741,-0.8609569072723389,-0.3029848337173462,-0.02825693041086197,0.41147464513778687,2.1498191356658936
411,19246,19247,-0.10917477309703827,-0.033137716352939606,1.0197442770004272,3.918628454208374,6.374123573303223,2.73063588142395,-0.6104694604873657,-0.8564571738243103,-0.3224838674068451,-0.09141498804092407,0.5145990252494812,2.1862645149230957
412,19256,19257,-0.49033066630363464,-0.2179187685251236,0.9885159134864807,-3.7693605422973633,9.397645950317383,1.539146065711975,-0.6029698252677917,-0.8639568090438843,-0.3209839463233948,-0.14346083998680115,0.3742552697658539,2.2101614475250244
413,19266,19267,-0.27668386697769165,-0.0854872539639473,0.9693931341171265,-10.653722763061523,7.398783206939697,-0.015771491453051567,-0.6149692535400391,-0.8639568090438843,-0.3059847056865692,-0.2794250547885895,0.335323691368103,2.2148571014404297
414,19276,19277,-0.15054620802402496,-0.011133134365081787,0.9795852899551392,-13.972567558288574,4.897302627563477,-3.0900919437408447,-0.6179690957069397,-0.8459576964378357,-0.29998499155044556,-0.37140676379203796,0.14338380098342896,2.1937663555145264
415,19286,19287,-0.05870794504880905,0.034895848482847214,0.9694991707801819,-12.223350524902344,3.8532462120056152,-4.59164571762085,-0.6104694604873657,-0.8594570159912109,-0.3044847846031189,-0.4269110858440399,0.020070644095540047,2.1508748531341553
416,19296,19297,-0.19161714613437653,-0.01587926223874092,0.9492986798286438,-5.231250762939453,0.12965957820415497,-4.167159080505371,-0.6194689869880676,-0.8534573316574097,-0.31048446893692017,-0.43009763956069946,0.0558537021279335,2.11086368560791
417,19306,19307,-0.25035393238067627,-0.03190436586737633,0.9961584806442261,3.8757057189941406,0.1667301505804062,-4.365355014801025,-0.6194689869880676,-0.8414579033851624,-0.2954852283000946,-0.34474459290504456,0.08046144247055054,2.074939727783203
418,19316,19317,-0.4921387732028961,-0.15752151608467102,0.9775897264480591,7.874846935272217,3.349224805831909,-4.826380729675293,-0.622468888759613,-0.8624568581581116,-0.3044847846031189,-0.38564255833625793,0.19552208483219147,2.0300140380859375
419,19326,19327,-0.2610674202442169,-0.03270195052027702,0.9989521503448486,12.808330535888672,3.4781835079193115,-5.925796985626221,-0.6149692535400391,-0.8549572229385376,-0.3059847056865692,-0.45101839303970337,0.24370607733726501,1.9729392528533936
420,19336,19337,-0.01799798384308815,0.0706062987446785,0.9555086493492126,17.062089920043945,-0.9992405772209167,-5.969837188720703,-0.623968780040741,-0.8579570651054382,-0.30898454785346985,-0.4769836664199829,0.36056235432624817,1.9084652662277222
421,19346,19347,-0.2877734899520874,-0.34139111638069153,0.9964473247528076,21.062885284423828,-4.684350967407227,-4.764498233795166,-0.6299684643745422,-0.8549572229385376,-0.3029848337173462,-0.42078834772109985,0.6248478293418884,1.858066201210022
422,19356,19357,-0.18509459495544434,-0.13839547336101532,0.9803484678268433,21.07111358642578,-5.9262471199035645,-3.620511770248413,-0.6254687309265137,-0.8654567003250122,-0.3134843111038208,-0.3218780755996704,0.9086205363273621,1.8217116594314575
423,19366,19367,-0.0926775261759758,-0.01740424707531929,0.9658604860305786,15.57045841217041,-5.495059490203857,-2.0912997722625732,-0.6134693026542664,-0.8684565424919128,-0.3044847846031189,-0.22498145699501038,1.060607671737671,1.7920105457305908
424,19376,19377,-0.09846049547195435,0.04176663979887962,1.0375604629516602,6.9617204666137695,-6.819580078125,-0.509055495262146,-0.6179690957069397,-0.8579570651054382,-0.3029848337173462,-0.13170349597930908,1.0136618614196777,1.7711217403411865
425,19386,19387,-0.11722235381603241,0.08855234086513519,1.029000997543335,-10.85672378540039,-3.527050733566284,1.6495393514633179,-0.616469144821167,-0.8624568581581116,-0.31948402523994446,-0.048311855643987656,0.9579704999923706,1.7815302610397339
426,19396,19397,-0.21000370383262634,-0.03423866629600525,0.983854353427887,-24.505935668945312,0.3432714343070984,2.903449773788452,-0.6149692535400391,-0.851957380771637,-0.31798410415649414,-0.034519780427217484,0.7137835621833801,1.8036878108978271
427,19406,19407,-0.25629398226737976,0.026700852438807487,0.9438731074333191,-32.16120529174805,3.36788272857666,2.975088357925415,-0.6089695692062378,-0.8609569072723389,-0.3149842321872711,-0.1532214879989624,0.31219595670700073,1.8210898637771606
428,19416,19417,-0.04889386147260666,0.0013890259433537722,0.9693478345870972,-32.71798324584961,7.78373908996582,2.2834105491638184,-0.6194689869880676,-0.8594570159912109,-0.31948402523994446,-0.11062995344400406,0.014362456277012825,1.860427975654602
429,19426,19427,-0.059341464191675186,-0.15357717871665955,0.9601322412490845,-21.25697898864746,7.386568069458008,2.656236171722412,-0.616469144821167,-0.8534573316574097,-0.3044847846031189,-0.304048627614975,-0.1735793650150299,1.876266360282898
430,19436,19437,-0.05787063017487526,-0.0022127358242869377,0.9542518854141235,-4.063214302062988,7.111666202545166,3.1298458576202393,-0.6104694604873657,-0.8474575877189636,-0.3044847846031189,-0.40260574221611023,-0.3186497986316681,1.8998889923095703
431,19446,19447,-0.5964263081550598,-0.43805965781211853,0.9655855894088745,9.167455673217773,4.059638023376465,3.5424203872680664,-0.622468888759613,-0.8474575877189636,-0.3134843111038208,-0.4720269441604614,-0.15175285935401917,1.9394526481628418
432,19456,19457,-0.5363719463348389,-1.2500009536743164,0.9325386881828308,19.460845947265625,3.432283401489258,3.8026487827301025,-0.6254687309265137,-0.850457489490509,-0.3044847846031189,-0.5309008955955505,0.1118827685713768,1.9798779487609863
433,19466,19467,-0.12417350709438324,-0.48436281085014343,0.9292586445808411,20.79231834411621,2.258514642715454,4.508482933044434,-0.6344682574272156,-0.8594570159912109,-0.3044847846031189,-0.5704026818275452,0.1742718666791916,2.0128672122955322
434,19476,19477,-0.054044682532548904,-0.05339104309678078,0.9845755100250244,16.856956481933594,-0.9126694798469543,5.224581718444824,-0.622468888759613,-0.8594570159912109,-0.31048446893692017,-0.5737665295600891,0.4115307331085205,2.0682754516601562
435,19486,19487,-0.23674865067005157,-0.02948116324841976,0.9380168318748474,6.736022472381592,-1.8739091157913208,5.73488187789917,-0.6029698252677917,-0.8639568090438843,-0.3059847056865692,-0.5876710414886475,0.5842900276184082,2.1248950958251953
436,19496,19497,-0.9159443974494934,-0.5928438901901245,1.0031623840332031,1.6213759183883667,-4.555440902709961,5.1647186279296875,-0.6134693026542664,-0.850457489490509,-0.30748462677001953,-0.5211343169212341,0.49841055274009705,2.1717782020568848
437,19506,19507,-0.405563086271286,-0.34141385555267334,1.0150800943374634,-3.3779942989349365,-4.103695392608643,3.7345778942108154,-0.6149692535400391,-0.8639568090438843,-0.2939853072166443,-0.4297530949115753,0.4078225791454315,2.211071729660034
438,19516,19517,-0.15709950029850006,-0.0065402681939303875,0.9666643142700195,-5.8733744621276855,-4.578189849853516,4.206499099731445,-0.6074696183204651,-0.8534573316574097,-0.31048446893692017,-0.3413320481777191,0.27110597491264343,2.24532413482666
439,19526,19527,-0.11864444613456726,-0.08104600012302399,1.0053540468215942,-5.097402095794678,-3.791546106338501,5.022225856781006,-0.6119694113731384,-0.8549572229385376,-0.30898454785346985,-0.2628808319568634,0.3467261493206024,2.302186965942383
440,19536,19537,-0.07957589626312256,-0.03536326810717583,0.9758790135383606,-0.3461703956127167,-1.2565160989761353,6.173776626586914,-0.6029698252677917,-0.8579570651054382,-0.3059847056865692,-0.3651319146156311,0.31790363788604736,2.3527722358703613
441,19546,19547,-0.03138911724090576,0.0225425586104393,0.9897238612174988,4.607028484344482,1.0699734687805176,6.512460231781006,-0.623968780040741,-0.8609569072723389,-0.31798410415649414,-0.36341598629951477,0.37994185090065,2.41926646232605
442,19556,19557,-0.16799095273017883,-0.652443528175354,1.0214824676513672,9.512073516845703,-1.4067890644073486,5.771912097930908,-0.6074696183204651,-0.8714563846588135,-0.31948402523994446,-0.41130807995796204,0.5082886815071106,2.483750820159912
443,19566,19567,-0.4977923631668091,-0.8951192498207092,0.9839792847633362,13.77341365814209,-6.9525322914123535,6.545983791351318,-0.6059696674346924,-0.8639568090438843,-0.32698363065719604,-0.3016730844974518,0.5063704252243042,2.539306879043579
444,19576,19577,-0.24824954569339752,-0.33777669072151184,1.0201070308685303,12.815546989440918,-9.090683937072754,6.8880391120910645,-0.6149692535400391,-0.8729563355445862,-0.32698363065719604,-0.14098060131072998,0.7369728684425354,2.616729259490967
445,19586,19587,-0.03628672659397125,-0.025776943191885948,0.9783164858818054,9.597319602966309,-6.703714847564697,6.934892177581787,-0.6119694113731384,-0.8789560198783875,-0.3209839463233948,-0.07953771203756332,0.7749798893928528,2.679401397705078
446,19596,19597,-0.05613291636109352,-0.0016112865414470434,0.9562634229660034,1.6342687606811523,-0.2592856287956238,5.270028591156006,-0.6104694604873657,-0.8744562864303589,-0.3134843111038208,-0.14483642578125,0.8596742749214172,2.740795373916626
447,19606,19607,-0.1179622933268547,0.039933059364557266,1.0024669170379639,-6.05908727645874,4.621324062347412,3.4390759468078613,-0.616469144821167,-0.8624568581581116,-0.31948402523994446,-0.16024841368198395,0.8071534633636475,2.78427791595459
448,19616,19617,-0.43489518761634827,-0.30992957949638367,1.0131925344467163,-11.803044319152832,5.253291606903076,1.1543289422988892,-0.5999699831008911,-0.8699564933776855,-0.31798410415649414,-0.21025583148002625,0.7187402248382568,2.807504892349243
449,19626,19627,-0.6916390657424927,-0.3835722506046295,0.9683071970939636,-12.968941688537598,3.389799118041992,-0.8225154876708984,-0.6194689869880676,-0.8684565424919128,-0.3014849126338959,-0.2540096640586853,0.5102968811988831,2.803628921508789
450,19636,19637,-0.739346444606781,-0.6131100654602051,1.0418627262115479,-8.806476593017578,0.43159928917884827,-0.794115424156189,-0.6044697761535645,-0.8684565424919128,-0.3164841830730438,-0.2564728856086731,0.3547838032245636,2.793001890182495
451,19646,19647,-1.2992455959320068,-0.9398561716079712,1.021005392074585,0.21379117667675018,-5.905543327331543,0.6192989945411682,-0.6029698252677917,-0.8699564933776855,-0.31798410415649414,-0.1897958368062973,0.3128867745399475,2.797070026397705
452,19656,19657,-1.0598212480545044,-1.0678327083587646,0.991422712802887,12.091537475585938,-13.35641098022461,0.9873921871185303,-0.6074696183204651,-0.8714563846588135,-0.3014849126338959,0.008047942072153091,0.45524707436561584,2.8150501251220703
453,19666,19667,-0.5563879013061523,-0.39914414286613464,1.0304911136627197,22.466459274291992,-16.572507858276367,1.9461777210235596,-0.6119694113731384,-0.8729563355445862,-0.3239837884902954,0.005487367976456881,0.70484459400177,2.8180885314941406
454,19676,19677,-0.5170256495475769,-0.07371547073125839,0.9893847107887268,29.07640266418457,-15.469788551330566,4.043773174285889,-0.6059696674346924,-0.8699564933776855,-0.3119843900203705,0.1526423692703247,1.0824127197265625,2.8503732681274414
455,19686,19687,-0.35059449076652527,-0.033764518797397614,0.9716194868087769,27.377416610717773,-14.1278715133667,6.008570194244385,-0.6059696674346924,-0.8819558620452881,-0.3209839463233948,0.25758007168769836,1.1859949827194214,2.8919224739074707
456,19696,19697,-0.060904569923877716,-0.1312902271747589,0.9832763075828552,13.373062133789062,-15.596009254455566,7.870842456817627,-0.6119694113731384,-0.8789560198783875,-0.3149842321872711,0.37128278613090515,1.4264272451400757,2.9566972255706787
457,19706,19707,-0.6096901297569275,-0.33125078678131104,1.0250362157821655,-0.9895159006118774,-20.712804794311523,9.441241264343262,-0.5954701900482178,-0.8744562864303589,-0.3224838674068451,0.4380616545677185,1.485509991645813,3.0280940532684326
458,19716,19717,-0.9812741279602051,-0.6906971335411072,1.0176008939743042,-15.315570831298828,-22.064369201660156,9.4966459274292,-0.5939702987670898,-0.8759561777114868,-0.33598318696022034,0.8540491461753845,1.3297019004821777,3.1377956867218018
459,19726,19727,-0.6054402589797974,-0.6338128447532654,1.0203347206115723,-26.450702667236328,-17.629289627075195,10.989620208740234,-0.5924703478813171,-0.8864556550979614,-0.33748310804367065,1.0736511945724487,0.9615921974182129,3.240920305252075
460,19736,19737,-0.7406545281410217,-0.5011091828346252,0.9745326042175293,-31.784290313720703,-5.48098087310791,13.087821006774902,-0.5909704566001892,-0.8699564933776855,-0.32698363065719604,0.8437350988388062,0.7448959350585938,3.3099844455718994
461,19746,19747,-0.684273898601532,-0.17578822374343872,0.966900110244751,-28.727535247802734,8.7997465133667,13.973065376281738,-0.5954701900482178,-0.8594570159912109,-0.31948402523994446,0.8349810242652893,0.387930303812027,3.4515459537506104
462,19756,19757,-0.8308267593383789,-0.18545009195804596,1.0114072561264038,-21.54152488708496,16.71817970275879,12.832110404968262,-0.5879706144332886,-0.8819558620452881,-0.32998350262641907,0.647379994392395,0.2190151810646057,3.577667713165283
463,19766,19767,-0.31421568989753723,-0.26732000708580017,1.01766836643219,-14.038978576660156,18.815492630004883,9.341630935668945,-0.5969701409339905,-0.8939552903175354,-0.3239837884902954,0.3964892327785492,0.014932544901967049,3.683209180831909
464,19776,19777,-0.2194085419178009,-0.3099977374076843,1.0401934385299683,-6.2144036293029785,14.041665077209473,5.632298469543457,-0.5969701409339905,-0.8849557638168335,-0.32698363065719604,0.26032620668411255,-0.13823901116847992,3.764437675476074
465,19786,19787,-0.08093354851007462,-0.03765095770359039,1.0794014930725098,6.437257766723633,5.729957580566406,2.904026746749878,-0.5984700918197632,-0.8744562864303589,-0.3164841830730438,0.17451979219913483,-0.10638753324747086,3.8039796352386475
466,19796,19797,-0.043888531625270844,0.015570429153740406,1.0822482109069824,25.334163665771484,1.8496211767196655,1.747673511505127,-0.5984700918197632,-0.8744562864303589,-0.3224838674068451,0.16922901570796967,0.20506823062896729,3.815629005432129
467,19806,19807,-0.10778717696666718,-0.2030901163816452,1.1296370029449463,37.9552116394043,-0.6859995126724243,2.483487129211426,-0.6029698252677917,-0.8879556059837341,-0.3029848337173462,0.21414408087730408,0.6076430082321167,3.833326578140259
468,19816,19817,-0.6229280829429626,-0.28880777955055237,1.030493140220642,37.633262634277344,-3.6712019443511963,4.3151750564575195,-0.5954701900482178,-0.8774561285972595,-0.33448326587677,0.3066175878047943,1.0105946063995361,3.8691892623901367
469,19826,19827,-0.3435753583908081,-0.11990758776664734,1.0807567834854126,24.28144645690918,-9.735102653503418,5.453856468200684,-0.5954701900482178,-0.8774561285972595,-0.33448326587677,0.33163806796073914,1.404961347579956,3.909623146057129
470,19836,19837,-0.09075193852186203,-0.1052762046456337,1.0540435314178467,5.787186622619629,-16.524534225463867,6.028743267059326,-0.5954701900482178,-0.8774561285972595,-0.33448326587677,0.5418288707733154,1.3766158819198608,3.9857263565063477
471,19846,19847,-0.09244172275066376,0.04150063171982765,1.0189064741134644,-16.16526985168457,-19.944826126098633,6.3740129470825195,-0.5954701900482178,-0.8804559707641602,-0.32848358154296875,0.6805237531661987,1.2201837301254272,4.050540447235107
472,19856,19857,-0.10284744948148727,-0.12373953312635422,1.0238550901412964,-32.198123931884766,-19.704248428344727,4.676845550537109,-0.5909704566001892,-0.8759561777114868,-0.31798410415649414,0.9833433628082275,0.9106397032737732,4.119178295135498
473,19866,19867,-0.10258632153272629,-0.08733487874269485,1.0182055234909058,-43.22553634643555,-19.785734176635742,4.222320079803467,-0.5834708213806152,-0.8744562864303589,-0.3254837095737457,1.3299652338027954,0.45158374309539795,4.181175708770752
474,19876,19877,-0.005732511170208454,0.1535942703485489,1.0202581882476807,-43.64313507080078,-16.792247772216797,1.6137588024139404,-0.5939702987670898,-0.8789560198783875,-0.3239837884902954,1.4329537153244019,-0.13349756598472595,4.2179388999938965
475,19886,19887,-0.2031306028366089,0.09348457306623459,1.0785845518112183,-35.83306884765625,-8.20693588256836,-2.075855255126953,-0.5819708704948425,-0.8699564933776855,-0.32998350262641907,1.225772738456726,-0.3928966522216797,4.16452693939209
476,19896,19897,-0.4060152471065521,-0.3048804998397827,1.0095407962799072,-18.285797119140625,-4.3391804695129395,-5.092119216918945,-0.5744712948799133,-0.850457489490509,-0.3224838674068451,1.3526874780654907,-0.5799828171730042,4.117419242858887
477,19906,19907,-0.33233723044395447,-0.2833831310272217,1.0129313468933105,7.884362697601318,1.9386781454086304,-6.300838947296143,-0.5999699831008911,-0.8549572229385376,-0.3059847056865692,1.3306822776794434,-0.4527781307697296,4.029263496398926
