,timestamp_start,timestamp_end,acc.x,acc.y,acc.z,gyro.x,gyro.y,gyro.z,mag.x,mag.y,mag.z,stabilizer.pitch,stabilizer.roll,stabilizer.yaw
0,796248,796249,-0.12286169081926346,-0.06557895988225937,1.060731053352356,-46.411800384521484,-28.628829956054688,-1.2787725925445557,-0.554972231388092,-0.9149542450904846,-0.33898305892944336,-1.5290286540985107,1.000461459159851,-2.473518133163452
1,796258,796259,-0.06160944700241089,-0.10331235080957413,1.105832815170288,-41.21742248535156,-20.733915328979492,-1.2649904489517212,-0.5339732766151428,-0.9239537715911865,-0.3329833447933197,-1.330245018005371,0.717373251914978,-2.450515031814575
2,796268,796269,-0.05003567412495613,-0.08586425334215164,1.1278040409088135,-33.77132797241211,-7.027828693389893,-2.3879072666168213,-0.5504724383354187,-0.9254537224769592,-0.3524823784828186,-1.1710115671157837,0.307584285736084,-2.4738433361053467
3,796278,796279,-0.09272371232509613,-0.018890034407377243,1.14229416847229,-22.848342895507812,7.100282192230225,-6.165537357330322,-0.5264736413955688,-0.9254537224769592,-0.3404829800128937,-1.388458251953125,0.05752810463309288,-2.5476322174072266
4,796288,796289,-0.2372981309890747,0.10850787162780762,1.1185671091079712,-7.84000825881958,17.1269588470459,-9.157354354858398,-0.5579720735549927,-0.9179540872573853,-0.35698214173316956,-1.488743782043457,0.07713695615530014,-2.5702199935913086
5,796298,796299,-0.7995176315307617,-0.004367666784673929,1.1454389095306396,4.513736724853516,19.5280818939209,-12.400117874145508,-0.5294735431671143,-0.919454038143158,-0.3494825065135956,-1.8181962966918945,0.029773127287626266,-2.708035945892334
6,796308,796309,-0.19509463012218475,0.014604512602090836,1.1371434926986694,11.10010051727295,16.543148040771484,-14.573103904724121,-0.562471866607666,-0.9314534068107605,-0.3434828221797943,-1.840009093284607,0.22054456174373627,-2.7991340160369873
7,796318,796319,-0.002345930552110076,-0.024189729243516922,1.1602526903152466,16.605932235717773,7.602044582366943,-16.59156036376953,-0.5564721822738647,-0.9224538803100586,-0.33748310804367065,-2.0542876720428467,0.3963424563407898,-2.9453868865966797
8,796328,796329,-0.09763184189796448,-0.00578232342377305,1.1452046632766724,18.33702278137207,-1.950399398803711,-16.972810745239258,-0.5489725470542908,-0.9269536137580872,-0.34798258543014526,-2.0952024459838867,0.5627353191375732,-3.1160166263580322
9,796338,796339,-0.13195854425430298,-0.03264903277158737,1.1616266965866089,13.446517944335938,-10.818923950195312,-17.418476104736328,-0.5684715509414673,-0.919454038143158,-0.33448326587677,-1.976671576499939,0.6843516230583191,-3.301482915878296
10,796348,796349,-0.062469303607940674,-0.20632044970989227,1.1231403350830078,7.351215362548828,-18.214414596557617,-16.618412017822266,-0.5744712948799133,-0.9134542942047119,-0.33448326587677,-1.720391035079956,0.7943543195724487,-3.473942518234253
11,796358,796359,-0.09925473481416702,-0.11555753648281097,1.1451209783554077,4.251389980316162,-25.047470092773438,-15.0020751953125,-0.5609719157218933,-0.911954402923584,-0.341982901096344,-1.5015205144882202,0.6942167282104492,-3.682326078414917
12,796368,796369,-0.014739816077053547,-0.03487434983253479,1.1451653242111206,0.39904066920280457,-26.812353134155273,-12.059326171875,-0.5744712948799133,-0.90445476770401,-0.32848358154296875,-1.1415388584136963,0.8373703956604004,-3.789767026901245
13,796378,796379,-0.05015028268098831,-0.008213642053306103,1.1470221281051636,-2.923553466796875,-23.06877326965332,-8.899930953979492,-0.5504724383354187,-0.90445476770401,-0.33448326587677,-1.1628377437591553,0.7578285932540894,-3.9000186920166016
14,796388,796389,-0.7928152680397034,-0.06737880408763885,1.1412568092346191,-6.4095611572265625,-15.66373348236084,-6.030405521392822,-0.5639718174934387,-0.9029548168182373,-0.33898305892944336,-0.8305951356887817,0.6992936730384827,-3.9868712425231934
15,796398,796399,-0.571540355682373,-0.06470302492380142,1.1379276514053345,-8.699047088623047,-6.111554145812988,-3.6889281272888184,-0.5609719157218933,-0.8909554481506348,-0.33598318696022034,-0.6480135321617126,0.6660098433494568,-4.030740261077881
16,796408,796409,-0.5450713038444519,-0.000601934501901269,1.1496977806091309,-9.149421691894531,4.930996417999268,-2.153001308441162,-0.577471137046814,-0.8954551815986633,-0.33448326587677,-0.6396399140357971,0.7440221905708313,-4.026279926300049
17,796418,796419,-0.7819247245788574,-0.10003428161144257,1.139493465423584,-10.543414115905762,13.544939994812012,-0.6133527755737305,-0.56997150182724,-0.8879556059837341,-0.31798410415649414,-0.7939350605010986,0.5714616179466248,-4.047924518585205
18,796428,796429,-0.6529685258865356,-0.02624828927218914,1.1270307302474976,-10.300673484802246,17.243141174316406,0.07994243502616882,-0.5789710283279419,-0.8879556059837341,-0.32998350262641907,-1.0384547710418701,0.5513932704925537,-4.028040409088135
19,796438,796439,-0.03708861395716667,-0.0784585103392601,1.1236701011657715,-11.081404685974121,16.61018180847168,0.8593727350234985,-0.5804709792137146,-0.8744562864303589,-0.3164841830730438,-1.2257272005081177,0.36926907300949097,-4.029823303222656
20,796448,796449,0.0064535667188465595,-0.015916911885142326,1.1093357801437378,-10.716778755187988,8.841300964355469,1.3058563470840454,-0.5804709792137146,-0.8804559707641602,-0.33448326587677,-1.336769700050354,0.19275915622711182,-4.029833793640137
21,796458,796459,-0.0023233985994011164,-0.04364689067006111,1.111861228942871,-7.168460845947266,-2.880957841873169,2.4478819370269775,-0.5819708704948425,-0.8699564933776855,-0.31798410415649414,-1.2734298706054688,0.3215498626232147,-3.9871573448181152
22,796468,796469,-0.02151102013885975,0.007791370153427124,1.081878423690796,-5.425490379333496,-13.637004852294922,3.8665385246276855,-0.5864706635475159,-0.8744562864303589,-0.30748462677001953,-1.3028430938720703,0.3916238248348236,-3.9319441318511963
23,796478,796479,-0.01884213462471962,-0.006230025086551905,1.093271017074585,-4.526034832000732,-22.84443473815918,5.549236297607422,-0.6059696674346924,-0.8609569072723389,-0.30898454785346985,-1.091461181640625,0.3525680601596832,-3.888003349304199
24,796488,796489,-0.15982048213481903,-0.011880525387823582,1.0664288997650146,-6.704136848449707,-31.160030364990234,7.266427516937256,-0.5924703478813171,-0.8654567003250122,-0.31048446893692017,-0.7356084585189819,0.2885079085826874,-3.8326754570007324
25,796498,796499,-0.20845794677734375,-0.05581500753760338,1.090254545211792,-12.257589340209961,-35.79527282714844,7.99070930480957,-0.5564721822738647,-0.8624568581581116,-0.30748462677001953,-0.2888570725917816,0.024910803884267807,-3.7871246337890625
26,796508,796509,-0.3164421319961548,-0.03276569023728371,1.0598747730255127,-18.440536499023438,-35.871986389160156,8.373899459838867,-0.5804709792137146,-0.850457489490509,-0.31048446893692017,0.18709832429885864,-0.23875050246715546,-3.724538564682007
27,796518,796519,-0.25392651557922363,0.12165345996618271,1.0769156217575073,-24.29612159729004,-27.41316032409668,6.996133327484131,-0.5819708704948425,-0.851957380771637,-0.2969851493835449,0.4614481031894684,-0.592449426651001,-3.6461832523345947
28,796528,796529,-0.036740534007549286,-0.09859789907932281,1.0959383249282837,-25.61192512512207,-21.509244918823242,6.62408447265625,-0.5594720244407654,-0.8384580612182617,-0.2954852283000946,0.7408117651939392,-0.3255336284637451,-3.5551655292510986
29,796538,796539,-0.09552311152219772,-0.3266655504703522,1.0647783279418945,-15.931294441223145,-10.620665550231934,4.7803168296813965,-0.5804709792137146,-0.8324583768844604,-0.2954852283000946,0.9090874791145325,-0.583273708820343,-3.500591993331909
30,796548,796549,-0.1100812628865242,-0.24280187487602234,0.9697296023368835,-7.9682488441467285,-1.9174693822860718,7.96693754196167,-0.5834708213806152,-0.8204589486122131,-0.2924853563308716,0.7863313555717468,-0.8836443424224854,-3.397376775741577
31,796558,796559,-0.05694468691945076,-0.09442608803510666,0.9936395883560181,-2.5640902519226074,13.92724609375,6.119353771209717,-0.5789710283279419,-0.8309584259986877,-0.29098543524742126,0.6774144172668457,-0.9159519076347351,-3.3305442333221436
32,796568,796569,-0.0873868390917778,-0.13889119029045105,1.0767121315002441,2.5131030082702637,21.68891716003418,7.660131931304932,-0.5894705057144165,-0.8234587907791138,-0.2834858298301697,0.43000397086143494,-0.8623179793357849,-3.2563765048980713
33,796578,796579,-0.023949170485138893,-0.05736638233065605,1.027570128440857,3.95011830329895,23.327293395996094,6.426333904266357,-0.5864706635475159,-0.8174591064453125,-0.2864856719970703,0.1661495715379715,-0.8844725489616394,-3.178192615509033
34,796588,796589,-0.02261163853108883,0.008213470689952374,1.0011638402938843,0.5272464156150818,26.558378219604492,7.5113677978515625,-0.5864706635475159,-0.8174591064453125,-0.2864856719970703,0.3915783762931824,-1.055087924003601,-3.1935253143310547
35,796598,796599,-0.8665023446083069,-0.029873333871364594,1.0593416690826416,-6.049219131469727,29.990676879882812,5.675647735595703,-0.5864706635475159,-0.8174591064453125,-0.2864856719970703,-0.039770595729351044,-1.226801872253418,-3.0766327381134033
36,796608,796609,-0.8873360753059387,-0.21426531672477722,0.9826539158821106,-5.719623565673828,20.28784942626953,6.616283416748047,-0.5864706635475159,-0.8174591064453125,-0.2864856719970703,-0.9891743063926697,-1.4189624786376953,-2.815246343612671
37,796618,796619,-0.38590383529663086,-0.5171294808387756,1.02932608127594,-7.015571117401123,22.357303619384766,5.009715557098389,-0.6029698252677917,-0.8159592151641846,-0.29098543524742126,-1.0885093212127686,-1.5334421396255493,-2.7851967811584473
38,796628,796629,-0.5404203534126282,-0.15793877840042114,0.9856154918670654,-1.0410600900650024,5.789255619049072,5.866027355194092,-0.5939702987670898,-0.8099594712257385,-0.28798559308052063,-1.3280611038208008,-1.5342614650726318,-2.697486639022827
39,796638,796639,-0.5212109088897705,-0.18071416020393372,1.0364795923233032,2.2547011375427246,-0.3615150451660156,6.497187614440918,-0.5834708213806152,-0.8144592642784119,-0.28048595786094666,-0.7126384377479553,-1.5210201740264893,-2.8229196071624756
40,796648,796649,-0.2813672423362732,-0.1470031887292862,0.9867173433303833,9.00697135925293,-19.781694412231445,7.1942596435546875,-0.6044697761535645,-0.8114594221115112,-0.2924853563308716,1.233694314956665,-2.4555203914642334,-3.2491652965545654
41,796658,796659,-0.09415986388921738,-0.23267214000225067,0.9893048405647278,13.019176483154297,-21.325714111328125,10.878189086914062,-0.5954701900482178,-0.8174591064453125,-0.277486115694046,1.3691483736038208,-2.1724443435668945,-3.135448932647705
42,796668,796669,-0.316195011138916,-0.3585777282714844,1.0133486986160278,23.918685913085938,-22.729440689086914,9.72446346282959,-0.5879706144332886,-0.8189590573310852,-0.27298635244369507,1.550646185874939,-1.7895500659942627,-3.0257413387298584
43,796678,796679,-0.7478139400482178,-0.35282304883003235,1.0147781372070312,33.037010192871094,-8.97121524810791,12.50127124786377,-0.5924703478813171,-0.8084595799446106,-0.2654867172241211,1.5373331308364868,-1.3874986171722412,-2.857457160949707
44,796688,796689,-0.25590911507606506,-0.016505565494298935,0.9996482729911804,40.40467834472656,13.955986022949219,11.774316787719727,-0.5849707126617432,-0.8129593133926392,-0.2759861946105957,1.3723104000091553,-0.7351764440536499,-2.7326838970184326
45,796698,796699,-0.3236866891384125,0.07921253144741058,1.0305513143539429,44.12766647338867,34.062252044677734,11.335905075073242,-0.5984700918197632,-0.7994599938392639,-0.2744862735271454,0.939110279083252,-0.2733526825904846,-2.5453896522521973
46,796708,796709,-0.4610479176044464,-0.14969229698181152,0.9466906785964966,41.48142623901367,49.92789840698242,11.787354469299316,-0.6044697761535645,-0.8024598360061646,-0.27148643136024475,0.1475231796503067,0.4477551579475403,-2.349668502807617
47,796718,796719,-0.8087964653968811,-0.13071715831756592,0.8822454810142517,33.331966400146484,58.813114166259766,10.052334785461426,-0.6179690957069397,-0.8039597868919373,-0.27898603677749634,-0.47306084632873535,0.9776694774627686,-2.237703561782837
48,796728,796729,-1.2186187505722046,-0.03256991133093834,0.9860720634460449,17.103984832763672,57.25701141357422,10.141737937927246,-0.616469144821167,-0.8114594221115112,-0.2834858298301697,-1.3787314891815186,1.383777379989624,-2.046447515487671
49,796738,796739,-0.5230786204338074,-0.10968679189682007,0.8829655647277832,-0.21270038187503815,40.55113220214844,8.673709869384766,-0.6209689378738403,-0.8249587416648865,-0.28798559308052063,-1.9359034299850464,1.0674620866775513,-1.8648483753204346
50,796748,796749,-0.188913494348526,-0.054915715008974075,0.880408525466919,-22.91298484802246,15.87508487701416,7.492056846618652,-0.6044697761535645,-0.8204589486122131,-0.2744862735271454,-2.155207633972168,0.8842728734016418,-1.7891229391098022
51,796758,796759,-0.12429281324148178,-0.017327183857560158,0.9172812104225159,-38.33501434326172,-3.906898260116577,6.088849067687988,-0.6104694604873657,-0.8144592642784119,-0.28048595786094666,-2.258622646331787,0.5862427353858948,-1.7114284038543701
52,796768,796769,0.022641735151410103,-0.16949766874313354,0.8712803721427917,-42.56807327270508,-24.634471893310547,5.966397762298584,-0.5969701409339905,-0.8219588994979858,-0.27898603677749634,-1.9789674282073975,-0.0001968833530554548,-1.6625303030014038
53,796778,796779,-0.09842761605978012,0.11239928752183914,0.9953805804252625,-38.2547492980957,-36.771507263183594,6.052232265472412,-0.6059696674346924,-0.8189590573310852,-0.29098543524742126,-1.7463241815567017,-0.010323566384613514,-1.5872000455856323
54,796788,796789,-0.28893154859542847,-0.06215314567089081,0.9831901788711548,-22.41101837158203,-50.097862243652344,6.944684982299805,-0.6014699339866638,-0.8174591064453125,-0.28048595786094666,-1.215797781944275,-0.33968186378479004,-1.5344504117965698
55,796798,796799,-0.9045913815498352,-0.620755136013031,0.9428820610046387,-5.763819217681885,-45.3322639465332,8.571285247802734,-0.5999699831008911,-0.8099594712257385,-0.29098543524742126,-0.9640116691589355,-0.2763458490371704,-1.4180431365966797
56,796808,796809,-1.3693715333938599,-0.3918846845626831,0.8711356520652771,11.329042434692383,-41.530479431152344,11.111927032470703,-0.6044697761535645,-0.8084595799446106,-0.2834858298301697,-0.47094669938087463,-0.18565918505191803,-1.322506070137024
57,796818,796819,-0.3860943913459778,-0.05454084277153015,0.9097225069999695,27.372255325317383,-29.458114624023438,13.565413475036621,-0.5894705057144165,-0.8144592642784119,-0.2924853563308716,-0.32683345675468445,0.1279410570859909,-1.17093026638031
58,796828,796829,-0.003612492699176073,-0.0020638075657188892,0.884319543838501,33.1707763671875,-18.36240005493164,16.826475143432617,-0.6089695692062378,-0.8159592151641846,-0.29098543524742126,-0.13399139046669006,0.598042905330658,-1.0029032230377197
59,796838,796839,-0.172250434756279,-0.21120819449424744,0.9201240539550781,30.131874084472656,-12.442243576049805,17.434738159179688,-0.5939702987670898,-0.8129593133926392,-0.2759861946105957,0.10986804217100143,0.9429753422737122,-0.8460608124732971
60,796848,796849,-0.8622915148735046,-0.17815905809402466,0.8995590806007385,19.093914031982422,-1.1199010610580444,19.6832218170166,-0.5954701900482178,-0.8354582190513611,-0.2954852283000946,0.043407898396253586,1.1479357481002808,-0.6520630121231079
61,796858,796859,-1.048477053642273,-0.16114206612110138,0.879876971244812,3.4789483547210693,4.458100318908691,20.341222763061523,-0.5924703478813171,-0.8294585347175598,-0.2864856719970703,0.025504743680357933,1.2717097997665405,-0.45161864161491394
62,796868,796869,-0.5517118573188782,-0.289913535118103,0.8025450706481934,-14.360180854797363,11.210354804992676,19.193113327026367,-0.6014699339866638,-0.8234587907791138,-0.2924853563308716,-0.22737592458724976,1.1175578832626343,-0.24257206916809082
63,796878,796879,-0.4019981920719147,-0.09323243051767349,0.8790880441665649,-34.69843292236328,12.062545776367188,18.87718391418457,-0.5879706144332886,-0.8279585838317871,-0.2759861946105957,-0.3682290017604828,0.7133426666259766,-0.049380142241716385
64,796888,796889,-0.08488219231367111,-0.2589462995529175,0.9332615733146667,-48.812984466552734,18.18918228149414,17.14971923828125,-0.5849707126617432,-0.8489575386047363,-0.2969851493835449,-0.5491775274276733,0.2546142637729645,0.13288389146327972
65,796898,796899,-1.027245283126831,-0.7094123959541321,0.9426512122154236,-52.404151916503906,16.675992965698242,15.398862838745117,-0.5804709792137146,-0.8354582190513611,-0.2924853563308716,-0.5994271039962769,-0.12442697584629059,0.2935820519924164
66,796908,796909,-0.5630164742469788,-0.6232643723487854,0.9586279392242432,-43.56866455078125,7.695370674133301,13.137659072875977,-0.5879706144332886,-0.8339582681655884,-0.29998499155044556,-0.7298667430877686,-0.6678870320320129,0.4357880651950836
67,796918,796919,-0.1299089938402176,0.11137063801288605,0.9776837825775146,-30.828107833862305,2.317500591278076,11.7609224319458,-0.5759711861610413,-0.8159592151641846,-0.29098543524742126,-0.889922559261322,-0.6988283395767212,0.5640588998794556
68,796928,796929,-0.5530093908309937,-0.06293390691280365,1.0218286514282227,-12.026200294494629,-9.061051368713379,12.468226432800293,-0.5849707126617432,-0.8279585838317871,-0.28198590874671936,-0.8143614530563354,-1.0064139366149902,0.684755802154541
69,796938,796939,-0.3855440020561218,-0.3899953365325928,0.9954628348350525,0.9188164472579956,-12.548612594604492,13.168359756469727,-0.5864706635475159,-0.8354582190513611,-0.2954852283000946,-0.6955572366714478,-1.1333695650100708,0.8135382533073425
70,796948,796949,-0.1771295666694641,-0.3287314772605896,0.965665340423584,13.25805950164795,-23.984600067138672,15.041895866394043,-0.5789710283279419,-0.836958110332489,-0.29998499155044556,-0.5353958010673523,-0.9151961207389832,0.9676133394241333
71,796958,796959,-0.34119075536727905,-0.4283682107925415,0.9858300685882568,19.927349090576172,-31.552330017089844,15.195121765136719,-0.5804709792137146,-0.8324583768844604,-0.2954852283000946,-0.1103774681687355,-0.7022440433502197,1.112817645072937
72,796968,796969,-0.09175463020801544,-0.06307907402515411,1.0133250951766968,24.497220993041992,-36.1270866394043,16.282913208007812,-0.5609719157218933,-0.8429578542709351,-0.2939853072166443,-0.07466133683919907,-0.39684268832206726,1.301992654800415
73,796978,796979,-0.03421592712402344,-0.0671062096953392,0.9892687201499939,22.37818145751953,-38.508277893066406,17.231077194213867,-0.5789710283279419,-0.851957380771637,-0.3029848337173462,0.4775860011577606,-0.07424277812242508,1.4546231031417847
74,796988,796989,-0.7774370312690735,-0.19080105423927307,1.0022717714309692,12.96534252166748,-34.2889518737793,19.152568817138672,-0.56997150182724,-0.8579570651054382,-0.3059847056865692,0.91615229845047,0.0742504671216011,1.6299734115600586
75,796998,796999,-0.7617512345314026,-0.1851557046175003,1.035688042640686,-6.423011302947998,-27.94769859313965,20.537384033203125,-0.5459727048873901,-0.851957380771637,-0.3029848337173462,1.1819208860397339,-0.01952376589179039,1.834532618522644
76,797008,797009,-0.4989374279975891,-0.07189447432756424,1.018135905265808,-34.70354080200195,-19.26849937438965,20.27925682067871,-0.5654717087745667,-0.8564571738243103,-0.3014849126338959,1.4732882976531982,-0.28794774413108826,2.0392870903015137
77,797018,797019,-0.31912535429000854,-0.12627139687538147,0.9930666089057922,-57.12423324584961,-11.052397727966309,19.250659942626953,-0.5504724383354187,-0.8534573316574097,-0.29848507046699524,1.473037838935852,-0.7121999859809875,2.2485921382904053
78,797028,797029,-0.09180308133363724,-0.0017366665415465832,0.9830209016799927,-72.10010528564453,-2.754908323287964,17.01614761352539,-0.554972231388092,-0.8339582681655884,-0.3029848337173462,1.480843186378479,-1.8044404983520508,2.47470760345459
79,797038,797039,-0.029634956270456314,0.013375991955399513,0.9953107237815857,-72.37439727783203,5.268970012664795,14.639703750610352,-0.5399730205535889,-0.8219588994979858,-0.3029848337173462,1.3562411069869995,-2.6742136478424072,2.6554465293884277
80,797048,797049,-0.022742753848433495,0.015496501699090004,1.0458945035934448,-58.97977066040039,9.741360664367676,12.771003723144531,-0.5459727048873901,-0.8399580121040344,-0.30898454785346985,1.2805904150009155,-3.086947441101074,2.749011754989624
81,797058,797059,-0.07631069421768188,0.06877347081899643,1.022446632385254,-28.262948989868164,9.150842666625977,14.06002426147461,-0.5249737501144409,-0.8189590573310852,-0.29998499155044556,1.2533254623413086,-3.6057748794555664,2.8865458965301514
82,797068,797069,-0.2599930465221405,-0.11807087063789368,1.0331817865371704,7.285821437835693,11.574440956115723,12.272515296936035,-0.5504724383354187,-0.8174591064453125,-0.2864856719970703,1.1201882362365723,-3.2918548583984375,2.9378702640533447
83,797078,797079,-0.14940011501312256,-0.0881417766213417,1.0268045663833618,38.082637786865234,7.178379058837891,12.876148223876953,-0.5639718174934387,-0.8099594712257385,-0.28198590874671936,1.0302878618240356,-2.9310410022735596,3.036752700805664
84,797088,797089,-0.17086192965507507,-0.08977223932743073,1.034077763557434,53.58426284790039,2.8684542179107666,13.887805938720703,-0.562471866607666,-0.8414579033851624,-0.2954852283000946,1.1329172849655151,-2.531947374343872,3.147268056869507
85,797098,797099,-0.34197723865509033,-0.10924740135669708,1.0364230871200562,53.43925094604492,-6.13194465637207,15.628251075744629,-0.5504724383354187,-0.8354582190513611,-0.2954852283000946,1.1987087726593018,-1.8239837884902954,3.248293161392212
86,797108,797109,-0.27132365107536316,-0.10931817442178726,1.0291924476623535,41.73320007324219,-13.683915138244629,15.08675479888916,-0.5564721822738647,-0.8414579033851624,-0.30748462677001953,1.376249074935913,-1.3205668926239014,3.3681163787841797
87,797118,797119,-0.011673713102936745,-0.07845893502235413,0.9622023105621338,23.745946884155273,-19.469175338745117,14.419538497924805,-0.5609719157218933,-0.8399580121040344,-0.3059847056865692,1.584893822669983,-1.2712516784667969,3.5665910243988037
88,797128,797129,-0.08345884829759598,-0.29452401399612427,0.9780844449996948,3.2985074520111084,-20.88271141052246,15.03933334350586,-0.5459727048873901,-0.8489575386047363,-0.2969851493835449,1.872418999671936,-1.2268146276474,3.7158968448638916
89,797138,797139,-0.11564487218856812,-0.029216384515166283,1.0009411573410034,-11.467094421386719,-19.158859252929688,15.95275592803955,-0.5489725470542908,-0.8189590573310852,-0.3059847056865692,2.1197757720947266,-1.3291130065917969,3.8744075298309326
90,797148,797149,-0.041322704404592514,0.13340725004673004,1.0001658201217651,-21.149290084838867,-15.889195442199707,15.50250244140625,-0.5489725470542908,-0.8219588994979858,-0.28798559308052063,2.247771978378296,-1.6226437091827393,4.083460807800293
91,797158,797159,-0.20701788365840912,0.04301375150680542,1.0442347526550293,-28.1005859375,-7.4566121101379395,13.0333251953125,-0.5399730205535889,-0.8189590573310852,-0.29098543524742126,2.431450128555298,-1.9827195405960083,4.234862327575684
92,797168,797169,-0.11727972328662872,-0.016894139349460602,1.007763385772705,-19.122486114501953,2.342804193496704,13.34842586517334,-0.5384730696678162,-0.8204589486122131,-0.28048595786094666,2.4650304317474365,-2.2192227840423584,4.367525577545166
93,797178,797179,-0.10920209437608719,0.13501152396202087,0.993984043598175,-5.624758243560791,20.830738067626953,14.250998497009277,-0.5429728627204895,-0.8039597868919373,-0.3029848337173462,2.250729560852051,-2.2762176990509033,4.503844738006592
94,797188,797189,-0.2151443362236023,0.01942816562950611,0.994676947593689,5.730791091918945,34.849124908447266,13.461325645446777,-0.5609719157218933,-0.8159592151641846,-0.27898603677749634,1.9075690507888794,-2.1836628913879395,4.617825031280518
95,797198,797199,-0.2514064311981201,-0.43762505054473877,0.9802524447441101,17.15777587890625,38.585079193115234,12.349830627441406,-0.5579720735549927,-0.8039597868919373,-0.29998499155044556,1.4934712648391724,-2.064757823944092,4.746023654937744
96,797208,797209,-0.09195302426815033,-0.16059164702892303,0.9866598844528198,23.909225463867188,41.363059997558594,9.487407684326172,-0.5519723892211914,-0.8219588994979858,-0.29098543524742126,1.0741814374923706,-1.8565082550048828,4.837900638580322
97,797218,797219,-0.24155795574188232,0.028383761644363403,0.989254891872406,24.27311134338379,30.943267822265625,7.907857894897461,-0.5654717087745667,-0.8174591064453125,-0.2924853563308716,0.7668539881706238,-1.7924724817276,4.954011917114258
98,797228,797229,-0.5098595023155212,-0.18387727439403534,0.941536545753479,17.74022102355957,16.65351104736328,6.695260047912598,-0.554972231388092,-0.8309584259986877,-0.29098543524742126,0.7128331661224365,-1.4223370552062988,4.907426357269287
99,797238,797239,-0.0880027785897255,-0.06685546785593033,0.9456934928894043,14.533245086669922,4.327371597290039,6.436020851135254,-0.5639718174934387,-0.8219588994979858,-0.29998499155044556,0.7810624241828918,-1.3569514751434326,4.9412384033203125
100,797248,797249,-0.08068747073411942,0.043989866971969604,0.9685747027397156,13.054780960083008,-5.0472798347473145,6.802941799163818,-0.562471866607666,-0.8174591064453125,-0.2954852283000946,0.8076069951057434,-1.2452524900436401,5.008364677429199
101,797258,797259,-0.06569644808769226,-0.05692310258746147,0.9728165864944458,12.376775741577148,-9.163503646850586,6.7823615074157715,-0.5579720735549927,-0.8249587416648865,-0.2969851493835449,0.9340258836746216,-1.1541417837142944,5.067061424255371
102,797268,797269,-0.08532526344060898,0.0333961583673954,0.9785388112068176,16.40283203125,-12.781956672668457,7.89070987701416,-0.5564721822738647,-0.8234587907791138,-0.3014849126338959,1.0549135208129883,-1.0227410793304443,5.14847993850708
103,797278,797279,-0.153363898396492,0.18574783205986023,0.9721400141716003,24.555145263671875,-10.922524452209473,9.378775596618652,-0.5444727540016174,-0.8354582190513611,-0.2954852283000946,1.188733458518982,-0.7790985703468323,5.223936557769775
104,797288,797289,-0.06955662369728088,0.009003427810966969,0.9674767851829529,30.95939826965332,-6.086025714874268,10.459356307983398,-0.5474725961685181,-0.8354582190513611,-0.2924853563308716,1.4132376909255981,-0.6983199715614319,5.341116905212402
105,797298,797299,-0.7927223443984985,-0.08383429050445557,0.9804190397262573,38.66390609741211,1.949710488319397,10.374926567077637,-0.5429728627204895,-0.8399580121040344,-0.3119843900203705,1.497793436050415,-0.2126305252313614,5.394234657287598
106,797308,797309,-0.65300452709198,-0.09502585977315903,1.024036169052124,44.98641586303711,13.118467330932617,12.054482460021973,-0.5519723892211914,-0.8639568090438843,-0.3029848337173462,1.4207260608673096,0.03478672355413437,5.553196430206299
107,797318,797319,-0.3150126039981842,-0.05945618078112602,0.9683871865272522,44.357730865478516,22.483814239501953,12.851219177246094,-0.5519723892211914,-0.8639568090438843,-0.3029848337173462,1.182728886604309,0.5379214286804199,5.676766872406006
108,797328,797329,-0.12928244471549988,-0.1613711416721344,1.0305722951889038,38.87858200073242,31.54119300842285,13.251066207885742,-0.5519723892211914,-0.8639568090438843,-0.3029848337173462,0.8643322587013245,0.9839248657226562,5.813501834869385
109,797338,797339,-0.10219582170248032,-0.0741787999868393,1.0052179098129272,29.80040740966797,42.619937896728516,12.878034591674805,-0.5534723401069641,-0.8474575877189636,-0.3044847846031189,0.5004625916481018,1.186620831489563,5.9846649169921875
110,797348,797349,-0.14808052778244019,0.05458559840917587,0.9788756370544434,17.554412841796875,48.28594207763672,11.82418155670166,-0.5714713931083679,-0.8384580612182617,-0.31048446893692017,0.004198153503239155,1.4972138404846191,6.105501174926758
111,797358,797359,-1.127589464187622,-0.008490367792546749,0.9820749759674072,5.567266941070557,44.88004684448242,12.402207374572754,-0.554972231388092,-0.851957380771637,-0.3149842321872711,-0.4019855260848999,1.4507347345352173,6.269354343414307
112,797368,797369,-0.8584834933280945,-0.20891986787319183,0.991840124130249,-5.651547431945801,39.044273376464844,12.963749885559082,-0.5669716596603394,-0.8579570651054382,-0.30898454785346985,-0.7525323033332825,1.3759816884994507,6.414494514465332
113,797378,797379,-0.232995867729187,-0.03296292945742607,0.9888982176780701,-17.26040267944336,32.89975357055664,14.33144474029541,-0.5684715509414673,-0.850457489490509,-0.3014849126338959,-1.2238929271697998,1.2442766427993774,6.565011024475098
114,797388,797389,-0.32176142930984497,-0.20779839158058167,0.9934664368629456,-24.27614402770996,24.938520431518555,15.157546043395996,-0.5669716596603394,-0.851957380771637,-0.3149842321872711,-1.364288091659546,0.975425124168396,6.726918697357178
115,797398,797399,-0.4936273396015167,-0.40124422311782837,1.005427360534668,-28.28714942932129,19.435789108276367,14.279236793518066,-0.56997150182724,-0.8339582681655884,-0.30898454785346985,-1.5948749780654907,0.6807148456573486,6.878601551055908
116,797408,797409,-0.36418548226356506,-0.060170046985149384,1.0156893730163574,-20.94687271118164,18.315940856933594,12.126432418823242,-0.5639718174934387,-0.8309584259986877,-0.3119843900203705,-1.5723274946212769,0.4312092959880829,7.0222368240356445
117,797418,797419,-0.44166895747184753,0.05687995254993439,1.0371198654174805,-4.688749313354492,12.61703109741211,11.811942100524902,-0.5564721822738647,-0.844457745552063,-0.29848507046699524,-1.7271313667297363,0.3094773292541504,7.143946170806885
118,797428,797429,-0.4467400014400482,0.014132034033536911,1.0152302980422974,10.277081489562988,8.336137771606445,11.496033668518066,-0.5534723401069641,-0.8384580612182617,-0.3014849126338959,-1.7880923748016357,0.4497239589691162,7.268579959869385
119,797438,797439,-0.9860600829124451,-0.035236656665802,0.9824603199958801,20.64747428894043,6.339876174926758,10.244634628295898,-0.5804709792137146,-0.8414579033851624,-0.30748462677001953,-1.9375218152999878,0.648629367351532,7.373866558074951
120,797448,797449,-0.7144646048545837,0.04862459376454353,0.973185658454895,26.186206817626953,4.618268966674805,9.112959861755371,-0.5654717087745667,-0.8474575877189636,-0.3044847846031189,-1.9845811128616333,1.046108365058899,7.486016750335693
121,797458,797459,-0.19443173706531525,-0.0640961229801178,1.0061367750167847,24.77362060546875,-2.199165105819702,5.535906791687012,-0.5744712948799133,-0.850457489490509,-0.3044847846031189,-1.6928517818450928,1.1697890758514404,7.573397159576416
122,797468,797469,-0.2973100244998932,-0.09064069390296936,0.9858770370483398,20.655677795410156,-3.9382779598236084,2.725912094116211,-0.5579720735549927,-0.8459576964378357,-0.30898454785346985,-1.6226669549942017,1.5482516288757324,7.638808250427246
123,797478,797479,-0.1701839119195938,-0.3855442702770233,0.9545323848724365,10.444864273071289,-6.070523738861084,-1.6508032083511353,-0.56997150182724,-0.8609569072723389,-0.30898454785346985,-1.6557224988937378,1.5625929832458496,7.61033821105957
124,797488,797489,-0.18852949142456055,-0.2953910827636719,0.9809349179267883,-2.639800548553467,-4.498414516448975,-6.315737724304199,-0.5609719157218933,-0.8609569072723389,-0.3029848337173462,-1.5362393856048584,1.668023943901062,7.589527130126953
125,797498,797499,-0.04559856653213501,-0.108271025121212,0.9425683617591858,-17.90215301513672,-2.5800976753234863,-13.232240676879883,-0.577471137046814,-0.8564571738243103,-0.30748462677001953,-1.5867832899093628,1.3977819681167603,7.442044734954834
126,797508,797509,-0.28400906920433044,0.06441175192594528,0.9573078155517578,-27.104564666748047,1.2556134462356567,-17.50383186340332,-0.5534723401069641,-0.850457489490509,-0.3134843111038208,-1.5353639125823975,1.0634684562683105,7.268129348754883
127,797518,797519,-0.12486475706100464,0.04490469768643379,0.9468608498573303,-34.968177795410156,11.07086181640625,-23.33216667175293,-0.5534723401069641,-0.8384580612182617,-0.30748462677001953,-1.7594839334487915,0.6594114899635315,7.0157575607299805
128,797528,797529,-0.0964718759059906,0.03061860427260399,0.9798240661621094,-30.897314071655273,18.143417358398438,-26.302579879760742,-0.5594720244407654,-0.8384580612182617,-0.2954852283000946,-1.6901445388793945,0.3257138729095459,6.811918258666992
129,797538,797539,-0.2253311425447464,0.0092063769698143,0.9802737236022949,-18.654943466186523,22.58710479736328,-28.094280242919922,-0.5669716596603394,-0.8459576964378357,-0.3029848337173462,-1.9201996326446533,0.12612855434417725,6.54841423034668
130,797548,797549,-0.24623924493789673,0.03145578131079674,0.9526176452636719,-2.350173234939575,19.105215072631836,-29.971439361572266,-0.5789710283279419,-0.8579570651054382,-0.29998499155044556,-2.2806458473205566,0.026579273864626884,6.226504325866699
131,797558,797559,-0.11513206362724304,-0.003446679562330246,0.9666122198104858,15.873966217041016,15.764060974121094,-30.805131912231445,-0.5729713439941406,-0.8459576964378357,-0.31798410415649414,-2.313322067260742,0.13478578627109528,5.9609503746032715
132,797568,797569,-0.09515103697776794,-0.0009639270137995481,0.9453961849212646,32.63703918457031,7.646778106689453,-31.252683639526367,-0.5654717087745667,-0.8564571738243103,-0.3134843111038208,-2.4597713947296143,0.593127965927124,5.709764003753662
133,797578,797579,-0.1618882417678833,-0.15357902646064758,0.965631365776062,44.13922882080078,-0.3254995048046112,-31.56247901916504,-0.577471137046814,-0.8714563846588135,-0.2954852283000946,-2.4693737030029297,0.9813092350959778,5.402684688568115
134,797588,797589,-0.12476295232772827,-0.010691734030842781,0.9665148854255676,50.59178924560547,-7.692636489868164,-30.099803924560547,-0.5804709792137146,-0.8774561285972595,-0.31048446893692017,-2.4272408485412598,1.5119549036026,5.113236904144287
135,797598,797599,-0.08000738173723221,-0.08393508195877075,0.9186514616012573,48.228553771972656,-15.864076614379883,-27.600114822387695,-0.5789710283279419,-0.8849557638168335,-0.32698363065719604,-2.120100736618042,2.0560359954833984,4.869781494140625
136,797608,797609,-0.2763427197933197,0.0014786847168579698,0.9325670599937439,39.5009651184082,-21.472177505493164,-24.44643211364746,-0.5729713439941406,-0.896955132484436,-0.3209839463233948,-1.930713176727295,2.2146003246307373,4.509810447692871
137,797618,797619,-0.1208861917257309,-0.06752027571201324,0.9532339572906494,23.802894592285156,-23.534008026123047,-20.702655792236328,-0.5654717087745667,-0.8834558129310608,-0.3254837095737457,-1.6663070917129517,2.606340169906616,4.317146301269531
138,797628,797629,-0.05328594893217087,0.009951685555279255,0.9727163314819336,5.249886989593506,-20.61469078063965,-18.07044792175293,-0.577471137046814,-0.8834558129310608,-0.3224838674068451,-1.4905561208724976,2.496119737625122,4.02398157119751
139,797638,797639,-0.10101497918367386,-0.18015900254249573,0.9465382099151611,-15.08895206451416,-13.637742042541504,-14.229161262512207,-0.577471137046814,-0.8954551815986633,-0.31948402523994446,-1.305647850036621,2.381490707397461,3.8403308391571045
140,797648,797649,-0.057723723351955414,-0.05580078810453415,0.9920066595077515,-35.55481719970703,3.2568371295928955,-14.538429260253906,-0.577471137046814,-0.8804559707641602,-0.31948402523994446,-1.4180803298950195,2.0543951988220215,3.63850474357605
141,797658,797659,-0.05464160442352295,0.14409016072750092,0.9851309061050415,-48.83977508544922,26.892587661743164,-15.775426864624023,-0.5669716596603394,-0.8699564933776855,-0.31798410415649414,-1.6975361108779907,1.607957124710083,3.456192970275879
142,797668,797669,-0.21850800514221191,0.047548629343509674,1.0294009447097778,-53.68781280517578,44.94850540161133,-16.130508422851562,-0.562471866607666,-0.8774561285972595,-0.3134843111038208,-2.2945291996002197,0.9982094764709473,3.217299699783325
143,797678,797679,-0.1429697424173355,-0.02732223831117153,1.0369873046875,-43.88674545288086,58.33263397216797,-17.59063720703125,-0.5744712948799133,-0.8744562864303589,-0.30748462677001953,-2.65818452835083,0.5251599550247192,3.111814260482788
144,797688,797689,0.004463259130716324,0.18032383918762207,0.9977049827575684,-29.70722007751465,64.07428741455078,-19.926156997680664,-0.5654717087745667,-0.8654567003250122,-0.30748462677001953,-3.533949851989746,0.39755138754844666,2.946584701538086
145,797698,797699,-0.04252012073993683,0.0481376089155674,1.053060531616211,-12.077497482299805,49.33488464355469,-20.756086349487305,-0.5819708704948425,-0.8549572229385376,-0.31798410415649414,-3.9199259281158447,0.22837701439857483,2.8120200634002686
146,797708,797709,-0.14904014766216278,0.02224843204021454,1.0760166645050049,5.3175859451293945,26.633773803710938,-22.285541534423828,-0.5819708704948425,-0.8579570651054382,-0.3119843900203705,-4.358853816986084,0.2716444134712219,2.61543869972229
147,797718,797719,-0.22631575167179108,-0.07212627679109573,1.0983731746673584,16.29325294494629,0.4431612491607666,-20.702781677246094,-0.5924703478813171,-0.8684565424919128,-0.3164841830730438,-4.314405918121338,0.46651965379714966,2.48218035697937
148,797728,797729,-0.07904104143381119,-0.05204449221491814,1.066986083984375,19.497770309448242,-22.24761390686035,-22.649160385131836,-0.5969701409339905,-0.8729563355445862,-0.3149842321872711,-4.0099406242370605,0.6937369108200073,2.324249744415283
149,797738,797739,-0.11156459897756577,0.004853980150073767,1.145033836364746,13.453085899353027,-31.267183303833008,-22.30946922302246,-0.5999699831008911,-0.8729563355445862,-0.3149842321872711,-3.624211311340332,0.8673885464668274,2.1319520473480225
150,797748,797749,0.0506686307489872,-0.016199834644794464,1.068405032157898,11.786120414733887,-41.438819885253906,-21.754850387573242,-0.5834708213806152,-0.8654567003250122,-0.3164841830730438,-3.407466173171997,0.9334535002708435,1.8453134298324585
151,797758,797759,-0.22248509526252747,-0.3916350305080414,1.0982624292373657,3.4683499336242676,-34.05851745605469,-21.106582641601562,-0.5879706144332886,-0.8699564933776855,-0.3119843900203705,-2.983534574508667,0.9547857046127319,1.6171302795410156
152,797768,797769,-0.09747404605150223,-0.2143571972846985,1.016844391822815,3.7860300540924072,-36.30198287963867,-20.372541427612305,-0.5789710283279419,-0.8669566512107849,-0.3209839463233948,-2.4796741008758545,0.9940667152404785,1.4428819417953491
153,797778,797779,-0.2797197103500366,-0.25050708651542664,1.0133731365203857,-1.385247826576233,-23.157390594482422,-17.430809020996094,-0.5954701900482178,-0.8654567003250122,-0.31048446893692017,-2.355968475341797,0.9984298348426819,1.2212589979171753
154,797788,797789,-0.32565581798553467,-0.04640032351016998,1.088153600692749,0.4130297005176544,-6.962913990020752,-20.10073471069336,-0.5909704566001892,-0.8459576964378357,-0.29998499155044556,-2.2440078258514404,0.9795984029769897,1.0203135013580322
155,797798,797799,-0.09444215893745422,0.07370195537805557,1.0757721662521362,-1.5193724632263184,2.551666259765625,-21.629610061645508,-0.5969701409339905,-0.8459576964378357,-0.30898454785346985,-2.321913003921509,0.9470757842063904,0.7879728078842163
156,797808,797809,-0.034203823655843735,-0.024080537259578705,1.073405385017395,-5.1521220207214355,10.58452320098877,-24.71070098876953,-0.6014699339866638,-0.8384580612182617,-0.30748462677001953,-2.4085991382598877,0.8820235729217529,0.5441873669624329
157,797818,797819,-0.035606712102890015,0.06472441554069519,1.0174142122268677,-5.148536682128906,10.460488319396973,-27.25722885131836,-0.5969701409339905,-0.836958110332489,-0.2939853072166443,-2.4547290802001953,0.7858777046203613,0.27482160925865173
158,797828,797829,-0.09375067055225372,-0.16758008301258087,1.0025743246078491,-10.929844856262207,9.531551361083984,-28.588356018066406,-0.6074696183204651,-0.8384580612182617,-0.3014849126338959,-2.632347822189331,0.6384037137031555,-0.0387214794754982
159,797838,797839,-0.10766516625881195,-0.2820870578289032,1.008833408355713,-10.248153686523438,5.9428510665893555,-28.096656799316406,-0.6029698252677917,-0.8279585838317871,-0.29998499155044556,-2.6832985877990723,0.46687066555023193,-0.34735941886901855
160,797848,797849,-0.04998411238193512,-0.4726226329803467,0.9442477226257324,-10.00521469116211,2.4664065837860107,-26.967069625854492,-0.5939702987670898,-0.8309584259986877,-0.2969851493835449,-2.6990249156951904,0.4357280135154724,-0.5809071063995361
161,797858,797859,-0.3316502571105957,-0.3512791395187378,0.972832441329956,-6.175201892852783,-4.962031841278076,-27.32090187072754,-0.6089695692062378,-0.8399580121040344,-0.28798559308052063,-2.6692662239074707,0.2871910035610199,-0.8785926103591919
162,797868,797869,-0.23005935549736023,-0.25811854004859924,0.9759535193443298,-3.021012544631958,-9.581592559814453,-27.111677169799805,-0.6014699339866638,-0.8474575877189636,-0.29848507046699524,-2.5467817783355713,0.3418593108654022,-1.0990310907363892
163,797878,797879,-0.28294527530670166,-0.22366443276405334,0.9795839190483093,2.005033016204834,-10.082992553710938,-26.855722427368164,-0.6059696674346924,-0.851957380771637,-0.2969851493835449,-2.382173538208008,0.24669110774993896,-1.3999890089035034
164,797888,797889,-0.422787070274353,-0.29315894842147827,0.9617357850074768,8.127246856689453,-9.40737533569336,-25.173933029174805,-0.6104694604873657,-0.850457489490509,-0.2924853563308716,-2.233635902404785,0.38698893785476685,-1.6129662990570068
165,797898,797899,-0.2239999622106552,-0.19334082305431366,0.9406542181968689,11.971138954162598,-4.104238986968994,-25.619140625,-0.5939702987670898,-0.8459576964378357,-0.29098543524742126,-2.163303852081299,0.5256710052490234,-1.8478586673736572
166,797908,797909,-0.7051672339439392,-0.11934797465801239,1.0367671251296997,10.96701717376709,-10.124451637268066,-23.538389205932617,-0.6089695692062378,-0.8459576964378357,-0.3119843900203705,-1.9557968378067017,0.6746472120285034,-2.0629160404205322
167,797918,797919,-0.42188581824302673,-0.20403464138507843,1.0367286205291748,10.108845710754395,-13.272862434387207,-23.876604080200195,-0.6059696674346924,-0.8609569072723389,-0.3029848337173462,-1.9076811075210571,0.6092581748962402,-2.373739004135132
168,797928,797929,-0.15794575214385986,-0.4074815809726715,0.9784409403800964,9.715880393981934,-15.080697059631348,-24.157020568847656,-0.6134693026542664,-0.8474575877189636,-0.2924853563308716,-1.682440161705017,0.7609867453575134,-2.5940005779266357
169,797938,797939,-0.40959033370018005,-0.3917091190814972,0.992982804775238,9.351436614990234,-17.920339584350586,-25.11252784729004,-0.6059696674346924,-0.8429578542709351,-0.3059847056865692,-1.9684290885925293,0.8958310484886169,-2.849807024002075
170,797948,797949,-0.41554105281829834,-0.269377201795578,0.9958291053771973,6.541820526123047,-25.266939163208008,-23.268108367919922,-0.5999699831008911,-0.8429578542709351,-0.30898454785346985,-1.7097432613372803,0.9403954148292542,-3.100942850112915
171,797958,797959,-0.3033771514892578,-0.5744192600250244,0.8410268425941467,2.9530036449432373,-21.26409339904785,-23.727449417114258,-0.6104694604873657,-0.850457489490509,-0.30748462677001953,-1.5044207572937012,0.9198758602142334,-3.364295482635498
172,797968,797969,-0.30735456943511963,-0.8278773427009583,0.875798225402832,3.2719151973724365,-27.57184410095215,-18.79024314880371,-0.5909704566001892,-0.8549572229385376,-0.2969851493835449,-1.1989262104034424,0.9487156867980957,-3.573784589767456
173,797978,797979,-0.15131942927837372,-0.7224205136299133,0.957827627658844,-0.05790196359157562,-26.639724731445312,-15.17776870727539,-0.5939702987670898,-0.8609569072723389,-0.3029848337173462,-0.7921709418296814,1.0205490589141846,-3.7198190689086914
174,797988,797989,-0.02073993720114231,-0.11582211405038834,1.0561108589172363,-2.6852123737335205,-18.295564651489258,-9.625143051147461,-0.5849707126617432,-0.8429578542709351,-0.3149842321872711,-0.6092468500137329,0.9725968837738037,-3.856112480163574
175,797998,797999,-0.09733134508132935,0.03277968987822533,1.1186513900756836,-8.189590454101562,-4.572237968444824,-4.376053333282471,-0.6044697761535645,-0.850457489490509,-0.3044847846031189,-0.6689569354057312,0.8499371409416199,-3.948300838470459
176,798008,798009,-0.7485922574996948,-0.3118423521518707,1.0284761190414429,-8.780603408813477,3.973250150680542,-1.4967249631881714,-0.6089695692062378,-0.8579570651054382,-0.2969851493835449,-0.6957043409347534,0.8354067802429199,-3.961242198944092
177,798018,798019,-0.7980658411979675,-0.8520448207855225,0.9154324531555176,-8.870869636535645,5.649662971496582,1.9115699529647827,-0.6059696674346924,-0.851957380771637,-0.3059847056865692,-0.714735209941864,0.8076820969581604,-3.9441463947296143
178,798028,798029,-0.42267125844955444,-0.9250260591506958,0.9536455273628235,-8.29214096069336,7.732555866241455,2.683662176132202,-0.6059696674346924,-0.8429578542709351,-0.2969851493835449,-0.7833681702613831,0.6436684131622314,-3.935215950012207
179,798038,798039,-0.5423487424850464,-0.8184987306594849,0.9305598735809326,-7.958357334136963,4.350591659545898,4.517005443572998,-0.5909704566001892,-0.8459576964378357,-0.30898454785346985,-0.856297492980957,0.6245246529579163,-3.889648675918579
180,798048,798049,-1.039867639541626,-0.9307918548583984,1.0099865198135376,-6.5074920654296875,-7.754464149475098,4.4312896728515625,-0.5909704566001892,-0.8459576964378357,-0.30898454785346985,-0.7587618827819824,0.488152414560318,-3.8479726314544678
181,798058,798059,-0.931308925151825,-0.10536158084869385,1.1263211965560913,-5.885587692260742,-18.29148292541504,7.097447872161865,-0.5909704566001892,-0.8459576964378357,-0.30898454785346985,-0.49435433745384216,0.345658540725708,-3.792917490005493
182,798068,798069,-0.34977805614471436,-0.1400734931230545,1.0247466564178467,-2.714001417160034,-26.79108238220215,8.307756423950195,-0.5939702987670898,-0.8429578542709351,-0.29998499155044556,-0.34991809725761414,0.4112342298030853,-3.7158522605895996
183,798078,798079,-0.1426229327917099,-0.3794793486595154,1.032524585723877,-1.9545767307281494,-34.00376892089844,12.803860664367676,-0.5834708213806152,-0.8534573316574097,-0.3044847846031189,0.2154131531715393,0.35013988614082336,-3.5967824459075928
184,798088,798089,-0.17512336373329163,-0.13449455797672272,1.055780053138733,-2.4793574810028076,-26.274633407592773,13.45286750793457,-0.5879706144332886,-0.851957380771637,-0.3059847056865692,0.4340420365333557,0.28792425990104675,-3.473139524459839
185,798098,798099,-0.5716792941093445,-0.17974403500556946,0.97276371717453,-0.54865562915802,-23.622812271118164,15.792320251464844,-0.6044697761535645,-0.8414579033851624,-0.30748462677001953,0.6672493815422058,0.3202577531337738,-3.324846029281616
186,798108,798109,-0.6773339509963989,-0.3131117820739746,1.0999222993850708,-4.079541206359863,-18.587284088134766,17.750247955322266,-0.5894705057144165,-0.8414579033851624,-0.2924853563308716,0.9888322353363037,0.3226403295993805,-3.152614116668701
187,798118,798119,-0.21817652881145477,-0.09466740489006042,1.1063357591629028,-4.1182355880737305,-8.116735458374023,18.875843048095703,-0.5744712948799133,-0.8474575877189636,-0.29848507046699524,0.9354972243309021,0.2919754683971405,-2.97261118888855
188,798128,798129,-0.03270784392952919,0.06295708566904068,1.0194573402404785,-5.959264278411865,0.7932032346725464,19.217166900634766,-0.5834708213806152,-0.8414579033851624,-0.3014849126338959,1.0183708667755127,0.17645125091075897,-2.7738800048828125
189,798138,798139,-0.006627151742577553,0.05714116245508194,0.9409000873565674,-8.334344863891602,13.334317207336426,19.524169921875,-0.6029698252677917,-0.836958110332489,-0.3029848337173462,0.8535431027412415,0.17090170085430145,-2.587930679321289
190,798148,798149,-0.24004432559013367,-0.46470311284065247,0.981981098651886,-12.567972183227539,22.67424774169922,19.949016571044922,-0.5879706144332886,-0.8339582681655884,-0.2939853072166443,0.5190306305885315,0.09389541298151016,-2.395939350128174
191,798158,798159,-0.3265090584754944,-0.34850749373435974,0.9425828456878662,-15.833295822143555,32.28110885620117,19.304141998291016,-0.5924703478813171,-0.8354582190513611,-0.28948551416397095,0.10378836840391159,-0.1769980937242508,-2.184054136276245
192,798168,798169,-0.3229091167449951,-0.04138663411140442,0.9822309613227844,-21.716073989868164,31.566190719604492,19.559593200683594,-0.5894705057144165,-0.8264586329460144,-0.2954852283000946,-0.017270907759666443,-0.30242061614990234,-2.0006415843963623
193,798178,798179,-0.23813635110855103,-0.24879862368106842,0.9793828129768372,-28.69852638244629,21.109634399414062,19.36556053161621,-0.5969701409339905,-0.8339582681655884,-0.2969851493835449,-0.2627786695957184,-0.5434955358505249,-1.8095332384109497
194,798188,798189,-0.5445409417152405,-0.4558553695678711,1.0171726942062378,-26.025360107421875,11.413570404052734,17.748939514160156,-0.5894705057144165,-0.8294585347175598,-0.277486115694046,-0.483730286359787,-0.7410941123962402,-1.6390458345413208
195,798198,798199,-0.8673369884490967,-0.3144037425518036,0.9669704437255859,-19.1096134185791,1.5163631439208984,17.939558029174805,-0.5849707126617432,-0.8399580121040344,-0.2939853072166443,-0.411728173494339,-1.0054088830947876,-1.4558025598526
196,798208,798209,-0.7276011109352112,-0.020506292581558228,1.0105987787246704,-9.426801681518555,-7.35053014755249,15.292637825012207,-0.5924703478813171,-0.8204589486122131,-0.2954852283000946,-0.4173368811607361,-1.057133674621582,-1.3071645498275757
197,798218,798219,-0.7463676929473877,0.11297986656427383,1.0325406789779663,4.0057692527771,-20.806734085083008,14.756087303161621,-0.5954701900482178,-0.8234587907791138,-0.3044847846031189,-0.14575107395648956,-1.1323944330215454,-1.15535569190979
198,798228,798229,-0.23931661248207092,0.03952503949403763,1.053884744644165,11.500429153442383,-24.815624237060547,15.557315826416016,-0.5909704566001892,-0.8189590573310852,-0.2969851493835449,0.18340010941028595,-1.03331458568573,-1.011357069015503
199,798238,798239,-0.07116284966468811,-0.07058875262737274,1.0574849843978882,18.392377853393555,-23.246706008911133,13.231575012207031,-0.5969701409339905,-0.8399580121040344,-0.3029848337173462,0.4429415762424469,-0.8142431974411011,-0.8794636726379395
200,798248,798249,0.0796317309141159,0.10040648281574249,0.9644360542297363,20.984445571899414,-15.876208305358887,9.787433624267578,-0.5804709792137146,-0.8354582190513611,-0.28948551416397095,0.5686273574829102,-0.5891010761260986,-0.7575885057449341
201,798258,798259,-0.19782966375350952,-0.06644412875175476,0.9771733283996582,11.338085174560547,-7.3769707679748535,5.437471866607666,-0.5954701900482178,-0.8324583768844604,-0.29848507046699524,0.7795423865318298,-0.5109822154045105,-0.6760736703872681
202,798268,798269,-0.2732780873775482,-0.17817950248718262,0.9254294633865356,-0.19956304132938385,3.047746419906616,1.1431422233581543,-0.5849707126617432,-0.8309584259986877,-0.3029848337173462,0.6861939430236816,-0.456232488155365,-0.6283215284347534
203,798278,798279,-0.10644857585430145,-0.19600947201251984,0.8843395113945007,-8.28864860534668,16.34163475036621,-3.8089070320129395,-0.5789710283279419,-0.8309584259986877,-0.28498575091362,0.6041842699050903,-0.6487202644348145,-0.61850506067276
204,798288,798289,-0.05280349776148796,-0.04209420084953308,0.9461597204208374,-10.452262878417969,26.7673397064209,-7.622117042541504,-0.5714713931083679,-0.8264586329460144,-0.2924853563308716,0.331659734249115,-0.7622632384300232,-0.670745313167572
205,798298,798299,-0.21286427974700928,-0.3923609256744385,1.0196410417556763,-9.678030967712402,27.491817474365234,-10.086552619934082,-0.5849707126617432,-0.8309584259986877,-0.28798559308052063,-0.09313451498746872,-0.8775613903999329,-0.7364838719367981
206,798308,798309,-0.35774752497673035,-0.4378363788127899,1.0182563066482544,-3.5129804611206055,20.087718963623047,-12.414393424987793,-0.5804709792137146,-0.8354582190513611,-0.2924853563308716,-0.16777284443378448,-0.7928645014762878,-0.917302668094635
207,798318,798319,-0.41021615266799927,-0.06420165300369263,1.089678406715393,4.581759929656982,11.886256217956543,-14.512195587158203,-0.5864706635475159,-0.8354582190513611,-0.28948551416397095,-0.21049462258815765,-0.8032445907592773,-1.0745433568954468
208,798328,798329,-0.3854801058769226,-0.251193642616272,1.0850180387496948,14.575007438659668,-3.8546416759490967,-14.657344818115234,-0.6089695692062378,-0.8339582681655884,-0.2939853072166443,-0.23663076758384705,-0.6728266477584839,-1.2291010618209839
209,798338,798339,-0.4175468981266022,-0.5543937087059021,1.0371500253677368,18.3828067779541,-10.809432983398438,-13.578730583190918,-0.5819708704948425,-0.851957380771637,-0.2969851493835449,-0.10577750205993652,-0.49527284502983093,-1.3813519477844238
210,798348,798349,-0.5058611631393433,-0.30301061272621155,0.9696983695030212,19.386459350585938,-12.9772367477417,-11.498698234558105,-0.5969701409339905,-0.8429578542709351,-0.3059847056865692,0.041689496487379074,-0.19773618876934052,-1.5336527824401855
211,798358,798359,-0.5423654317855835,-0.11616582423448563,0.967385470867157,17.152515411376953,-17.734642028808594,-6.429924964904785,-0.5849707126617432,-0.8309584259986877,-0.28798559308052063,0.2476402372121811,-0.05665285512804985,-1.6144300699234009
212,798368,798369,-0.4207327961921692,-0.22021207213401794,0.9592558741569519,7.436120986938477,-10.954093933105469,-4.512803554534912,-0.5909704566001892,-0.8459576964378357,-0.2939853072166443,0.46320879459381104,-0.02645617537200451,-1.6645461320877075
213,798378,798379,-0.37521660327911377,-0.2576994299888611,0.9305118322372437,-0.2917567789554596,-1.198754906654358,-4.472402095794678,-0.5939702987670898,-0.8459576964378357,-0.28798559308052063,0.3392392694950104,0.0044040619395673275,-1.680035948753357
214,798388,798389,-0.3940129280090332,-0.13289985060691833,0.8873105645179749,-3.4935078620910645,6.432394504547119,-3.122349500656128,-0.5819708704948425,-0.836958110332489,-0.2939853072166443,0.28993499279022217,-0.057595301419496536,-1.7054104804992676
215,798398,798399,-0.19845785200595856,-0.20442235469818115,0.9099532961845398,-9.055706977844238,15.083796501159668,-2.510544538497925,-0.5909704566001892,-0.836958110332489,-0.29098543524742126,0.1846020370721817,-0.18928591907024384,-1.7205034494400024
216,798408,798409,-0.10121962428092957,-0.41678524017333984,0.9190380573272705,-5.198912620544434,20.073162078857422,-4.1313395500183105,-0.5834708213806152,-0.8414579033851624,-0.2954852283000946,0.026158731430768967,-0.10714313387870789,-1.795453667640686
217,798418,798419,-0.181626096367836,-0.3877110481262207,0.9553436040878296,-2.7402408123016357,16.943714141845703,-2.4682905673980713,-0.5909704566001892,-0.8429578542709351,-0.2969851493835449,-0.2738959789276123,-0.195205420255661,-1.8003931045532227
218,798428,798429,-0.46227991580963135,-0.42063039541244507,0.9698777198791504,0.15459246933460236,11.548120498657227,-0.7696850299835205,-0.5864706635475159,-0.8414579033851624,-0.31048446893692017,-0.45411357283592224,-0.2364630103111267,-1.8057100772857666
219,798438,798439,-0.7456504702568054,-0.45651009678840637,1.0211297273635864,3.8993256092071533,-1.138227939605713,0.7002161145210266,-0.5834708213806152,-0.8414579033851624,-0.29848507046699524,-0.443780779838562,-0.22349309921264648,-1.8130844831466675
220,798448,798449,-0.8129561543464661,-0.4698195457458496,1.0707470178604126,5.39406156539917,-10.17076301574707,5.391159534454346,-0.5819708704948425,-0.8579570651054382,-0.3149842321872711,-0.3299713730812073,-0.16943874955177307,-1.7872724533081055
221,798458,798459,-0.7444720268249512,-0.1441870629787445,1.037194013595581,2.837810516357422,-17.333280563354492,7.119258403778076,-0.5819708704948425,-0.8549572229385376,-0.2969851493835449,-0.1604791134595871,-0.11435288935899734,-1.7268784046173096
222,798468,798469,-0.16931718587875366,-0.24239030480384827,1.056546688079834,-5.154294967651367,-26.296104431152344,10.18122673034668,-0.5684715509414673,-0.8564571738243103,-0.3044847846031189,0.15741746127605438,-0.150130495429039,-1.642401099205017
223,798478,798479,0.030418705195188522,-0.16035892069339752,1.052443504333496,-16.83660316467285,-21.337928771972656,13.187029838562012,-0.5804709792137146,-0.8594570159912109,-0.29848507046699524,0.3337937891483307,-0.3579687476158142,-1.5010113716125488
224,798488,798489,-0.11356266587972641,0.06126769632101059,1.0197861194610596,-19.726743698120117,-17.017980575561523,13.410957336425781,-0.5759711861610413,-0.8459576964378357,-0.3059847056865692,0.5234892964363098,-0.5369513630867004,-1.3673282861709595
225,798498,798499,-0.09011576324701309,-0.20371055603027344,0.9872108101844788,-16.45187759399414,-12.817704200744629,13.691156387329102,-0.577471137046814,-0.8594570159912109,-0.3044847846031189,0.7708497047424316,-0.8533052802085876,-1.2177828550338745
226,798508,798509,-0.20400802791118622,-0.15659195184707642,0.9828251600265503,-8.475764274597168,-4.038853168487549,13.496883392333984,-0.5759711861610413,-0.8459576964378357,-0.30898454785346985,0.9052760004997253,-0.9117359519004822,-1.0992869138717651
227,798518,798519,-0.1199469193816185,-0.009280001744627953,1.0285676717758179,3.297250986099243,4.974963665008545,13.697610855102539,-0.5714713931083679,-0.8474575877189636,-0.3134843111038208,0.7539322376251221,-0.8065387606620789,-0.9671080708503723
228,798528,798529,-0.426460325717926,-0.21793584525585175,1.029215931892395,12.476378440856934,13.387834548950195,14.342389106750488,-0.5849707126617432,-0.8459576964378357,-0.2939853072166443,0.659912645816803,-0.6810616254806519,-0.8312459588050842
229,798538,798539,-0.45439866185188293,-0.44965723156929016,1.0709556341171265,17.10033416748047,23.596616744995117,10.5339937210083,-0.5804709792137146,-0.8354582190513611,-0.3014849126338959,0.3306176960468292,-0.516839861869812,-0.6983904242515564
230,798548,798549,-0.14114108681678772,-0.25879156589508057,1.041846752166748,16.180143356323242,26.250131607055664,8.62683391571045,-0.5864706635475159,-0.8534573316574097,-0.3044847846031189,0.00037918868474662304,-0.39046069979667664,-0.5855054259300232
231,798558,798559,-0.021320175379514694,-0.1079431027173996,0.9994474649429321,10.288333892822266,25.3762264251709,6.342155933380127,-0.5819708704948425,-0.8549572229385376,-0.3029848337173462,-0.21446430683135986,-0.1859535276889801,-0.5351406335830688
232,798568,798569,-0.014359474182128906,-0.05630552023649216,1.0015801191329956,2.958928108215332,17.493473052978516,3.6955301761627197,-0.5924703478813171,-0.8474575877189636,-0.3014849126338959,-0.4011716842651367,-0.09120043367147446,-0.49762171506881714
233,798578,798579,-0.16341550648212433,-0.06973247975111008,0.991080641746521,-1.628132939338684,8.09281063079834,0.9577150940895081,-0.5804709792137146,-0.8354582190513611,-0.3134843111038208,-0.4614989459514618,-0.25092053413391113,-0.45875054597854614
234,798588,798589,-0.12019295245409012,-0.10594009608030319,0.9501157402992249,-5.408410549163818,-3.9190492630004883,0.7242944240570068,-0.5834708213806152,-0.850457489490509,-0.29848507046699524,-0.4778519570827484,-0.3169659674167633,-0.44265443086624146
235,798598,798599,-0.16809742152690887,-0.4011392593383789,0.9391332864761353,-9.142385482788086,-12.470481872558594,-0.8895061016082764,-0.5834708213806152,-0.8354582190513611,-0.2924853563308716,-0.20839492976665497,-0.3699442148208618,-0.4708010256290436
236,798608,798609,-0.17145885527133942,-0.2667376697063446,0.9743355512619019,-12.417278289794922,-16.425168991088867,-2.7478444576263428,-0.5864706635475159,-0.8474575877189636,-0.3134843111038208,-0.033594995737075806,-0.554041862487793,-0.4798740744590759
237,798618,798619,-0.3014640510082245,-0.12903103232383728,0.9795644283294678,-13.037515640258789,-19.943683624267578,-3.2071332931518555,-0.5759711861610413,-0.8429578542709351,-0.29998499155044556,0.14043310284614563,-0.6086209416389465,-0.5138676166534424
238,798628,798629,-0.0886053591966629,7.746558549115434e-05,0.9672006964683533,-14.451760292053223,-12.665701866149902,-6.124664306640625,-0.5819708704948425,-0.851957380771637,-0.2969851493835449,0.3789210319519043,-0.7701184153556824,-0.5717703700065613
239,798638,798639,-0.017104975879192352,0.15566904842853546,1.0276468992233276,-10.727248191833496,-4.933177947998047,-7.006051063537598,-0.5759711861610413,-0.8429578542709351,-0.3029848337173462,0.5014120936393738,-0.9682008028030396,-0.6311888694763184
240,798648,798649,-0.18565477430820465,-0.21000058948993683,1.021686315536499,-9.39145565032959,4.997326850891113,-7.191807746887207,-0.5759711861610413,-0.8459576964378357,-0.2969851493835449,0.3236265182495117,-0.9818846583366394,-0.6969525218009949
241,798658,798659,-0.14163246750831604,-0.14460963010787964,0.9715205430984497,-5.84454345703125,6.924849510192871,-8.010716438293457,-0.5849707126617432,-0.8549572229385376,-0.3029848337173462,0.2061537355184555,-1.033149003982544,-0.7720502018928528
242,798668,798669,-0.04575124755501747,-0.1016797199845314,0.9410065412521362,-0.4301910698413849,0.8713356256484985,-4.833313465118408,-0.56997150182724,-0.8399580121040344,-0.29098543524742126,0.295574426651001,-1.069718599319458,-0.8457602858543396
243,798678,798679,-0.17453810572624207,0.1416974663734436,0.9770079851150513,5.992873191833496,1.6559457778930664,-3.959923028945923,-0.5834708213806152,-0.844457745552063,-0.3014849126338959,0.1743401288986206,-1.030845046043396,-0.8843930959701538
244,798688,798689,-0.3663959205150604,0.2403305470943451,1.003293752670288,16.653688430786133,-5.269873142242432,-0.23350252211093903,-0.5759711861610413,-0.851957380771637,-0.3119843900203705,0.22229674458503723,-0.9002246260643005,-0.9067161083221436
245,798698,798699,-0.15405602753162384,-0.04515419527888298,1.0366283655166626,21.669937133789062,-8.096190452575684,0.5518736839294434,-0.5834708213806152,-0.8534573316574097,-0.3134843111038208,0.313761830329895,-0.6531612277030945,-0.918406069278717
246,798708,798709,-0.06149392947554588,-0.0490385964512825,1.0086883306503296,27.908517837524414,-13.60128402709961,0.9297659993171692,-0.577471137046814,-0.8594570159912109,-0.3014849126338959,0.5098945498466492,-0.44292670488357544,-0.9137743711471558
247,798718,798719,-0.24885517358779907,-0.4223734140396118,0.9463573098182678,26.45353126525879,-6.927216053009033,2.450230598449707,-0.5819708704948425,-0.8759561777114868,-0.3149842321872711,0.5267274379730225,-0.05819437652826309,-0.8940211534500122
248,798728,798729,-1.0207172632217407,-0.1405230164527893,0.9928984642028809,21.786104202270508,6.466915607452393,2.145575523376465,-0.5804709792137146,-0.8624568581581116,-0.3254837095737457,0.43646833300590515,-0.014638451859354973,-0.8310930132865906
249,798738,798739,-0.5254295468330383,0.043751928955316544,1.056172251701355,11.582152366638184,17.293733596801758,2.5993568897247314,-0.5789710283279419,-0.851957380771637,-0.3029848337173462,0.2971767783164978,0.1998509168624878,-0.8091148138046265
250,798748,798749,-0.07500122487545013,0.06714921444654465,1.0533578395843506,-0.02282363921403885,21.60201644897461,2.557896852493286,-0.5834708213806152,-0.8564571738243103,-0.3134843111038208,0.08621153980493546,0.06666926294565201,-0.7598919868469238
251,798758,798759,0.03304775804281235,0.06990322470664978,1.0308340787887573,-1.963991641998291,15.405928611755371,0.9035195708274841,-0.577471137046814,-0.8624568581581116,-0.31048446893692017,-0.22626422345638275,0.06999082863330841,-0.7362043261528015
252,798768,798769,-0.09516340494155884,-0.1291537582874298,1.001158595085144,-2.8304615020751953,3.2889485359191895,1.4477401971817017,-0.5834708213806152,-0.8624568581581116,-0.31048446893692017,-0.21274587512016296,0.0508558414876461,-0.7298972606658936
253,798778,798779,-0.12596610188484192,-0.21889176964759827,1.0155043601989746,-3.3548808097839355,-1.3197262287139893,0.4887412190437317,-0.5834708213806152,-0.8624568581581116,-0.31048446893692017,-0.152685284614563,0.016838347539305687,-0.7282071709632874
254,798788,798789,-0.2201988250017166,-0.07991856336593628,0.9701216220855713,4.762121677398682,-6.209387302398682,2.0426058769226074,-0.5834708213806152,-0.8624568581581116,-0.31048446893692017,-0.07524103671312332,0.05555012822151184,-0.7180905342102051
255,798798,798799,-0.23882848024368286,-0.03358633443713188,1.0550309419631958,7.741763591766357,0.531855583190918,1.784525990486145,-0.5819708704948425,-0.8549572229385376,-0.3029848337173462,-0.05395469442009926,0.16815906763076782,-0.7038851380348206
256,798808,798809,-0.0754658505320549,0.06479883193969727,1.0749335289001465,12.37322998046875,7.104742527008057,0.5873892307281494,-0.5909704566001892,-0.8639568090438843,-0.3059847056865692,-0.13483577966690063,0.29049646854400635,-0.6927545666694641
257,798818,798819,-0.044799331575632095,-0.09688356518745422,1.0458213090896606,11.55419921875,12.069952964782715,1.3864061832427979,-0.5849707126617432,-0.8579570651054382,-0.3119843900203705,-0.2190723419189453,0.42973795533180237,-0.6850157380104065
258,798828,798829,-0.025206798687577248,-0.0678115114569664,1.0745718479156494,11.972054481506348,19.889713287353516,0.034561965614557266,-0.5864706635475159,-0.8594570159912109,-0.3134843111038208,-0.4864869713783264,0.6288202404975891,-0.6830369234085083
259,798838,798839,-0.08212325721979141,-0.36862948536872864,1.022160530090332,12.278571128845215,19.67207145690918,1.101242184638977,-0.5819708704948425,-0.8549572229385376,-0.2969851493835449,-0.7248081564903259,0.7703477740287781,-0.6716957092285156
260,798848,798849,-0.39237892627716064,-0.404518723487854,1.0453433990478516,6.4700212478637695,18.88796043395996,0.7978953719139099,-0.5819708704948425,-0.8669566512107849,-0.29998499155044556,-0.9832502007484436,0.8545020222663879,-0.6601035594940186
261,798858,798859,-0.5316539406776428,-0.3041195571422577,0.9553989171981812,0.7130033373832703,7.817235946655273,0.6423308253288269,-0.5909704566001892,-0.8609569072723389,-0.3149842321872711,-1.1944632530212402,0.776793897151947,-0.6449318528175354
262,798868,798869,-0.2910573184490204,-0.5390385985374451,1.020473599433899,-7.319683074951172,-4.002793788909912,2.0930936336517334,-0.6044697761535645,-0.8564571738243103,-0.3014849126338959,-1.123021125793457,0.728807806968689,-0.6275836825370789
263,798878,798879,-0.4107247292995453,-0.5896021723747253,1.035483717918396,-10.849448204040527,-9.880770683288574,1.628333330154419,-0.5924703478813171,-0.850457489490509,-0.3044847846031189,-0.9956673383712769,0.5805810689926147,-0.6123941540718079
264,798888,798889,-0.6218861937522888,-0.6668248772621155,0.989529550075531,-9.439922332763672,-16.220333099365234,4.244428634643555,-0.5954701900482178,-0.8474575877189636,-0.3014849126338959,-0.7612592577934265,0.48290592432022095,-0.5765633583068848
265,798898,798899,-0.31270402669906616,-0.634100615978241,1.0399264097213745,-5.642817974090576,-15.973648071289062,4.260362148284912,-0.5789710283279419,-0.8429578542709351,-0.3029848337173462,-0.5725277066230774,0.3701559901237488,-0.5372616648674011
266,798908,798909,-0.4274686574935913,-0.3988410532474518,1.030727744102478,0.9006534218788147,-18.347131729125977,6.472275733947754,-0.5909704566001892,-0.8549572229385376,-0.29998499155044556,-0.2834003269672394,0.4309512972831726,-0.4727776050567627
267,798918,798919,-0.7652345299720764,-0.24862731993198395,0.9857229590415955,2.879896640777588,-16.92577362060547,7.999763011932373,-0.5924703478813171,-0.8414579033851624,-0.3014849126338959,-0.0835249125957489,0.3944324553012848,-0.3976691961288452
268,798928,798929,-0.30712783336639404,-0.3506641387939453,1.0434026718139648,6.663784027099609,-14.498465538024902,7.200170040130615,-0.5744712948799133,-0.8534573316574097,-0.3014849126338959,0.017489273101091385,0.4691004753112793,-0.3255555033683777
269,798938,798939,-0.09748286753892899,-0.2022653967142105,1.0179684162139893,11.74293327331543,-10.225881576538086,8.183391571044922,-0.5984700918197632,-0.8534573316574097,-0.3014849126338959,0.15204966068267822,0.639324426651001,-0.2457691878080368
270,798948,798949,-0.36677584052085876,-0.04365893825888634,1.047907829284668,10.363768577575684,0.18917644023895264,9.888160705566406,-0.5924703478813171,-0.8354582190513611,-0.3044847846031189,0.15781649947166443,0.6909075975418091,-0.15413479506969452
271,798958,798959,-0.22655323147773743,0.01060350239276886,1.0458887815475464,4.2572150230407715,10.384495735168457,8.636059761047363,-0.5894705057144165,-0.8474575877189636,-0.29848507046699524,0.06060142442584038,0.8106673955917358,-0.06432925164699554
272,798968,798969,-0.12972983717918396,0.2238449603319168,1.058658242225647,0.6432732939720154,12.266830444335938,7.641441345214844,-0.6029698252677917,-0.8429578542709351,-0.2939853072166443,-0.03678672015666962,0.8601307272911072,0.018978456035256386
273,798978,798979,-0.5863350629806519,-0.2600367069244385,1.0512036085128784,-4.009120941162109,13.860700607299805,7.936084270477295,-0.5894705057144165,-0.8474575877189636,-0.2924853563308716,-0.24747289717197418,0.8225351572036743,0.09625732153654099
274,798988,798989,-0.6015491485595703,-0.5307052135467529,0.9564714431762695,-4.4806437492370605,13.708794593811035,6.850892066955566,-0.5969701409339905,-0.8429578542709351,-0.29098543524742126,-0.25993165373802185,0.7493103742599487,0.18265052139759064
275,798998,798999,-0.2697748839855194,-0.09405361115932465,0.968734085559845,-6.319416522979736,13.470654487609863,6.35139799118042,-0.5819708704948425,-0.836958110332489,-0.29998499155044556,-0.49878543615341187,0.6564056277275085,0.24264375865459442
276,799008,799009,-0.20125305652618408,0.11433866620063782,1.0157930850982666,-6.521875858306885,7.386171817779541,6.232729911804199,-0.5924703478813171,-0.8414579033851624,-0.2924853563308716,-0.5812677145004272,0.5503305196762085,0.3100942373275757
277,799018,799019,-0.9272341728210449,-0.21962322294712067,0.9830924272537231,-7.088741779327393,4.173641204833984,6.389689922332764,-0.5999699831008911,-0.836958110332489,-0.3119843900203705,-0.6796656250953674,0.5793639421463013,0.37015748023986816
278,799028,799029,-0.6197517514228821,-0.15845879912376404,0.9431710839271545,-6.79777717590332,-1.4514216184616089,5.776853561401367,-0.5969701409339905,-0.8309584259986877,-0.2969851493835449,-0.6868900060653687,0.4608308672904968,0.42743587493896484
279,799038,799039,-0.08708473294973373,-0.030619028955698013,0.9472659230232239,-5.038394451141357,-12.751076698303223,6.100411415100098,-0.5954701900482178,-0.8354582190513611,-0.2924853563308716,-0.535100519657135,0.4404859244823456,0.4983550012111664
280,799048,799049,-0.49527597427368164,-0.1552969217300415,0.9257879853248596,-1.9581795930862427,-16.311458587646484,5.603747844696045,-0.5954701900482178,-0.8264586329460144,-0.29848507046699524,-0.2972247302532196,0.3787058889865875,0.5651730895042419
281,799058,799059,-0.5196967124938965,-0.30435532331466675,0.9095933437347412,5.901415824890137,-19.366138458251953,5.509366512298584,-0.5849707126617432,-0.8399580121040344,-0.28798559308052063,-0.07451360672712326,0.4837919771671295,0.623867392539978
282,799068,799069,-0.04003244265913963,-0.04789338633418083,0.8836801052093506,12.075089454650879,-20.621427536010742,7.322750091552734,-0.5834708213806152,-0.8264586329460144,-0.2954852283000946,0.18338653445243835,0.6310548186302185,0.6952436566352844
283,799078,799079,-0.08722200244665146,-0.00735347718000412,0.9525564312934875,13.156537055969238,-19.736103057861328,7.977328300476074,-0.5894705057144165,-0.8414579033851624,-0.3014849126338959,0.4474032521247864,0.8242464065551758,0.7756210565567017
284,799088,799089,-0.20051725208759308,-0.13569168746471405,0.9909909963607788,9.095077514648438,-11.682836532592773,9.771770477294922,-0.5909704566001892,-0.8429578542709351,-0.3029848337173462,0.5503650903701782,0.8505979180335999,0.8576620817184448
285,799098,799099,-0.21280772984027863,-0.29916244745254517,0.9070358276367188,5.096001148223877,-2.6310763359069824,11.273350715637207,-0.5744712948799133,-0.850457489490509,-0.3044847846031189,0.5724862813949585,1.0241504907608032,0.9549379944801331
286,799108,799109,-0.22099314630031586,-0.5258066654205322,0.9225466251373291,-0.8337111473083496,5.768130302429199,12.772161483764648,-0.5864706635475159,-0.8474575877189636,-0.3014849126338959,0.5284940600395203,0.8988476395606995,1.0767089128494263
287,799118,799119,-0.12099321186542511,-0.5541113615036011,0.9853490591049194,-11.611021995544434,12.358648300170898,15.516937255859375,-0.5894705057144165,-0.8414579033851624,-0.30748462677001953,0.3594793677330017,0.9873525500297546,1.2085434198379517
288,799128,799129,-0.41659876704216003,-0.38464686274528503,1.0218842029571533,-20.649917602539062,14.320119857788086,16.914562225341797,-0.5834708213806152,-0.8384580612182617,-0.3014849126338959,0.21667982637882233,0.6799519658088684,1.3797452449798584
289,799138,799139,-0.5729234218597412,-0.10660041123628616,1.0669183731079102,-26.835851669311523,14.481029510498047,17.41191864013672,-0.5879706144332886,-0.8399580121040344,-0.3029848337173462,0.18647383153438568,0.27739185094833374,1.578739047050476
290,799148,799149,-0.20009459555149078,0.08072145283222198,0.9814474582672119,-31.082979202270508,15.597943305969238,16.360733032226562,-0.5729713439941406,-0.8219588994979858,-0.29998499155044556,0.06648245453834534,-0.13800939917564392,1.7613357305526733
291,799158,799159,-0.1074255108833313,0.027560768648982048,0.9974366426467896,-26.203798294067383,14.63697624206543,15.216015815734863,-0.5714713931083679,-0.8234587907791138,-0.3044847846031189,-0.19722962379455566,-0.3282136619091034,1.8980917930603027
292,799168,799169,-0.020865317434072495,-0.052790094166994095,0.9856646060943604,-14.815067291259766,11.506908416748047,15.371174812316895,-0.5879706144332886,-0.8279585838317871,-0.28798559308052063,-0.42297646403312683,-0.39210498332977295,2.0333099365234375
293,799178,799179,-0.03367491811513901,-0.05477134883403778,0.9713422060012817,-2.548346757888794,4.9518232345581055,14.777531623840332,-0.5849707126617432,-0.8159592151641846,-0.29098543524742126,-0.5548754930496216,-0.4574429392814636,2.1797523498535156
294,799188,799189,-0.14242802560329437,-0.07771355658769608,0.9340206980705261,5.622133731842041,-4.732617378234863,14.059794425964355,-0.6059696674346924,-0.8399580121040344,-0.2969851493835449,-0.33408984541893005,-0.3010497987270355,2.3414456844329834
295,799198,799199,-0.5106697082519531,-0.15448123216629028,0.9196503162384033,14.260124206542969,-12.50548267364502,13.591662406921387,-0.5894705057144165,-0.8264586329460144,-0.2924853563308716,-0.19209390878677368,-0.22182387113571167,2.4848761558532715
296,799208,799209,-0.6847147345542908,-0.14381718635559082,0.9508582353591919,18.80698585510254,-17.149967193603516,12.502497673034668,-0.6029698252677917,-0.836958110332489,-0.3059847056865692,-0.1670285314321518,-0.0262366384267807,2.6107306480407715
297,799218,799219,-0.32994502782821655,-0.060047488659620285,0.9675480723381042,17.577863693237305,-12.310479164123535,9.956948280334473,-0.6074696183204651,-0.8264586329460144,-0.2834858298301697,0.07609814405441284,0.12220252305269241,2.7256221771240234
298,799228,799229,-0.11019504070281982,-0.024641534313559532,0.9923344850540161,9.139938354492188,-2.742339611053467,6.854315757751465,-0.5954701900482178,-0.8324583768844604,-0.29848507046699524,0.17883090674877167,-0.026115821674466133,2.8181936740875244
299,799238,799239,-0.10701210796833038,-0.12307711690664291,0.9329270124435425,-5.047170639038086,3.6719727516174316,3.8762552738189697,-0.5894705057144165,-0.8354582190513611,-0.29848507046699524,0.3094070255756378,-0.1384396255016327,2.879295587539673
300,799248,799249,-0.10130418092012405,-0.09846621006727219,0.9493875503540039,-15.470422744750977,10.629656791687012,0.7698925137519836,-0.5924703478813171,-0.844457745552063,-0.31048446893692017,0.08753323554992676,-0.10448651760816574,2.8903889656066895
301,799258,799259,-0.11174023151397705,-0.11593528091907501,0.9416351318359375,-16.79631805419922,12.667802810668945,0.14134995639324188,-0.5819708704948425,-0.8189590573310852,-0.28798559308052063,-0.12244671583175659,-0.17236559092998505,2.89123272895813
302,799268,799269,-0.1155918762087822,-0.010990620590746403,0.927891194820404,-17.09368324279785,17.46139144897461,-1.3654427528381348,-0.5684715509414673,-0.8294585347175598,-0.28948551416397095,-0.39154455065727234,-0.32304567098617554,2.880486249923706
303,799278,799279,-0.2900148034095764,0.020375682041049004,0.9741119742393494,-15.448951721191406,15.375904083251953,-1.2156751155853271,-0.5894705057144165,-0.8294585347175598,-0.2924853563308716,-0.4534662067890167,-0.4624973237514496,2.868312120437622
304,799288,799289,-0.1241607666015625,0.017252275720238686,1.0125114917755127,-8.361905097961426,7.648675918579102,-2.769852876663208,-0.5864706635475159,-0.8294585347175598,-0.29848507046699524,-0.3021199703216553,-0.604027509689331,2.8438565731048584
305,799298,799299,-0.0263030007481575,0.011591567657887936,0.9742774367332458,4.302070617675781,-3.3117763996124268,-1.4736524820327759,-0.5879706144332886,-0.8309584259986877,-0.2969851493835449,-0.35618725419044495,-0.6331328749656677,2.8232357501983643
306,799308,799309,-0.1230117455124855,-0.20461556315422058,0.9257217049598694,12.03921127319336,-11.94206428527832,-0.32215267419815063,-0.5669716596603394,-0.8429578542709351,-0.29998499155044556,-0.1805395781993866,-0.49592217803001404,2.815469741821289
307,799318,799319,-0.32938507199287415,-0.32713615894317627,0.8926054239273071,17.330217361450195,-15.150092124938965,0.039532680064439774,-0.5879706144332886,-0.8399580121040344,-0.3059847056865692,0.020351048558950424,-0.2760618329048157,2.8097853660583496
308,799328,799329,-0.17218105494976044,-0.16268672049045563,0.9924112558364868,18.87886619567871,-13.06002426147461,0.38222500681877136,-0.5789710283279419,-0.8549572229385376,-0.3029848337173462,0.15255245566368103,-0.11257576942443848,2.812784194946289
309,799338,799339,-0.05172518640756607,0.07917643338441849,1.0143343210220337,16.317058563232422,-10.392905235290527,0.8601624965667725,-0.5789710283279419,-0.8399580121040344,-0.3059847056865692,0.23399469256401062,0.10264292359352112,2.819478988647461
310,799348,799349,-0.16113489866256714,0.14837346971035004,1.0326006412506104,7.592243194580078,-5.30029296875,1.2038812637329102,-0.5924703478813171,-0.8474575877189636,-0.3164841830730438,0.32939469814300537,0.13917024433612823,2.831613302230835
311,799358,799359,-0.08767606317996979,0.21261411905288696,1.0098598003387451,-5.630331039428711,1.98813796043396,0.9246098399162292,-0.5759711861610413,-0.8609569072723389,-0.29998499155044556,0.2522068917751312,0.14451123774051666,2.845982551574707
312,799368,799369,-0.11481715738773346,-0.005083058495074511,0.9840311408042908,-16.227394104003906,5.794600486755371,0.17166271805763245,-0.5834708213806152,-0.8384580612182617,-0.29848507046699524,0.16885733604431152,-0.057805661112070084,2.8544721603393555
313,799378,799379,-0.10045910626649857,-0.1624663770198822,0.9469366669654846,-24.435644149780273,8.78998851776123,1.3962846994400024,-0.5669716596603394,-0.8399580121040344,-0.30898454785346985,0.09148713946342468,-0.2708553373813629,2.8630707263946533
314,799388,799389,-0.1009644940495491,-0.1834077537059784,0.9678454399108887,-24.219919204711914,12.069488525390625,0.4188784956932068,-0.5729713439941406,-0.8459576964378357,-0.29098543524742126,-0.0988631621003151,-0.6018841862678528,2.8788790702819824
315,799398,799399,-0.05373120680451393,0.15205955505371094,0.984008252620697,-18.388792037963867,13.730438232421875,-0.647743821144104,-0.5684715509414673,-0.8534573316574097,-0.29848507046699524,-0.3257194757461548,-0.8771620392799377,2.8804948329925537
316,799408,799409,-0.0900295302271843,0.10994172841310501,1.027874231338501,-8.630626678466797,11.068840980529785,0.016334472224116325,-0.5819708704948425,-0.8399580121040344,-0.29998499155044556,-0.3903280198574066,-0.8712732195854187,2.8669495582580566
317,799418,799419,-0.15814518928527832,-0.0058050877414643764,1.0248022079467773,4.212976932525635,7.589165687561035,1.3856714963912964,-0.5804709792137146,-0.850457489490509,-0.31048446893692017,-0.5581321120262146,-0.8231054544448853,2.875478982925415
318,799428,799429,-0.24914900958538055,-0.09480038285255432,0.9811388850212097,15.6461763381958,3.540156602859497,1.8348534107208252,-0.5864706635475159,-0.844457745552063,-0.3014849126338959,-0.5788298845291138,-0.6434676051139832,2.8877930641174316
319,799438,799439,-0.1447313278913498,0.089981310069561,0.9954666495323181,24.926834106445312,-4.196562767028809,1.6183786392211914,-0.5759711861610413,-0.851957380771637,-0.3059847056865692,-0.5647597908973694,-0.45309972763061523,2.9051783084869385
320,799448,799449,-0.09156060963869095,0.09226015955209732,0.999769389629364,29.51729393005371,-4.879140377044678,0.6094951629638672,-0.5684715509414673,-0.8624568581581116,-0.3164841830730438,-0.506064772605896,-0.15519563853740692,2.916710615158081
321,799458,799459,-0.25266116857528687,-0.4223266541957855,1.038341999053955,25.578392028808594,-2.8651328086853027,1.6991820335388184,-0.5759711861610413,-0.8639568090438843,-0.3029848337173462,-0.4513612389564514,0.008472400717437267,2.9242660999298096
322,799468,799469,-1.0932613611221313,-0.4866834878921509,1.0272325277328491,17.624059677124023,4.127140998840332,3.8398051261901855,-0.5804709792137146,-0.8654567003250122,-0.3164841830730438,-0.5387790203094482,0.3620988130569458,2.9592926502227783
323,799478,799479,-0.6818861365318298,-0.13569216430187225,1.019340991973877,6.179279804229736,14.830694198608398,5.018620014190674,-0.5714713931083679,-0.8684565424919128,-0.3164841830730438,-0.6377164125442505,0.4655464291572571,3.006471633911133
324,799488,799489,-0.09583628177642822,-0.03695980831980705,1.000514268875122,-6.136951446533203,13.980817794799805,5.214563369750977,-0.5759711861610413,-0.8699564933776855,-0.3119843900203705,-0.8836162686347961,0.4507812559604645,3.0667240619659424
325,799498,799499,-0.038281429558992386,-0.06426812708377838,1.019546627998352,-18.020793914794922,11.735045433044434,4.030144214630127,-0.5759711861610413,-0.8699564933776855,-0.3119843900203705,-0.8119697570800781,0.22150203585624695,3.0964581966400146
326,799508,799509,-0.04646327346563339,0.05715299770236015,1.0420429706573486,-23.32517433166504,5.698269844055176,4.774954319000244,-0.5759711861610413,-0.8699564933776855,-0.3119843900203705,-1.0179214477539062,-0.12800908088684082,3.13954496383667
327,799518,799519,-0.34560325741767883,-0.17304836213588715,1.0554914474487305,-23.37843132019043,-0.5505354404449463,3.8400731086730957,-0.5789710283279419,-0.8639568090438843,-0.3029848337173462,-0.9767330288887024,-0.4298458695411682,3.1808512210845947
328,799528,799529,-0.15010184049606323,-0.13789933919906616,1.0177547931671143,-21.38669204711914,-6.614859104156494,3.61940860748291,-0.5744712948799133,-0.8594570159912109,-0.3134843111038208,-0.9156898856163025,-0.5776545405387878,3.223153829574585
329,799538,799539,-0.17165741324424744,-0.05319960415363312,1.0455669164657593,-14.851469039916992,-8.694452285766602,2.1649703979492188,-0.577471137046814,-0.8474575877189636,-0.30748462677001953,-0.7743276953697205,-0.8605583906173706,3.2406110763549805
330,799548,799549,-0.14514343440532684,-0.02700839750468731,1.0480170249938965,2.187694549560547,-6.49095344543457,0.046299513429403305,-0.5639718174934387,-0.8549572229385376,-0.31798410415649414,-0.7270258665084839,-0.7902892231941223,3.262929916381836
331,799558,799559,-0.18555548787117004,0.03591233119368553,1.0513246059417725,19.356531143188477,-4.371311187744141,-1.9093698263168335,-0.5789710283279419,-0.8429578542709351,-0.3029848337173462,-0.7048968076705933,-0.44847238063812256,3.274054527282715
332,799568,799569,-0.18681716918945312,-0.055252157151699066,1.050048589706421,29.04257583618164,-1.6384985446929932,-1.8098886013031006,-0.5864706635475159,-0.8564571738243103,-0.2924853563308716,-0.7244866490364075,-0.10119177401065826,3.2655715942382812
333,799578,799579,-0.05357824265956879,-0.06083574891090393,1.0124441385269165,28.988262176513672,-0.11063610762357712,-3.903740882873535,-0.5879706144332886,-0.8609569072723389,-0.30898454785346985,-0.7080712914466858,0.08826771378517151,3.226435422897339
334,799588,799589,-0.07015477120876312,0.03626742213964462,1.048858642578125,23.45563316345215,-2.5567545890808105,-5.416595458984375,-0.5729713439941406,-0.8609569072723389,-0.29998499155044556,-0.7471407055854797,0.3570438325405121,3.1835696697235107
335,799598,799599,-0.31088390946388245,-0.10933032631874084,1.0070693492889404,17.924327850341797,-4.312475681304932,-5.449414253234863,-0.5849707126617432,-0.8609569072723389,-0.3149842321872711,-0.6751793622970581,0.5493676066398621,3.124681234359741
336,799608,799609,-0.8536816835403442,-0.27413666248321533,1.0135878324508667,9.67094612121582,-4.626734256744385,-4.140944004058838,-0.5939702987670898,-0.8549572229385376,-0.3149842321872711,-0.6558330655097961,0.7573944330215454,3.086104393005371
337,799618,799619,-0.39651867747306824,-0.11197646707296371,1.030205488204956,0.2792249023914337,-4.5181050300598145,-2.7150800228118896,-0.5804709792137146,-0.8564571738243103,-0.3134843111038208,-0.5628068447113037,0.6699749231338501,3.0394537448883057
338,799628,799629,-0.13429774343967438,-0.10825733095407486,1.0319124460220337,-8.998453140258789,-3.0152201652526855,-2.4473798274993896,-0.5864706635475159,-0.8594570159912109,-0.30748462677001953,-0.557540237903595,0.5750036239624023,3.0121514797210693
339,799638,799639,0.008947331458330154,0.032145630568265915,1.0388542413711548,-16.438304901123047,1.266902208328247,-2.282357931137085,-0.5744712948799133,-0.8384580612182617,-0.3164841830730438,-0.4601201117038727,0.36028116941452026,2.979498863220215
340,799648,799649,-0.06502146273851395,0.025773601606488228,1.0303291082382202,-18.438976287841797,0.7021503448486328,-1.276705265045166,-0.5909704566001892,-0.8459576964378357,-0.29098543524742126,-0.5328264832496643,0.21695329248905182,2.9638309478759766
341,799658,799659,-0.06456363201141357,-0.1606801152229309,0.9660079479217529,-18.188432693481445,0.9566136002540588,1.0380640029907227,-0.5879706144332886,-0.8429578542709351,-0.28798559308052063,-0.5436534285545349,-0.08969059586524963,2.9519286155700684
342,799668,799669,-0.06070354953408241,-0.01928989216685295,1.013048768043518,-9.894798278808594,-0.8811138272285461,2.1438539028167725,-0.5879706144332886,-0.8459576964378357,-0.2939853072166443,-0.5863780379295349,-0.2228001207113266,2.9648449420928955
343,799678,799679,-0.08332732319831848,-0.10475485771894455,0.9743785858154297,-3.2204718589782715,-0.7987222075462341,2.9158120155334473,-0.5804709792137146,-0.8384580612182617,-0.3014849126338959,-0.5487316846847534,-0.2522515058517456,2.993007183074951
344,799688,799689,-0.041154686361551285,0.022598231211304665,1.005090355873108,7.351413726806641,-0.446185827255249,4.390872955322266,-0.5789710283279419,-0.8279585838317871,-0.3059847056865692,-0.5317910313606262,-0.19253897666931152,3.0369815826416016
345,799698,799699,-0.14695850014686584,-0.014972906559705734,1.0484225749969482,14.925881385803223,-5.666004657745361,5.696992874145508,-0.5864706635475159,-0.8474575877189636,-0.3014849126338959,-0.4688844680786133,0.01313946582376957,3.096781015396118
346,799708,799709,-0.05425019562244415,0.0508173331618309,0.9983400106430054,16.52474021911621,-12.965978622436523,6.799476623535156,-0.5819708704948425,-0.8429578542709351,-0.3059847056865692,-0.29373425245285034,0.2780304253101349,3.1686525344848633
347,799718,799719,-0.2461678832769394,-0.17809173464775085,1.0219957828521729,17.471010208129883,-19.912187576293945,6.4133477210998535,-0.5864706635475159,-0.844457745552063,-0.2924853563308716,-0.15754945576190948,0.4066312909126282,3.231205463409424
348,799728,799729,-0.3147798776626587,-0.18677349388599396,0.9945908784866333,17.47850227355957,-24.758718490600586,6.882266521453857,-0.56997150182724,-0.8489575386047363,-0.3059847056865692,0.15536782145500183,0.6205358505249023,3.2980761528015137
349,799738,799739,-0.3438622057437897,-0.05779862403869629,1.004844307899475,12.998383522033691,-25.01863670349121,7.978972434997559,-0.5729713439941406,-0.8399580121040344,-0.3029848337173462,0.5762794017791748,0.7861368656158447,3.3733744621276855
350,799748,799749,-0.120258629322052,-0.0005723761860281229,0.9637479782104492,2.3104066848754883,-18.249414443969727,9.188092231750488,-0.5804709792137146,-0.8714563846588135,-0.31048446893692017,0.49825507402420044,0.8173298239707947,3.453437089920044
351,799758,799759,-0.0768158808350563,-0.0369686633348465,0.9793164134025574,-4.2931928634643555,-9.964398384094238,10.352343559265137,-0.577471137046814,-0.8534573316574097,-0.3164841830730438,0.7436264753341675,0.7838987708091736,3.551849842071533
352,799768,799769,-0.05510706827044487,0.024843521416187286,0.9688796401023865,-9.753535270690918,1.5685396194458008,10.72665786743164,-0.5744712948799133,-0.8564571738243103,-0.3014849126338959,0.6007282733917236,0.5816723108291626,3.6508119106292725
353,799778,799779,-0.03102247230708599,0.04233834147453308,0.9654932618141174,-11.058197021484375,10.111600875854492,10.390384674072266,-0.5789710283279419,-0.8459576964378357,-0.3029848337173462,0.5106267929077148,0.4033239185810089,3.7576286792755127
354,799788,799789,-0.10086092352867126,-0.06740068644285202,0.9901129603385925,-13.209364891052246,16.748371124267578,8.799517631530762,-0.56997150182724,-0.8429578542709351,-0.3239837884902954,0.30520230531692505,0.2696794271469116,3.8525137901306152
355,799798,799799,-0.10529917478561401,0.06659794598817825,0.9859206676483154,-8.858814239501953,20.501306533813477,6.0226216316223145,-0.5714713931083679,-0.8534573316574097,-0.3044847846031189,0.17056113481521606,0.1717212200164795,3.9283642768859863
356,799808,799809,-0.008398998528718948,-0.026771752163767815,0.9738239645957947,-3.939408540725708,15.65972900390625,3.9796600341796875,-0.577471137046814,-0.8474575877189636,-0.3044847846031189,-0.1044582650065422,0.22136150300502777,3.9702346324920654
357,799818,799819,-0.08270683139562607,0.03349313512444496,0.9941960573196411,0.6551925539970398,3.9537031650543213,2.7517266273498535,-0.5894705057144165,-0.8414579033851624,-0.3044847846031189,-0.1580522060394287,0.19748665392398834,4.005053997039795
358,799828,799829,-0.10410097986459732,-0.011050811037421227,0.9878390431404114,5.232507228851318,-8.57479190826416,2.4267170429229736,-0.5789710283279419,-0.8339582681655884,-0.29098543524742126,-0.012361418455839157,0.24323973059654236,4.034167289733887
359,799838,799839,-0.06753397732973099,0.02166716195642948,0.9854675531387329,6.642632484436035,-15.80296802520752,3.437948226928711,-0.577471137046814,-0.8294585347175598,-0.29848507046699524,0.214834526181221,0.34925898909568787,4.064455509185791
360,799848,799849,-0.12579607963562012,-0.008191846311092377,0.9914388060569763,4.053821563720703,-20.472436904907227,3.353806734085083,-0.577471137046814,-0.8354582190513611,-0.2924853563308716,0.3906043767929077,0.4264894425868988,4.0983686447143555
361,799858,799859,-0.06727872043848038,0.010944840498268604,0.9826947450637817,-1.243749737739563,-21.391460418701172,2.0114409923553467,-0.577471137046814,-0.8414579033851624,-0.3044847846031189,0.7504599094390869,0.4319470226764679,4.132730960845947
362,799868,799869,-0.30593055486679077,0.014924608170986176,0.9663488268852234,-6.427666187286377,-18.033172607421875,1.3743618726730347,-0.5819708704948425,-0.851957380771637,-0.2939853072166443,0.7946689128875732,0.3439185917377472,4.143064022064209
363,799878,799879,-0.4034312665462494,-0.151147723197937,1.0024361610412598,-9.177769660949707,-9.31543254852295,1.6738569736480713,-0.5684715509414673,-0.8324583768844604,-0.2864856719970703,1.015146255493164,0.21696077287197113,4.168835163116455
364,799888,799889,-0.24268440902233124,-0.0012681580847129226,0.9728516936302185,-11.767070770263672,0.35436761379241943,0.8844767212867737,-0.5684715509414673,-0.844457745552063,-0.2864856719970703,0.8668835163116455,0.158624067902565,4.16523551940918
365,799898,799899,-0.1157294437289238,0.007484130561351776,0.9822179079055786,-6.972514629364014,10.031347274780273,-0.000304336310364306,-0.5654717087745667,-0.8234587907791138,-0.28948551416397095,0.841569185256958,0.0030279613565653563,4.178248882293701
366,799908,799909,-0.05255547910928726,-0.006542284041643143,0.9911523461341858,-3.1712260246276855,14.478418350219727,-0.27361229062080383,-0.5684715509414673,-0.8294585347175598,-0.31048446893692017,0.6409128308296204,-0.08682619035243988,4.174619197845459
367,799918,799919,-0.05854671820998192,-0.021106824278831482,0.9538617134094238,3.913879871368408,13.654214859008789,0.5795226097106934,-0.5804709792137146,-0.8354582190513611,-0.3014849126338959,0.5582262873649597,-0.07441125810146332,4.180447578430176
368,799928,799929,-0.07159102708101273,0.061790626496076584,0.9929327964782715,12.012239456176758,7.508177757263184,2.4660539627075195,-0.5729713439941406,-0.8279585838317871,-0.2969851493835449,0.3958722651004791,0.12645214796066284,4.1782450675964355
369,799938,799939,-0.04943178594112396,-0.02576499804854393,0.948293924331665,13.544511795043945,0.3352501690387726,4.8744001388549805,-0.5744712948799133,-0.8354582190513611,-0.2954852283000946,0.4239714443683624,0.26093611121177673,4.2167205810546875
370,799948,799949,-0.05927973613142967,0.02685031108558178,0.9566165804862976,8.409689903259277,-6.169336795806885,6.369602680206299,-0.5684715509414673,-0.8414579033851624,-0.3044847846031189,0.48773813247680664,0.42601248621940613,4.270928382873535
371,799958,799959,-0.0860859602689743,-0.048692211508750916,0.9567971229553223,2.5835206508636475,-12.553055763244629,7.158273696899414,-0.5789710283279419,-0.8339582681655884,-0.2969851493835449,0.720193088054657,0.4885157644748688,4.3393354415893555
372,799968,799969,-0.061036109924316406,-0.11804614216089249,0.9695672988891602,-7.509690761566162,-18.17292594909668,7.56113338470459,-0.56997150182724,-0.8399580121040344,-0.30898454785346985,0.8372085094451904,0.42009851336479187,4.414894104003906
373,799978,799979,-0.05814820155501366,-0.050674982368946075,0.9432730078697205,-18.22404670715332,-18.296945571899414,7.745238304138184,-0.562471866607666,-0.844457745552063,-0.2924853563308716,1.0648436546325684,0.18739742040634155,4.507174491882324
374,799988,799989,-0.19018948078155518,-0.03646860271692276,0.9605575203895569,-24.93748664855957,-14.623574256896973,7.54504919052124,-0.5579720735549927,-0.836958110332489,-0.3059847056865692,1.1856153011322021,-0.05590362846851349,4.582978248596191
375,799998,799999,-0.08975117653608322,-0.0005371861043386161,0.942467987537384,-25.924530029296875,-5.767817497253418,7.374541282653809,-0.5744712948799133,-0.8324583768844604,-0.30748462677001953,1.2701529264450073,-0.4227200746536255,4.674422740936279
376,800008,800009,-0.024648070335388184,0.019298702478408813,0.910330057144165,-24.247465133666992,4.271114826202393,6.947935581207275,-0.5609719157218933,-0.8399580121040344,-0.29998499155044556,1.267704725265503,-0.6065096259117126,4.735499382019043
377,800018,800019,-0.12325536459684372,-0.1494164913892746,0.9605106115341187,-22.737709045410156,12.63949203491211,5.366898536682129,-0.562471866607666,-0.8234587907791138,-0.3014849126338959,1.1165531873703003,-0.779874324798584,4.786040306091309
378,800028,800029,-0.13025011122226715,-0.057540807873010635,1.0046055316925049,-22.044668197631836,19.76844024658203,1.3881497383117676,-0.5684715509414673,-0.8354582190513611,-0.3044847846031189,0.8350638747215271,-1.0925498008728027,4.83207368850708
379,800038,800039,-0.088197723031044,0.02909691445529461,0.9484338164329529,-15.945931434631348,23.870174407958984,-3.0106799602508545,-0.5504724383354187,-0.8264586329460144,-0.31048446893692017,0.7386680245399475,-1.178719401359558,4.7990522384643555
380,800048,800049,-0.14273622632026672,-0.05025871843099594,0.9142944812774658,-11.101651191711426,23.45980453491211,-5.462897777557373,-0.5609719157218933,-0.8339582681655884,-0.29998499155044556,0.3349030911922455,-1.3434581756591797,4.758950233459473
381,800058,800059,-0.11094067245721817,-0.014622132293879986,0.939742922782898,-1.3281840085983276,18.829246520996094,-6.9132795333862305,-0.5609719157218933,-0.8309584259986877,-0.3059847056865692,0.2325609177350998,-1.3619205951690674,4.680261135101318
382,800068,800069,-0.36351338028907776,-0.13465313613414764,0.9486430287361145,5.521289348602295,14.555529594421387,-8.54538345336914,-0.5669716596603394,-0.8339582681655884,-0.3029848337173462,0.037749044597148895,-1.3205785751342773,4.599548816680908
383,800078,800079,-0.5146713852882385,-0.03171716257929802,0.9737640619277954,9.690460205078125,12.708610534667969,-9.453349113464355,-0.5714713931083679,-0.8324583768844604,-0.3014849126338959,-0.18139006197452545,-1.1799886226654053,4.504100322723389
384,800088,800089,-0.1528855264186859,0.07312234491109848,0.9932157397270203,13.206624984741211,12.034148216247559,-10.442889213562012,-0.5639718174934387,-0.8549572229385376,-0.31798410415649414,-0.16397973895072937,-1.078202247619629,4.388715744018555
385,800098,800099,-0.03250223398208618,-0.04920313507318497,1.0195869207382202,14.498124122619629,7.560290336608887,-12.472887992858887,-0.562471866607666,-0.844457745552063,-0.30748462677001953,-0.2576756179332733,-0.8343227505683899,4.258968830108643
386,800108,800109,-0.10707768052816391,0.15417684614658356,1.0175280570983887,13.519035339355469,0.09655420482158661,-12.829405784606934,-0.5594720244407654,-0.8534573316574097,-0.3014849126338959,-0.3065347373485565,-0.7463405132293701,4.139054775238037
387,800118,800119,-0.9434500932693481,-0.33541345596313477,0.9873993992805481,5.947505474090576,-3.785975456237793,-13.638205528259277,-0.5609719157218933,-0.8669566512107849,-0.31798410415649414,-0.2782984673976898,-0.6073756217956543,4.000997543334961
388,800128,800129,-0.8798061013221741,-1.011396050453186,1.0064340829849243,0.6310503482818604,-13.130143165588379,-14.299660682678223,-0.5729713439941406,-0.851957380771637,-0.30898454785346985,-0.13784249126911163,-0.6385939717292786,3.8568243980407715
389,800138,800139,-0.41973546147346497,-0.6921536326408386,1.014278769493103,-3.459996223449707,-24.86880874633789,-14.14030933380127,-0.5669716596603394,-0.8669566512107849,-0.3119843900203705,0.042086873203516006,-0.886107861995697,3.739565849304199
390,800148,800149,-1.0235275030136108,-0.7670273780822754,0.9870576858520508,-2.931771993637085,-33.482704162597656,-12.633770942687988,-0.5534723401069641,-0.8624568581581116,-0.3044847846031189,0.4538916051387787,-0.8543009757995605,3.5886828899383545
391,800158,800159,-0.9514264464378357,-0.4152415692806244,1.0301856994628906,1.4282852411270142,-36.161048889160156,-10.197688102722168,-0.5519723892211914,-0.8639568090438843,-0.30898454785346985,0.807682991027832,-0.8655555844306946,3.4788434505462646
392,800168,800169,-0.18747293949127197,-0.04730306193232536,1.0302609205245972,6.515929698944092,-30.70458221435547,-6.124927520751953,-0.5669716596603394,-0.8579570651054382,-0.3209839463233948,1.2772616147994995,-0.7844585180282593,3.3791568279266357
393,800178,800179,-0.04524713382124901,0.15825043618679047,1.0413240194320679,10.741341590881348,-20.779951095581055,-2.2567062377929688,-0.5594720244407654,-0.8684565424919128,-0.31048446893692017,1.5485705137252808,-0.6233802437782288,3.3350989818573
394,800188,800189,-0.209286630153656,0.05451825633645058,1.0532708168029785,10.632539749145508,2.9474165439605713,0.590869128704071,-0.5579720735549927,-0.8609569072723389,-0.31798410415649414,1.4256312847137451,-0.588524580001831,3.3693618774414062
395,800198,800199,-0.12912443280220032,0.01133901346474886,1.0441778898239136,9.347029685974121,28.066204071044922,1.7993574142456055,-0.5609719157218933,-0.851957380771637,-0.3119843900203705,1.0673091411590576,-0.5465139746665955,3.41759991645813
396,800208,800209,-0.04389987140893936,0.05690506100654602,1.031579852104187,4.387188911437988,47.90338897705078,2.94755482673645,-0.5594720244407654,-0.8474575877189636,-0.3164841830730438,0.6888330578804016,-0.48525261878967285,3.4356956481933594
397,800218,800219,-0.04360079765319824,-0.019445696845650673,1.0293638706207275,0.3802371919155121,59.264156341552734,4.8958868980407715,-0.5639718174934387,-0.8549572229385376,-0.3029848337173462,-0.0028598320204764605,-0.4385521113872528,3.4883627891540527
398,800228,800229,-0.08283457159996033,-0.08903729915618896,1.0498096942901611,-1.857020616531372,57.186065673828125,6.587489604949951,-0.5639718174934387,-0.8549572229385376,-0.3029848337173462,-0.8126954436302185,-0.43723371624946594,3.570892572402954
399,800238,800239,-0.02336561121046543,-0.09573454409837723,1.0543649196624756,-1.8985629081726074,48.2170524597168,7.619685173034668,-0.5639718174934387,-0.8549572229385376,-0.3029848337173462,-1.2347800731658936,-0.43790939450263977,3.6246135234832764
400,800248,800249,-0.10319499671459198,0.20316681265830994,1.026698350906372,-1.1981192827224731,27.40283966064453,7.472505569458008,-0.5744712948799133,-0.8714563846588135,-0.31048446893692017,-1.6066490411758423,-0.43521684408187866,3.6975996494293213
401,800258,800259,-0.05232637748122215,0.034570060670375824,1.052901029586792,-3.385045289993286,8.30954360961914,6.759886741638184,-0.5819708704948425,-0.8699564933776855,-0.31798410415649414,-1.6583056449890137,-0.46498405933380127,3.75048828125
402,800268,800269,-0.1750403642654419,0.051472652703523636,1.0595568418502808,-0.522262454032898,-8.364239692687988,5.722921371459961,-0.577471137046814,-0.8564571738243103,-0.3164841830730438,-1.6266266107559204,-0.47486305236816406,3.810115337371826
403,800278,800279,-0.25824856758117676,-0.02315654419362545,1.0424286127090454,2.8681132793426514,-20.423259735107422,4.184696197509766,-0.5729713439941406,-0.8609569072723389,-0.3209839463233948,-1.349295735359192,-0.5088902115821838,3.844910144805908
404,800288,800289,-0.5590518712997437,-0.17175908386707306,1.036439299583435,5.492746829986572,-27.39971160888672,2.8991048336029053,-0.5729713439941406,-0.8609569072723389,-0.3059847056865692,-1.003235936164856,-0.4981631338596344,3.868642807006836
405,800298,800299,-0.1879124790430069,-0.1121627539396286,1.049108624458313,12.544329643249512,-28.840028762817383,0.9780986309051514,-0.5714713931083679,-0.8744562864303589,-0.32848358154296875,-0.6225091218948364,-0.3893086910247803,3.8776416778564453
406,800308,800309,-0.08844160288572311,-0.0503561794757843,1.0603145360946655,19.423519134521484,-23.222888946533203,0.3522205054759979,-0.5744712948799133,-0.8624568581581116,-0.31048446893692017,-0.5446951389312744,-0.23520371317863464,3.9068009853363037
407,800318,800319,-0.649451494216919,-0.5801621675491333,1.038543462753296,27.493810653686523,-13.12053394317627,-0.12922164797782898,-0.5804709792137146,-0.8654567003250122,-0.31048446893692017,-0.2536139190196991,0.19152313470840454,3.9110143184661865
408,800328,800329,-1.0151711702346802,-0.8666850328445435,1.0645263195037842,33.212646484375,-2.3094427585601807,-0.5438075661659241,-0.577471137046814,-0.8534573316574097,-0.31048446893692017,-0.28192636370658875,0.3490774929523468,3.9007058143615723
409,800338,800339,-0.8392959237098694,-0.8943361639976501,1.0708352327346802,32.09701156616211,5.720413684844971,0.07978011667728424,-0.577471137046814,-0.8594570159912109,-0.31048446893692017,-0.32895758748054504,0.634490966796875,3.898468255996704
410,800348,800349,-0.14877863228321075,-0.17994095385074615,1.0144413709640503,27.453428268432617,9.91989517211914,-1.2358657121658325,-0.5684715509414673,-0.8534573316574097,-0.3224838674068451,-0.4545525312423706,1.0736750364303589,3.909456253051758
411,800358,800359,-0.24737203121185303,0.07211804389953613,1.015621304512024,18.615554809570312,11.187723159790039,-2.508493185043335,-0.5849707126617432,-0.8639568090438843,-0.29998499155044556,-0.6179830431938171,1.1091865301132202,3.875680446624756
412,800368,800369,-0.19291923940181732,-0.03452334925532341,1.0477476119995117,4.301165580749512,6.369647979736328,-2.019683837890625,-0.5864706635475159,-0.8594570159912109,-0.3164841830730438,-0.6628293991088867,1.2477319240570068,3.8552322387695312
413,800378,800379,-0.07066204398870468,0.009423340670764446,1.0342739820480347,-7.419769287109375,-0.9122049808502197,-3.304037094116211,-0.577471137046814,-0.8564571738243103,-0.3014849126338959,-0.6735898852348328,1.1629407405853271,3.823418140411377
414,800388,800389,-0.017855707556009293,0.04835303872823715,1.0061554908752441,-14.753832817077637,-7.264313220977783,-3.886914014816284,-0.5594720244407654,-0.8624568581581116,-0.3164841830730438,-0.5848342776298523,1.0009745359420776,3.7827446460723877
415,800398,800399,-0.09952915459871292,-0.04837203025817871,1.0388950109481812,-16.478897094726562,-9.320186614990234,-4.6228928565979,-0.5714713931083679,-0.8624568581581116,-0.30748462677001953,-0.4383998513221741,0.7646582722663879,3.732739210128784
416,800408,800409,-0.14477840065956116,0.08087539672851562,1.0046191215515137,-14.490381240844727,-8.430807113647461,-6.335360527038574,-0.5789710283279419,-0.851957380771637,-0.3059847056865692,-0.35986045002937317,0.6158464550971985,3.6748785972595215
417,800418,800419,-0.10844465345144272,-0.031011641025543213,1.012853980064392,-10.411937713623047,-7.295491695404053,-8.226156234741211,-0.56997150182724,-0.8579570651054382,-0.31798410415649414,-0.3546017110347748,0.4439513683319092,3.585238218307495
418,800428,800429,-0.8574100136756897,-0.059631530195474625,1.026210904121399,-3.0210161209106445,-4.427029132843018,-8.087495803833008,-0.5744712948799133,-0.844457745552063,-0.31048446893692017,-0.24624505639076233,0.45997923612594604,3.5166690349578857
419,800438,800439,-0.33223870396614075,0.04135283827781677,1.0051687955856323,4.23630952835083,-2.496183156967163,-10.01989459991455,-0.5759711861610413,-0.8639568090438843,-0.3059847056865692,-0.1851729452610016,0.4993070363998413,3.432964324951172
420,800448,800449,-0.0800541564822197,-0.013912362977862358,1.0321805477142334,16.643705368041992,-0.27681487798690796,-10.775346755981445,-0.5879706144332886,-0.8459576964378357,-0.29998499155044556,-0.15016280114650726,0.6966954469680786,3.3368146419525146
421,800458,800459,-0.02315615303814411,-0.14064039289951324,1.0087738037109375,23.694639205932617,-0.4792991280555725,-9.754411697387695,-0.5894705057144165,-0.8474575877189636,-0.29848507046699524,-0.13747261464595795,0.9830050468444824,3.2407233715057373
422,800468,800469,-0.15137068927288055,-0.05888218805193901,1.0516343116760254,22.214746475219727,-2.5011565685272217,-8.595148086547852,-0.5984700918197632,-0.850457489490509,-0.31048446893692017,-0.308193176984787,1.1742480993270874,3.1241629123687744
423,800478,800479,-0.21885928511619568,0.00815863348543644,1.013757348060608,16.852840423583984,-5.718494415283203,-7.77900505065918,-0.5729713439941406,-0.8399580121040344,-0.2969851493835449,-0.21593153476715088,1.2953537702560425,3.0409321784973145
424,800488,800489,-0.22530803084373474,-0.03488999232649803,1.0148820877075195,10.22872257232666,-8.173680305480957,-4.835787296295166,-0.577471137046814,-0.8474575877189636,-0.30748462677001953,-0.09361693263053894,1.5278798341751099,2.9931344985961914
425,800498,800499,-0.27304360270500183,-0.2205430567264557,1.0042493343353271,-0.9447200298309326,-9.146868705749512,-2.7213664054870605,-0.5954701900482178,-0.850457489490509,-0.30748462677001953,-0.005160679575055838,1.454649567604065,2.9410555362701416
426,800508,800509,-0.17599952220916748,-0.1156221255660057,0.9716974496841431,-8.13719367980957,-7.187155246734619,-1.1508634090423584,-0.5759711861610413,-0.8549572229385376,-0.2969851493835449,0.13364699482917786,1.382991909980774,2.9287607669830322
427,800518,800519,-0.7078522443771362,-0.09833335876464844,0.989281415939331,-6.646554946899414,-4.32646369934082,0.031282972544431686,-0.5924703478813171,-0.8474575877189636,-0.3014849126338959,0.22775594890117645,1.2600886821746826,2.925875186920166
428,800528,800529,-0.4152986407279968,-0.24367401003837585,0.9939863085746765,-2.0590240955352783,-3.8890812397003174,2.1898601055145264,-0.5834708213806152,-0.850457489490509,-0.3044847846031189,0.036035630851984024,1.2889556884765625,2.898176431655884
429,800538,800539,-0.04000633955001831,-0.07261110842227936,0.9453200101852417,1.8406565189361572,-3.834559202194214,3.359833002090454,-0.5804709792137146,-0.8384580612182617,-0.30748462677001953,0.12043125927448273,1.3108408451080322,2.9390523433685303
430,800548,800549,-0.10851103812456131,0.02509036846458912,0.9644289016723633,0.632693350315094,-6.709760665893555,2.943955183029175,-0.5864706635475159,-0.8324583768844604,-0.31048446893692017,0.22354456782341003,1.3385813236236572,2.982564687728882
431,800558,800559,-0.20619428157806396,-0.04783044755458832,0.9460979700088501,-5.9794721603393555,-9.272517204284668,3.563999891281128,-0.5864706635475159,-0.8354582190513611,-0.2954852283000946,0.3729225993156433,1.3649178743362427,3.0295839309692383
432,800568,800569,-0.30428168177604675,-0.07833480834960938,0.9889947175979614,-9.225920677185059,-11.615250587463379,2.487867832183838,-0.5819708704948425,-0.8399580121040344,-0.29998499155044556,0.5738748908042908,1.2380058765411377,3.07647442817688
433,800578,800579,-0.583942174911499,-0.17733782529830933,0.9427209496498108,-10.239144325256348,-9.700387001037598,1.0335545539855957,-0.5759711861610413,-0.8489575386047363,-0.29998499155044556,0.6786535978317261,1.1357098817825317,3.0932841300964355
434,800588,800589,-0.2237171232700348,-0.030958013609051704,0.9735016822814941,-7.634221076965332,-3.9190587997436523,-0.236797034740448,-0.5654717087745667,-0.8354582190513611,-0.3014849126338959,0.7919243574142456,0.9908351302146912,3.1068406105041504
435,800598,800599,-0.016321919858455658,0.03581605851650238,0.9755569696426392,-2.1716556549072266,3.3498194217681885,-1.793078064918518,-0.5819708704948425,-0.8399580121040344,-0.3059847056865692,0.6503314971923828,0.9901847243309021,3.0600197315216064
436,800608,800609,-0.130214661359787,0.029613371938467026,0.9983607530593872,0.4156833589076996,12.648384094238281,-1.5098247528076172,-0.5744712948799133,-0.8354582190513611,-0.3014849126338959,0.51453697681427,0.9722087383270264,3.036156177520752
437,800618,800619,-0.07115375995635986,0.04397306218743324,0.9771689176559448,8.680655479431152,20.23382568359375,-2.2714667320251465,-0.577471137046814,-0.8474575877189636,-0.3014849126338959,0.24028775095939636,1.1169413328170776,2.9917612075805664
438,800628,800629,-0.28638187050819397,-0.07494287937879562,0.9759886860847473,14.935340881347656,22.67380142211914,-2.0726499557495117,-0.5834708213806152,-0.8474575877189636,-0.30748462677001953,0.03757663816213608,1.2377320528030396,2.9804537296295166
439,800638,800639,-0.2394595891237259,-0.12253713607788086,0.9808474779129028,12.230875968933105,17.681230545043945,-3.307399034500122,-0.5759711861610413,-0.851957380771637,-0.2969851493835449,-0.2739918828010559,1.4461970329284668,2.931095838546753
440,800648,800649,-0.15727347135543823,0.00232101627625525,0.9763877391815186,6.421866416931152,8.331607818603516,-5.0991644859313965,-0.5849707126617432,-0.851957380771637,-0.3029848337173462,-0.16782471537590027,1.51425302028656,2.947096824645996
441,800658,800659,-0.08340367674827576,0.12655460834503174,0.9751903414726257,-5.645392417907715,-2.515753746032715,-8.280014991760254,-0.5849707126617432,-0.8399580121040344,-0.3059847056865692,-0.2180752158164978,1.42976975440979,2.877164363861084
442,800668,800669,-0.002927536377683282,-0.002412873785942793,0.9489691853523254,-20.443925857543945,-11.759163856506348,-9.76397705078125,-0.5834708213806152,-0.8534573316574097,-0.2954852283000946,-0.13085229694843292,1.256273865699768,2.788485050201416
443,800678,800679,-0.06874026358127594,-0.04806419461965561,1.0331943035125732,-33.13473129272461,-16.402088165283203,-10.970221519470215,-0.5609719157218933,-0.851957380771637,-0.3029848337173462,0.048436157405376434,0.9148933291435242,2.689687490463257
444,800688,800689,-0.03983030468225479,-0.13760779798030853,0.9133121967315674,-39.338768005371094,-16.87297248840332,-12.471391677856445,-0.562471866607666,-0.8624568581581116,-0.3134843111038208,0.26749521493911743,0.5694472193717957,2.5826425552368164
445,800698,800699,-0.0862739160656929,-0.010198267176747322,0.9883473515510559,-36.52232360839844,-12.755452156066895,-12.93624210357666,-0.56997150182724,-0.8489575386047363,-0.29998499155044556,0.5060416460037231,0.28995612263679504,2.47060227394104
446,800708,800709,-0.05450397729873657,-0.002679266734048724,0.9946161508560181,-30.137916564941406,-6.5800251960754395,-12.967558860778809,-0.5684715509414673,-0.8474575877189636,-0.3134843111038208,0.5069448351860046,-0.006118823774158955,2.317988157272339
447,800718,800719,-0.023120099678635597,0.1577429324388504,1.0380969047546387,-14.998499870300293,-0.895656168460846,-13.001086235046387,-0.577471137046814,-0.844457745552063,-0.3044847846031189,0.5575807094573975,-0.27015209197998047,2.1925644874572754
448,800728,800729,-0.053693514317274094,0.03652764484286308,1.040177345275879,4.283070087432861,-0.0758347138762474,-10.29736328125,-0.56997150182724,-0.851957380771637,-0.3059847056865692,0.5640171766281128,-0.20777277648448944,2.0732221603393555
449,800738,800739,-0.0865585133433342,0.022091330960392952,1.0006463527679443,18.969648361206055,-0.38891661167144775,-8.196983337402344,-0.5654717087745667,-0.8564571738243103,-0.3044847846031189,0.5635784864425659,-0.02013522759079933,1.9804954528808594
450,800748,800749,-0.3670644760131836,-0.06086626276373863,1.0261621475219727,21.30669593811035,3.377761125564575,-5.508586406707764,-0.5894705057144165,-0.8534573316574097,-0.29848507046699524,0.47501546144485474,0.22076432406902313,1.8983869552612305
451,800758,800759,-0.23987188935279846,0.0014486851869150996,1.0300735235214233,14.329830169677734,9.415663719177246,-5.726485729217529,-0.5939702987670898,-0.851957380771637,-0.3029848337173462,0.36388111114501953,0.4633955955505371,1.832666039466858
452,800768,800769,-0.6524641513824463,-0.014325734227895737,1.0308306217193604,7.060417175292969,14.5679931640625,-8.094558715820312,-0.5729713439941406,-0.8489575386047363,-0.3149842321872711,0.2365875542163849,0.5837822556495667,1.7592248916625977
453,800778,800779,-0.5284031629562378,0.013367542997002602,1.009145736694336,-5.150665760040283,19.55413246154785,-10.383825302124023,-0.5834708213806152,-0.8414579033851624,-0.3014849126338959,-0.040678076446056366,0.47367456555366516,1.663352370262146
454,800788,800789,-0.18040026724338531,-0.03515337407588959,0.9906580448150635,-17.613399505615234,21.422616958618164,-12.936137199401855,-0.5864706635475159,-0.8354582190513611,-0.2954852283000946,-0.286561518907547,0.2360171228647232,1.5458979606628418
455,800798,800799,-0.2850152552127838,-0.6236448287963867,1.061462163925171,-25.366188049316406,23.369434356689453,-13.887714385986328,-0.577471137046814,-0.850457489490509,-0.3044847846031189,-0.49717044830322266,-0.08315128833055496,1.4182109832763672
456,800808,800809,-0.6234312057495117,-0.28668999671936035,1.0070487260818481,-27.39840316772461,22.804481506347656,-15.592405319213867,-0.5804709792137146,-0.844457745552063,-0.3014849126338959,-0.7024056315422058,-0.41091856360435486,1.2691690921783447
457,800818,800819,-0.22096310555934906,0.05482744053006172,1.040169596672058,-23.8267879486084,21.765544891357422,-17.629117965698242,-0.5969701409339905,-0.836958110332489,-0.3149842321872711,-0.9825478196144104,-0.42714524269104004,1.0857408046722412
458,800828,800829,-0.11372988671064377,-0.10933810472488403,0.9886027574539185,-17.94408416748047,15.484491348266602,-17.046751022338867,-0.5849707126617432,-0.836958110332489,-0.3029848337173462,-1.0992482900619507,-0.6573501825332642,0.9153459668159485
459,800838,800839,-0.14184513688087463,-0.09501234441995621,1.0015400648117065,-12.994075775146484,8.037345886230469,-19.14320182800293,-0.5999699831008911,-0.8549572229385376,-0.3059847056865692,-1.2449897527694702,-0.7247108221054077,0.7284082174301147
460,800848,800849,-0.3492400646209717,-0.1329542100429535,0.9859067797660828,-10.169527053833008,-0.18729472160339355,-18.305185317993164,-0.5999699831008911,-0.8429578542709351,-0.3119843900203705,-1.1913481950759888,-0.9470295906066895,0.5378453731536865
461,800858,800859,-0.1708262860774994,-0.0658305361866951,0.9906588196754456,-8.244282722473145,-10.13179874420166,-19.699949264526367,-0.5804709792137146,-0.8264586329460144,-0.3044847846031189,-1.0591868162155151,-0.986010730266571,0.34834325313568115
462,800868,800869,-0.10786382108926773,-0.035861872136592865,0.9980424642562866,-3.677826166152954,-21.82856559753418,-18.15650177001953,-0.5804709792137146,-0.8354582190513611,-0.30748462677001953,-0.8184888362884521,-0.9025934338569641,0.16813334822654724
463,800878,800879,-0.25486478209495544,-0.15538565814495087,1.0036664009094238,-1.638343334197998,-29.65323257446289,-17.66472053527832,-0.5939702987670898,-0.8339582681655884,-0.3029848337173462,-0.48863720893859863,-0.9859904646873474,-0.01348621305078268
464,800888,800889,-1.4062809944152832,-0.5348365902900696,0.9819545745849609,4.7569193840026855,-30.850549697875977,-16.325885772705078,-0.5924703478813171,-0.8294585347175598,-0.30748462677001953,-0.24670924246311188,-0.9940823316574097,-0.17738865315914154
465,800898,800899,-0.902915358543396,-0.23510733246803284,0.9865411520004272,12.402196884155273,-27.653718948364258,-15.118318557739258,-0.5879706144332886,-0.836958110332489,-0.3029848337173462,0.2583010196685791,-0.8820209503173828,-0.34597671031951904
466,800908,800909,-0.5621762275695801,-0.05147240310907364,0.9660994410514832,19.362932205200195,-22.26290512084961,-13.320302963256836,-0.5804709792137146,-0.8294585347175598,-0.29848507046699524,0.5909121036529541,-0.6492167115211487,-0.48675575852394104
467,800918,800919,-0.3515162467956543,-0.3185625672340393,0.9967337250709534,25.272130966186523,-14.430025100708008,-11.78921890258789,-0.5879706144332886,-0.8429578542709351,-0.3119843900203705,0.46563035249710083,-0.44956061244010925,-0.5747030377388
468,800928,800929,-0.10668043792247772,-0.19353771209716797,0.9668992757797241,27.231712341308594,-2.635413408279419,-10.636459350585938,-0.5804709792137146,-0.8594570159912109,-0.29848507046699524,0.532555878162384,-0.1940459907054901,-0.687242865562439
469,800938,800939,-0.27865999937057495,-0.09262768179178238,0.9422978162765503,28.196407318115234,2.26548171043396,-7.309765815734863,-0.5879706144332886,-0.8549572229385376,-0.29098543524742126,0.4197041988372803,0.08496800065040588,-0.7566108107566833
470,800948,800949,-0.5448146462440491,-0.23598645627498627,0.9181383848190308,26.033653259277344,8.669960021972656,-4.70329475402832,-0.5804709792137146,-0.844457745552063,-0.29848507046699524,0.3316003680229187,0.41596904397010803,-0.8121657371520996
471,800958,800959,-0.24309970438480377,-0.16542774438858032,0.9866498708724976,21.458906173706055,7.448650360107422,-1.2724617719650269,-0.5924703478813171,-0.8564571738243103,-0.31048446893692017,0.17712891101837158,0.6289118528366089,-0.8241479396820068
472,800968,800969,-0.25415149331092834,-0.04972269386053085,0.997823178768158,14.847786903381348,7.143266677856445,2.2783761024475098,-0.5924703478813171,-0.8564571738243103,-0.31048446893692017,0.10353069752454758,0.7502787709236145,-0.8170586228370667
