,timestamp_start,timestamp_end,acc.x,acc.y,acc.z,gyro.x,gyro.y,gyro.z,mag.x,mag.y,mag.z,stabilizer.pitch,stabilizer.roll,stabilizer.yaw
0,617978,617979,-0.5272312164306641,-0.058761224150657654,1.0520823001861572,48.00301742553711,8.81096076965332,2.2881224155426025,-0.616469144821167,-0.8414579033851624,-0.30748462677001953,-1.6027724742889404,0.9071685075759888,-1.3454699516296387
1,617988,617989,-0.2839578688144684,-0.021898530423641205,1.0668003559112549,39.58061981201172,8.562337875366211,-0.5331295728683472,-0.6014699339866638,-0.8624568581581116,-0.3134843111038208,-1.4736604690551758,1.0128871202468872,-1.3860687017440796
2,617998,617999,-0.22870413959026337,-0.15460458397865295,1.0071786642074585,18.394210815429688,1.3060153722763062,-1.0208609104156494,-0.5954701900482178,-0.8654567003250122,-0.32848358154296875,-1.428661823272705,1.3565610647201538,-1.4025944471359253
3,618008,618009,-0.05915560573339462,-0.4297861158847809,0.9696453809738159,-8.010961532592773,-12.776416778564453,-1.305774450302124,-0.5954701900482178,-0.8414579033851624,-0.31048446893692017,-1.2307031154632568,1.3316570520401,-1.4672621488571167
4,618018,618019,-0.24752360582351685,-0.6649470925331116,1.0155318975448608,-33.172428131103516,-24.353679656982422,-0.26838070154190063,-0.5819708704948425,-0.8429578542709351,-0.31798410415649414,-1.0017765760421753,1.1952670812606812,-1.5056180953979492
5,618028,618029,-0.43109744787216187,-0.5339534878730774,1.1022595167160034,-46.5797119140625,-36.22652816772461,0.03991762176156044,-0.5864706635475159,-0.850457489490509,-0.31948402523994446,-0.5989617109298706,0.7035672068595886,-1.5456680059432983
6,618038,618039,-0.924959123134613,-0.16480079293251038,1.0942306518554688,-45.68380355834961,-39.49354934692383,-0.5630428194999695,-0.5789710283279419,-0.8339582681655884,-0.3029848337173462,-0.18204963207244873,0.2958390712738037,-1.5329132080078125
7,618048,618049,-0.5449422001838684,-0.32933127880096436,1.0845311880111694,-34.17997741699219,-35.40031433105469,1.6068854331970215,-0.5849707126617432,-0.8399580121040344,-0.30898454785346985,0.27118536829948425,-0.3780021667480469,-1.5671143531799316
8,618058,618059,-0.4064178466796875,-0.02582508884370327,1.0048348903656006,-10.617535591125488,-17.50507354736328,3.2159152030944824,-0.5924703478813171,-0.8174591064453125,-0.31048446893692017,0.7266227602958679,-0.7587499022483826,-1.5444633960723877
9,618068,618069,-0.268841028213501,-0.01577869802713394,1.0348377227783203,14.78852367401123,1.4552518129348755,4.845804691314697,-0.5864706635475159,-0.8294585347175598,-0.31048446893692017,0.9850804805755615,-0.9139885306358337,-1.514817714691162
10,618078,618079,-0.24554304778575897,0.10969860106706619,1.0726014375686646,38.036712646484375,16.47018814086914,6.248246669769287,-0.5909704566001892,-0.8459576964378357,-0.3119843900203705,0.9729838967323303,-0.875966489315033,-1.4712170362472534
11,618088,618089,-0.4262675642967224,0.047234971076250076,1.1045973300933838,50.97627639770508,25.24795150756836,6.7716145515441895,-0.5879706144332886,-0.8579570651054382,-0.3149842321872711,0.7911648154258728,-0.4855726957321167,-1.4065428972244263
12,618098,618099,-0.13071206212043762,-0.052016694098711014,1.0940066576004028,53.394107818603516,25.549713134765625,8.38300609588623,-0.6044697761535645,-0.8534573316574097,-0.3164841830730438,0.7883181571960449,-0.29539456963539124,-1.3422232866287231
13,618108,618109,-0.15985910594463348,-0.060231685638427734,1.0610564947128296,40.489990234375,17.4552001953125,8.888659477233887,-0.5969701409339905,-0.8579570651054382,-0.31798410415649414,0.6726118326187134,-0.055669523775577545,-1.253495216369629
14,618118,618119,-0.1268877536058426,-0.08060896396636963,1.0613973140716553,24.46721839904785,2.990187406539917,10.154120445251465,-0.5984700918197632,-0.844457745552063,-0.29848507046699524,0.527560293674469,0.4953070878982544,-1.1745744943618774
15,618128,618129,-0.5527905821800232,-0.09442731738090515,1.0573806762695312,10.455107688903809,-7.210968017578125,10.98236083984375,-0.5894705057144165,-0.8474575877189636,-0.3134843111038208,0.3840939402580261,0.7238550186157227,-1.0702919960021973
16,618138,618139,-0.15974462032318115,-0.021382005885243416,1.0225518941879272,1.6234428882598877,-12.288921356201172,12.85128402709961,-0.6044697761535645,-0.8474575877189636,-0.30748462677001953,0.5435657501220703,0.7478817701339722,-0.9598253965377808
17,618148,618149,-0.0372115820646286,-0.0957997739315033,0.9691394567489624,-2.4281766414642334,-7.950580596923828,11.064557075500488,-0.5954701900482178,-0.8384580612182617,-0.3044847846031189,0.6935527324676514,0.8469383120536804,-0.8433271050453186
18,618158,618159,-0.06987666338682175,-0.11976604908704758,0.9606987833976746,-0.9978377819061279,0.9428510665893555,9.366412162780762,-0.6044697761535645,-0.8384580612182617,-0.30748462677001953,0.8442986011505127,0.8762174248695374,-0.7311137914657593
19,618168,618169,-0.23028875887393951,-0.22333434224128723,0.9807964563369751,5.881744861602783,9.745567321777344,8.354732513427734,-0.5984700918197632,-0.8474575877189636,-0.3134843111038208,0.8787108063697815,0.929350733757019,-0.6418250203132629
20,618178,618179,-0.17556758224964142,-0.14597278833389282,0.9707381129264832,12.94550895690918,17.390182495117188,8.494213104248047,-0.5924703478813171,-0.844457745552063,-0.3014849126338959,0.6459906697273254,0.808122992515564,-0.5553873181343079
21,618188,618189,-0.229473277926445,-0.1653357446193695,0.985284686088562,16.30048179626465,21.992637634277344,7.686742782592773,-0.6089695692062378,-0.836958110332489,-0.2939853072166443,0.5810410380363464,0.8733384013175964,-0.45569300651550293
22,618198,618199,-0.12654253840446472,-0.043500982224941254,0.9624007940292358,22.086294174194336,19.906126022338867,5.1289191246032715,-0.6074696183204651,-0.8354582190513611,-0.30748462677001953,0.2994047999382019,1.1352277994155884,-0.3911604881286621
23,618208,618209,-0.011390147730708122,-0.16726137697696686,1.0246597528457642,27.322437286376953,15.761409759521484,4.055844783782959,-0.6029698252677917,-0.836958110332489,-0.3029848337173462,0.4377710819244385,1.2061915397644043,-0.2743368446826935
24,618218,618219,-0.02915443480014801,-0.04105981066823006,1.0113662481307983,27.429214477539062,6.6420111656188965,2.15964412689209,-0.6104694604873657,-0.8294585347175598,-0.3044847846031189,0.2051827758550644,1.544338345527649,-0.2360055148601532
25,618228,618229,-0.21663813292980194,-0.0926877111196518,0.9944866895675659,26.874919891357422,-3.6490418910980225,0.4127517342567444,-0.6104694604873657,-0.8294585347175598,-0.3044847846031189,0.10187981277704239,1.892250657081604,-0.2086569368839264
26,618238,618239,-0.386581152677536,-0.3127698004245758,0.9922343492507935,21.94417381286621,-12.20511531829834,0.006800102535635233,-0.6104694604873657,-0.8294585347175598,-0.3044847846031189,0.1713029146194458,2.014564275741577,-0.17347057163715363
27,618248,618249,-0.5455344319343567,-0.15783315896987915,1.0145529508590698,16.988906860351562,-17.76091957092285,-1.8305140733718872,-0.6104694604873657,-0.8474575877189636,-0.3014849126338959,0.2887222468852997,2.268580675125122,-0.17134365439414978
28,618258,618259,-0.7380671501159668,-0.3291359841823578,0.9477494955062866,14.283538818359375,-19.143312454223633,-4.41048002243042,-0.5984700918197632,-0.8474575877189636,-0.30748462677001953,0.40615129470825195,2.31711745262146,-0.18701966106891632
29,618268,618269,-0.3900073766708374,-0.7388902306556702,0.9388433694839478,16.07436180114746,-12.673307418823242,-6.809340000152588,-0.6089695692062378,-0.8459576964378357,-0.3059847056865692,0.6051207780838013,2.6060876846313477,-0.23244720697402954
30,618278,618279,-0.11629582196474075,-0.7845618724822998,1.0003819465637207,21.579940795898438,-2.928054094314575,-7.75089693069458,-0.6104694604873657,-0.8564571738243103,-0.3044847846031189,0.7138952016830444,2.7015113830566406,-0.30027905106544495
31,618288,618289,-0.04149055853486061,-0.29824379086494446,0.9159190654754639,23.555469512939453,11.810286521911621,-7.797239780426025,-0.6059696674346924,-0.8549572229385376,-0.3059847056865692,0.8108518123626709,2.9346816539764404,-0.3710099458694458
32,618298,618299,-0.1277318298816681,-0.16265060007572174,0.8889699578285217,21.558759689331055,26.67237663269043,-8.268708229064941,-0.6014699339866638,-0.8624568581581116,-0.3014849126338959,0.6159676313400269,3.126795768737793,-0.48308196663856506
33,618308,618309,-0.40113505721092224,-0.5622145533561707,0.9115286469459534,14.208587646484375,34.786163330078125,-8.325809478759766,-0.6149692535400391,-0.8579570651054382,-0.31798410415649414,0.5579139590263367,3.2095797061920166,-0.48102521896362305
34,618318,618319,-0.21422430872917175,-0.2819738984107971,0.8707776665687561,5.10277795791626,37.20008850097656,-9.329888343811035,-0.6089695692062378,-0.8549572229385376,-0.3029848337173462,0.1412222981452942,3.5309228897094727,-0.5972898602485657
35,618328,618329,-0.1764543205499649,-0.11962667107582092,0.9207010269165039,-2.9846267700195312,34.19063186645508,-11.373137474060059,-0.6149692535400391,-0.8579570651054382,-0.3209839463233948,0.09760987758636475,3.6287717819213867,-0.5338777303695679
36,618338,618339,-0.23252323269844055,-0.0390315055847168,0.9697650074958801,-10.740190505981445,27.24312400817871,-12.433133125305176,-0.6119694113731384,-0.8639568090438843,-0.3209839463233948,-0.32361409068107605,3.581573486328125,-0.6446408629417419
37,618348,618349,-0.14611807465553284,-0.028763609007000923,1.0161257982254028,-13.626961708068848,19.878244400024414,-12.444864273071289,-0.6134693026542664,-0.850457489490509,-0.3164841830730438,-0.7276638746261597,3.482512950897217,-0.7921685576438904
38,618358,618359,-0.3020397424697876,-0.034149616956710815,0.993411123752594,-16.48771095275879,9.173022270202637,-10.30028247833252,-0.6209689378738403,-0.8699564933776855,-0.31798410415649414,-0.8565520644187927,3.3770086765289307,-0.8474940657615662
39,618368,618369,-0.08898379653692245,0.029527736827731133,1.1206861734390259,-17.999967575073242,0.22115977108478546,-9.612541198730469,-0.6074696183204651,-0.8684565424919128,-0.31048446893692017,-0.8876065611839294,3.2803895473480225,-0.9011811017990112
40,618378,618379,-0.4507811367511749,-0.12019217759370804,1.0607492923736572,-18.45405387878418,-7.9381585121154785,-9.154991149902344,-0.6149692535400391,-0.8699564933776855,-0.30898454785346985,-0.9028900265693665,3.1514294147491455,-0.9780164361000061
41,618388,618389,-0.6222977042198181,-0.1672816127538681,0.9946975111961365,-20.21291732788086,-5.0193657875061035,-9.6857328414917,-0.6179690957069397,-0.8609569072723389,-0.3149842321872711,-0.8776220083236694,3.00744366645813,-1.0881391763687134
42,618398,618399,-0.2729587256908417,-0.17385149002075195,1.022322654724121,-21.475006103515625,2.1914923191070557,-10.560433387756348,-0.622468888759613,-0.8474575877189636,-0.29848507046699524,-0.6832242012023926,2.6971206665039062,-1.1279598474502563
43,618408,618409,-0.0872727632522583,-0.8149269223213196,0.9938992857933044,-19.685956954956055,12.849628448486328,-11.579440116882324,-0.6194689869880676,-0.8654567003250122,-0.3044847846031189,-0.8266888856887817,2.519209384918213,-1.3028546571731567
44,618418,618419,-0.24904780089855194,-0.44478875398635864,0.9962525367736816,-12.900087356567383,22.670936584472656,-11.53882884979248,-0.6344682574272156,-0.850457489490509,-0.29848507046699524,-0.8482471108436584,2.296705722808838,-1.3745980262756348
45,618428,618429,-0.16527925431728363,-0.1762830913066864,0.9730241894721985,-5.383833885192871,27.008764266967773,-10.214738845825195,-0.6179690957069397,-0.851957380771637,-0.29998499155044556,-1.0201222896575928,2.2385995388031006,-1.4613233804702759
46,618438,618439,-0.30717411637306213,-0.0031324787996709347,0.9826761484146118,-0.36725887656211853,26.58411979675293,-9.523320198059082,-0.6374680995941162,-0.8294585347175598,-0.28948551416397095,-1.1282883882522583,2.1507554054260254,-1.4861822128295898
47,618448,618449,-0.6242833137512207,-0.19381803274154663,0.9312891364097595,5.617816925048828,24.54967498779297,-8.182585716247559,-0.6464676856994629,-0.8294585347175598,-0.2924853563308716,-1.4370087385177612,2.210935592651367,-1.5832260847091675
48,618458,618459,-0.43434998393058777,-0.6473724246025085,0.9516531229019165,10.07595443725586,23.2501163482666,-6.234447956085205,-0.6419678926467896,-0.8219588994979858,-0.29998499155044556,-1.5842013359069824,2.2849795818328857,-1.6120141744613647
49,618468,618469,-0.8166106939315796,-0.5866985321044922,0.9657219052314758,12.866446495056152,21.761255264282227,-6.509889602661133,-0.6419678926467896,-0.8339582681655884,-0.2939853072166443,-1.8568559885025024,2.4267420768737793,-1.672261357307434
50,618478,618479,-1.6380834579467773,-0.47399482131004333,0.904048502445221,9.984637260437012,21.060047149658203,-6.09589147567749,-0.6449677348136902,-0.8429578542709351,-0.2969851493835449,-1.9637759923934937,2.585925817489624,-1.6698038578033447
51,618488,618489,-1.155968427658081,0.11593643575906754,0.9899187088012695,0.4617719352245331,18.20072364807129,-3.6540415287017822,-0.6494675278663635,-0.8324583768844604,-0.3044847846031189,-2.195845603942871,2.662628650665283,-1.7373689413070679
52,618498,618499,-0.5489006042480469,-0.048696160316467285,0.9572576284408569,-14.102086067199707,14.789165496826172,-1.9263496398925781,-0.6494675278663635,-0.8324583768844604,-0.28948551416397095,-2.575521469116211,2.714017868041992,-1.8257288932800293
53,618508,618509,-0.3182332217693329,-0.6835805773735046,0.9272423982620239,-25.542236328125,10.568452835083008,-0.33854708075523376,-0.6494675278663635,-0.8354582190513611,-0.29848507046699524,-2.518237352371216,2.4521377086639404,-1.8133888244628906
54,618518,618519,-0.3168906569480896,-0.6285994052886963,0.9562935829162598,-33.46957778930664,12.952385902404785,-0.13082118332386017,-0.6389680504798889,-0.8309584259986877,-0.28498575091362,-2.7273147106170654,2.1677677631378174,-1.879953384399414
55,618528,618529,-0.1293412446975708,-0.3377664387226105,0.9440324902534485,-34.985618591308594,12.503559112548828,1.5598782300949097,-0.6509674191474915,-0.8249587416648865,-0.2939853072166443,-2.5173516273498535,1.8975634574890137,-1.7341091632843018
56,618538,618539,-0.1723843663930893,-0.317815899848938,0.935222327709198,-36.85327911376953,5.994386672973633,1.5002204179763794,-0.6449677348136902,-0.8129593133926392,-0.2969851493835449,-2.8531665802001953,1.542555570602417,-1.7910887002944946
57,618548,618549,-0.7949703931808472,-1.0889021158218384,0.9997121691703796,-34.624027252197266,0.23322463035583496,2.5624680519104004,-0.6374680995941162,-0.8144592642784119,-0.2834858298301697,-3.040968894958496,1.3762820959091187,-1.7331172227859497
58,618558,618559,-0.2858077883720398,-0.8112074732780457,0.935587465763092,-32.02071762084961,-4.978791236877441,4.010087490081787,-0.6389680504798889,-0.8249587416648865,-0.28198590874671936,-2.9545540809631348,0.9701338410377502,-1.7132426500320435
59,618568,618569,-0.18280205130577087,-0.7146031856536865,0.8767258524894714,-27.709672927856445,-10.572153091430664,5.914009094238281,-0.6314684152603149,-0.8114594221115112,-0.2834858298301697,-2.893421173095703,0.5480355620384216,-1.7106173038482666
60,618578,618579,-0.3220442235469818,-0.4383014440536499,0.8475977182388306,-21.3183536529541,-18.265392303466797,7.980413436889648,-0.6389680504798889,-0.8189590573310852,-0.27898603677749634,-2.823561906814575,0.4755876362323761,-1.5622529983520508
61,618588,618589,-0.17459380626678467,-0.3135663568973541,1.0005450248718262,-17.569568634033203,-24.420392990112305,10.649200439453125,-0.6299684643745422,-0.8339582681655884,-0.2939853072166443,-2.667315721511841,0.1871861070394516,-1.5159794092178345
62,618598,618599,-0.16036632657051086,-0.17318715155124664,0.981857180595398,-15.196863174438477,-23.36473846435547,12.197220802307129,-0.6434678435325623,-0.8294585347175598,-0.2924853563308716,-2.4810452461242676,0.02492159977555275,-1.4103574752807617
63,618608,618609,-0.18456034362316132,0.21227523684501648,1.018087387084961,-13.07788372039795,-18.11835479736328,12.056801795959473,-0.6329683661460876,-0.8129593133926392,-0.2969851493835449,-2.1682608127593994,-0.17530092597007751,-1.2891680002212524
64,618618,618619,-0.44343438744544983,0.3062851130962372,1.090819239616394,-7.365542411804199,-9.077890396118164,12.898965835571289,-0.6404679417610168,-0.8204589486122131,-0.2954852283000946,-1.9828165769577026,-0.3137853145599365,-1.1672053337097168
65,618628,618629,-0.3387987017631531,0.14217157661914825,0.9915124773979187,-3.9975392818450928,6.452781677246094,12.968448638916016,-0.6359682083129883,-0.8069596290588379,-0.29098543524742126,-1.9566285610198975,-0.36860376596450806,-1.0297192335128784
66,618638,618639,-0.2690657079219818,0.07412456721067429,0.9652816653251648,-1.4439127445220947,20.73674964904785,12.796783447265625,-0.6404679417610168,-0.8114594221115112,-0.28048595786094666,-2.0897059440612793,-0.3681076765060425,-0.8789202570915222
67,618648,618649,-0.082417331635952,0.05281386524438858,1.042362093925476,-1.3728084564208984,34.831260681152344,11.64942455291748,-0.6479675769805908,-0.8069596290588379,-0.29098543524742126,-2.031773805618286,-0.3377644717693329,-0.7246925830841064
68,618658,618659,-0.15355390310287476,0.2290879338979721,1.0014867782592773,-1.8112657070159912,48.81358337402344,11.12728214263916,-0.6509674191474915,-0.8099594712257385,-0.28798559308052063,-2.577918529510498,-0.4389501214027405,-0.6401740908622742
69,618668,618669,-0.3486655354499817,-0.573736310005188,1.0536926984786987,-3.4120028018951416,52.90956497192383,13.304973602294922,-0.6554672122001648,-0.8294585347175598,-0.28948551416397095,-2.877199411392212,-0.4743739068508148,-0.5456506013870239
70,618678,618679,-0.6156916618347168,-0.8646656274795532,1.0159162282943726,-7.45441198348999,48.947265625,15.701630592346191,-0.6524673700332642,-0.8114594221115112,-0.2864856719970703,-3.3618898391723633,-0.550101637840271,-0.44100815057754517
71,618688,618689,-0.30250999331474304,-0.27880606055259705,0.9531282186508179,-9.203455924987793,32.969520568847656,16.992650985717773,-0.6554672122001648,-0.8144592642784119,-0.28948551416397095,-3.824838161468506,-0.5940282344818115,-0.2863001227378845
72,618698,618699,-0.29215046763420105,-0.3147087097167969,0.9484097957611084,-10.849104881286621,8.328245162963867,17.33156394958496,-0.6509674191474915,-0.8129593133926392,-0.27898603677749634,-4.080715656280518,-0.6597239971160889,-0.12967322766780853
73,618708,618709,-0.6609372496604919,-0.8580187559127808,0.8692027926445007,-12.221760749816895,-13.382733345031738,18.10004234313965,-0.6584670543670654,-0.8144592642784119,-0.2834858298301697,-4.196140766143799,-0.8051716685295105,0.011770342476665974
74,618718,618719,-0.6503634452819824,-0.5728471875190735,0.9081192016601562,-13.420328140258789,-31.804588317871094,18.838054656982422,-0.6494675278663635,-0.8084595799446106,-0.2864856719970703,-4.082729339599609,-0.8821147084236145,0.18959693610668182
75,618728,618729,-1.519296646118164,-0.42221927642822266,0.9050753116607666,-12.590044975280762,-44.250362396240234,19.77873992919922,-0.6374680995941162,-0.8234587907791138,-0.28948551416397095,-3.7061095237731934,-0.9695485234260559,0.3540877401828766
76,618738,618739,-1.4463263750076294,-0.5038272142410278,0.9029939770698547,-11.804762840270996,-46.756980895996094,21.032135009765625,-0.6359682083129883,-0.8159592151641846,-0.2969851493835449,-3.2806930541992188,-1.0650333166122437,0.5506690144538879
77,618748,618749,-0.756624698638916,-0.21621352434158325,0.882384717464447,-11.099067687988281,-41.5343132019043,19.539077758789062,-0.6329683661460876,-0.8279585838317871,-0.29998499155044556,-3.1559908390045166,-1.1584852933883667,0.831020712852478
78,618758,618759,-0.3372498154640198,-0.16547544300556183,0.8796570897102356,-8.699846267700195,-31.947885513305664,17.9833984375,-0.622468888759613,-0.8324583768844604,-0.28948551416397095,-2.658165454864502,-1.3769868612289429,0.9587245583534241
79,618768,618769,-0.027885515242815018,-0.07466630637645721,0.9194096326828003,-0.619323194026947,-21.941993713378906,16.52265739440918,-0.6149692535400391,-0.8309584259986877,-0.29998499155044556,-2.2163138389587402,-1.3982740640640259,1.1607567071914673
80,618778,618779,-0.14316502213478088,-0.010652340017259121,0.9314286708831787,7.346569538116455,-13.592397689819336,14.777111053466797,-0.6194689869880676,-0.8294585347175598,-0.2924853563308716,-1.8985905647277832,-1.3841276168823242,1.3471379280090332
81,618788,618789,-0.30170685052871704,-0.0035294746048748493,0.984295129776001,11.044492721557617,-1.8318623304367065,14.275196075439453,-0.6254687309265137,-0.8474575877189636,-0.30748462677001953,-1.7218596935272217,-1.387691855430603,1.4883251190185547
82,618798,618799,-0.1252463459968567,-0.11169295758008957,0.9411276578903198,12.209909439086914,8.44506549835205,13.483301162719727,-0.6209689378738403,-0.8459576964378357,-0.3029848337173462,-1.7498759031295776,-1.3171550035476685,1.6524386405944824
83,618808,618809,-0.1301984190940857,0.0209105983376503,0.9340977668762207,10.272085189819336,13.453628540039062,12.985518455505371,-0.6179690957069397,-0.8489575386047363,-0.3059847056865692,-1.9591147899627686,-1.1586869955062866,1.838724136352539
84,618818,618819,-0.23604977130889893,-0.0626930296421051,0.9498599767684937,5.990050792694092,13.030584335327148,11.715431213378906,-0.6134693026542664,-0.8414579033851624,-0.29848507046699524,-2.3058948516845703,-1.1010116338729858,2.0049195289611816
85,618828,618829,-0.15403114259243011,-0.13556712865829468,0.9686300754547119,-4.0609307289123535,9.174301147460938,10.386192321777344,-0.6074696183204651,-0.844457745552063,-0.30748462677001953,-2.328962802886963,-1.048570990562439,2.069714307785034
86,618838,618839,-0.12288837134838104,-0.197717547416687,0.971217930316925,-13.135055541992188,3.33381724357605,9.013468742370605,-0.6074696183204651,-0.850457489490509,-0.30748462677001953,-2.496772527694702,-1.1397345066070557,2.1640400886535645
87,618848,618849,-0.06505013257265091,0.08168413490056992,1.0154626369476318,-17.780466079711914,-4.220310211181641,6.768781661987305,-0.6029698252677917,-0.8579570651054382,-0.2969851493835449,-2.350759744644165,-1.3540923595428467,2.1518566608428955
88,618858,618859,-0.05683186650276184,0.11565867811441422,1.0017763376235962,-14.823384284973145,-8.63229751586914,4.746140003204346,-0.6014699339866638,-0.8474575877189636,-0.3134843111038208,-2.3347890377044678,-1.4851348400115967,2.2469019889831543
89,618868,618869,-0.017224280163645744,0.016516149044036865,1.0061922073364258,-7.089229583740234,-11.914420127868652,3.139761447906494,-0.6059696674346924,-0.851957380771637,-0.3029848337173462,-2.2433090209960938,-1.5764119625091553,2.321013927459717
90,618878,618879,-0.06036708503961563,-0.045535292476415634,1.0421441793441772,3.564507007598877,-14.955944061279297,1.1906863451004028,-0.6014699339866638,-0.8564571738243103,-0.3164841830730438,-2.0697154998779297,-1.6970140933990479,2.3321025371551514
91,618888,618889,-0.07633775472640991,-0.012838433496654034,1.0087162256240845,15.063637733459473,-12.60313892364502,0.44298842549324036,-0.6074696183204651,-0.844457745552063,-0.3044847846031189,-1.8623751401901245,-1.6482038497924805,2.3585715293884277
92,618898,618899,-0.1481243073940277,-0.01002475991845131,1.017162561416626,27.078765869140625,-6.703730583190918,-0.2763619124889374,-0.6149692535400391,-0.8669566512107849,-0.3209839463233948,-1.9695022106170654,-1.539784550666809,2.4584577083587646
93,618908,618909,-0.5573306679725647,0.007145802956074476,1.0217375755310059,30.32259750366211,0.3004273772239685,-0.28089824318885803,-0.6149692535400391,-0.8669566512107849,-0.30898454785346985,-2.0140039920806885,-1.1874089241027832,2.5415797233581543
94,618918,618919,-0.3045959174633026,-0.15876182913780212,0.9953710436820984,27.559629440307617,3.0382862091064453,-1.640068769454956,-0.6089695692062378,-0.8729563355445862,-0.3029848337173462,-1.8549659252166748,-1.0013561248779297,2.4570565223693848
95,618928,618929,-0.07319124788045883,-0.16995689272880554,1.015162706375122,20.82137680053711,-0.09620020538568497,-1.0101195573806763,-0.6089695692062378,-0.8669566512107849,-0.3119843900203705,-1.8870043754577637,-0.5723599195480347,2.4967637062072754
96,618938,618939,-0.04814601317048073,-0.0028048825915902853,1.043239712715149,12.538079261779785,-8.215540885925293,-1.2161569595336914,-0.6029698252677917,-0.8639568090438843,-0.3149842321872711,-1.8016277551651,-0.5224753618240356,2.3986170291900635
97,618948,618949,-0.34067240357398987,-0.29065486788749695,1.116492748260498,5.5411696434021,-19.232009887695312,-0.913284182548523,-0.5939702987670898,-0.8669566512107849,-0.3149842321872711,-1.7411881685256958,-0.4391782283782959,2.3671512603759766
98,618958,618959,-0.16136027872562408,-0.18896090984344482,1.0558615922927856,-0.06014265492558479,-26.40145492553711,0.07749297469854355,-0.5924703478813171,-0.8654567003250122,-0.3164841830730438,-1.603204607963562,-0.3321325480937958,2.3651561737060547
99,618968,618969,-0.10075189918279648,-0.02284679189324379,1.0451829433441162,-3.0116827487945557,-31.603565216064453,0.7810699939727783,-0.5894705057144165,-0.8654567003250122,-0.3164841830730438,-1.1918741464614868,-0.45383620262145996,2.2701141834259033
100,618978,618979,-0.13311809301376343,-0.10415266454219818,1.0283336639404297,-6.5851850509643555,-33.96678161621094,2.168910264968872,-0.5894705057144165,-0.8654567003250122,-0.3164841830730438,-0.8165450096130371,-0.3470333516597748,2.279437780380249
101,618988,618989,-0.11266117542982101,-0.05292196199297905,1.0547517538070679,-6.820594310760498,-29.568262100219727,3.8298821449279785,-0.5894705057144165,-0.8654567003250122,-0.3164841830730438,-0.697127103805542,-0.43025800585746765,2.360323667526245
102,618998,618999,-0.21282722055912018,-0.09246990829706192,1.081697940826416,-6.209238529205322,-20.578487396240234,4.92926549911499,-0.5909704566001892,-0.8489575386047363,-0.3119843900203705,-0.44001469016075134,-0.5962609648704529,2.3950417041778564
103,619008,619009,-0.24314257502555847,0.021100236102938652,1.0462459325790405,-0.9393090605735779,-10.297905921936035,6.629378795623779,-0.5864706635475159,-0.850457489490509,-0.31048446893692017,-0.1563124656677246,-0.6630585789680481,2.426734447479248
104,619018,619019,-0.28399720788002014,0.008191606029868126,1.029831051826477,5.311283111572266,2.589367389678955,7.85987663269043,-0.5999699831008911,-0.8609569072723389,-0.30898454785346985,-0.03318799287080765,-0.6531511545181274,2.501800060272217
105,619028,619029,-0.08617595583200455,-0.04607008025050163,1.0545443296432495,7.535539627075195,14.119414329528809,7.875284671783447,-0.5849707126617432,-0.8729563355445862,-0.3149842321872711,-0.05594634637236595,-0.5652957558631897,2.598487138748169
106,619038,619039,-0.07030826061964035,0.04280562326312065,1.0639477968215942,11.374423027038574,20.08895492553711,8.204784393310547,-0.5954701900482178,-0.8594570159912109,-0.31048446893692017,-0.2425992637872696,-0.561677873134613,2.686516284942627
107,619048,619049,-0.3212437033653259,-0.26052969694137573,1.0518696308135986,11.91454792022705,22.17005157470703,6.614306926727295,-0.5879706144332886,-0.8549572229385376,-0.31798410415649414,-0.5027303099632263,-0.4960249066352844,2.7875564098358154
108,619058,619059,-0.5804310441017151,-0.03266046196222305,1.0759432315826416,10.508641242980957,17.676271438598633,3.3627142906188965,-0.5984700918197632,-0.8534573316574097,-0.31048446893692017,-0.609182596206665,-0.2733685374259949,2.8458070755004883
109,619068,619069,-0.5598710775375366,-0.03634066507220268,1.035573959350586,12.449045181274414,7.659170150756836,0.994670569896698,-0.6029698252677917,-0.8399580121040344,-0.3119843900203705,-0.5965652465820312,-0.14313460886478424,2.838000535964966
110,619078,619079,-0.3726252615451813,-0.11042448878288269,1.0156440734863281,15.793213844299316,-0.9688011407852173,0.5085846781730652,-0.6089695692062378,-0.8609569072723389,-0.3119843900203705,-0.7174350619316101,0.010415042750537395,2.8576319217681885
111,619088,619089,-0.09215839952230453,0.07218994945287704,1.0309354066848755,12.795419692993164,-6.321043968200684,0.8469111919403076,-0.6149692535400391,-0.8549572229385376,-0.3059847056865692,-0.721911609172821,0.05323563143610954,2.8693201541900635
112,619098,619099,-0.2389058768749237,0.015872692689299583,1.1171449422836304,10.132746696472168,-10.29764461517334,-0.13970200717449188,-0.6029698252677917,-0.8549572229385376,-0.3119843900203705,-0.5887744426727295,0.2867285907268524,2.855482339859009
113,619108,619109,-0.2996104657649994,-0.37986764311790466,1.0513842105865479,5.789106369018555,-13.148871421813965,-0.008154838345944881,-0.6149692535400391,-0.8339582681655884,-0.3029848337173462,-0.521669864654541,0.2543238699436188,2.865089178085327
114,619118,619119,-0.2310468554496765,-0.35080796480178833,1.0157477855682373,-0.3741452991962433,-12.89289379119873,-0.6947012543678284,-0.6089695692062378,-0.8579570651054382,-0.3059847056865692,-0.3229484558105469,0.3712445795536041,2.8507251739501953
115,619128,619129,-0.2071647346019745,-0.09342674911022186,1.0418586730957031,-5.015727519989014,-10.869241714477539,-0.9905818700790405,-0.6104694604873657,-0.8354582190513611,-0.3044847846031189,-0.2457749843597412,0.3279024064540863,2.855804204940796
116,619138,619139,-0.8837205767631531,-0.05750606209039688,1.0287504196166992,-7.4300761222839355,-6.355055332183838,-0.06009673327207565,-0.5954701900482178,-0.850457489490509,-0.29848507046699524,-0.13878095149993896,0.28136783838272095,2.8501439094543457
117,619148,619149,-0.46429815888404846,-0.5539109706878662,1.0304688215255737,-3.3630685806274414,-1.2563742399215698,-0.020270437002182007,-0.6044697761535645,-0.8324583768844604,-0.3134843111038208,-0.04141075536608696,0.20508866012096405,2.8430089950561523
118,619158,619159,-0.21289028227329254,-0.29157841205596924,1.0569229125976562,1.659901738166809,4.75119686126709,0.46083128452301025,-0.6014699339866638,-0.8234587907791138,-0.2924853563308716,-0.0980757474899292,0.17533352971076965,2.844308853149414
119,619168,619169,-0.18599413335323334,-0.11128323525190353,0.9953386783599854,6.601785659790039,10.704629898071289,1.1403032541275024,-0.6089695692062378,-0.8429578542709351,-0.2939853072166443,-0.1483023315668106,0.23040108382701874,2.8429903984069824
120,619178,619179,-0.3312329351902008,-0.23637892305850983,1.0214900970458984,7.546387195587158,15.045052528381348,2.445377826690674,-0.6059696674346924,-0.8189590573310852,-0.3059847056865692,-0.229538232088089,0.2803531587123871,2.8524675369262695
121,619188,619189,-0.45984891057014465,-0.2321004718542099,1.0479133129119873,5.3887763023376465,10.832159996032715,2.11619234085083,-0.6119694113731384,-0.836958110332489,-0.2939853072166443,-0.44275256991386414,0.2787119746208191,2.8873324394226074
122,619198,619199,-0.14352081716060638,0.03733539581298828,1.0637691020965576,-0.48011448979377747,7.34268045425415,0.932345449924469,-0.6059696674346924,-0.8279585838317871,-0.2939853072166443,-0.5477488040924072,0.3831668496131897,2.9082746505737305
123,619208,619209,-0.44754937291145325,-0.1322418600320816,1.0534261465072632,-4.730404853820801,5.954762935638428,-0.023899611085653305,-0.6089695692062378,-0.836958110332489,-0.29098543524742126,-0.606613039970398,0.4098680019378662,2.917532205581665
124,619218,619219,-0.3087189793586731,-0.5106662511825562,0.9573010206222534,-12.432818412780762,10.390851020812988,-0.48552536964416504,-0.6194689869880676,-0.8384580612182617,-0.2954852283000946,-0.5859447121620178,0.34887734055519104,2.92177152633667
125,619228,619229,-0.26994991302490234,-0.40835344791412354,0.9608893990516663,-16.54698371887207,12.261940956115723,-1.0145115852355957,-0.5969701409339905,-0.8279585838317871,-0.2939853072166443,-0.7594221830368042,0.18430840969085693,2.928760290145874
126,619238,619239,-0.5175185203552246,-0.14938871562480927,0.9497473835945129,-15.126287460327148,7.435216426849365,-0.4049779772758484,-0.6119694113731384,-0.8279585838317871,-0.2939853072166443,-0.7361829280853271,0.03373891860246658,2.9156315326690674
127,619248,619249,-0.2614099383354187,-0.23122452199459076,0.974973738193512,-7.525609970092773,-0.2922520637512207,1.176248550415039,-0.6149692535400391,-0.8189590573310852,-0.2969851493835449,-0.6378122568130493,-0.15436974167823792,2.907711982727051
128,619258,619259,-0.08940613269805908,-0.4160584509372711,0.9640043377876282,0.4521696865558624,-5.915517807006836,2.7919623851776123,-0.6269686222076416,-0.8189590573310852,-0.2969851493835449,-0.6418488621711731,-0.17416991293430328,2.906261444091797
129,619268,619269,-0.019918980076909065,-0.3896535038948059,0.9831616282463074,6.882251739501953,-7.67257022857666,3.986340284347534,-0.6074696183204651,-0.8354582190513611,-0.2864856719970703,-0.5855929851531982,-0.15357494354248047,2.9214847087860107
130,619278,619279,-0.17157714068889618,-0.18324828147888184,1.0356900691986084,11.948053359985352,-6.761201858520508,4.999658584594727,-0.6134693026542664,-0.8294585347175598,-0.2954852283000946,-0.5105509757995605,-0.030562417581677437,2.9472219944000244
131,619288,619289,-0.2638760805130005,-0.3673152029514313,0.9821597933769226,13.596711158752441,-4.925846099853516,4.647164821624756,-0.6104694604873657,-0.8414579033851624,-0.2864856719970703,-0.5115712881088257,-0.04963713884353638,3.0118205547332764
132,619298,619299,-0.08866260945796967,-0.08485047519207001,0.9208985567092896,15.090035438537598,-1.5737165212631226,3.4190428256988525,-0.6179690957069397,-0.8339582681655884,-0.29098543524742126,-0.464583158493042,0.18530692160129547,3.0442605018615723
133,619308,619309,-0.08637430518865585,0.028197739273309708,0.9600788950920105,14.13926887512207,1.5815575122833252,1.5801117420196533,-0.622468888759613,-0.8354582190513611,-0.2924853563308716,-0.46192875504493713,0.23345187306404114,3.0899746417999268
134,619318,619319,-0.19196060299873352,0.04855122044682503,1.0317214727401733,10.51711368560791,3.24849796295166,-0.3758971691131592,-0.6014699339866638,-0.8414579033851624,-0.28948551416397095,-0.472245991230011,0.41385534405708313,3.112424612045288
135,619328,619329,-0.17120082676410675,-0.008354635909199715,0.9708518981933594,6.178893566131592,5.7705888748168945,-0.5100911259651184,-0.6044697761535645,-0.8354582190513611,-0.3134843111038208,-0.508197009563446,0.6000112295150757,3.108748197555542
136,619338,619339,-0.4497142434120178,0.026936722919344902,1.0295131206512451,1.803820013999939,10.379276275634766,-1.9539178609848022,-0.6149692535400391,-0.8249587416648865,-0.2969851493835449,-0.5429069995880127,0.7139080762863159,3.1005029678344727
137,619348,619349,-0.25020831823349,-0.03273451700806618,1.0214027166366577,-2.192669630050659,13.356377601623535,-4.007725715637207,-0.6194689869880676,-0.8414579033851624,-0.28948551416397095,-0.7129561901092529,0.5516330599784851,3.110470771789551
138,619358,619359,-0.08491292595863342,-0.025153014808893204,1.0402148962020874,-7.436506271362305,14.544856071472168,-4.482633113861084,-0.6089695692062378,-0.836958110332489,-0.2969851493835449,-0.7967973947525024,0.6681766510009766,3.0630125999450684
139,619368,619369,-0.17353199422359467,-0.40536487102508545,0.9814541935920715,-8.456684112548828,13.96410846710205,-3.6472954750061035,-0.6134693026542664,-0.8384580612182617,-0.2834858298301697,-0.9614309072494507,0.5762795209884644,3.021270513534546
140,619378,619379,-0.697529673576355,-0.49216243624687195,0.953100860118866,-7.2476582527160645,6.939969539642334,-4.009416580200195,-0.623968780040741,-0.836958110332489,-0.2939853072166443,-1.0941665172576904,0.4628935158252716,2.986030101776123
141,619388,619389,-0.7213123440742493,-0.18837760388851166,0.9238279461860657,-2.7595295906066895,-5.188407897949219,-3.8257992267608643,-0.6149692535400391,-0.8309584259986877,-0.28198590874671936,-1.1283727884292603,0.3044337332248688,2.9573450088500977
142,619398,619399,-0.577609658241272,-0.2145008146762848,0.8930564522743225,4.41091251373291,-19.508892059326172,-2.972364902496338,-0.6119694113731384,-0.8279585838317871,-0.29998499155044556,-1.0560437440872192,0.2950884997844696,2.9148590564727783
143,619408,619409,-0.2805016338825226,-0.28445497155189514,0.931207537651062,7.167610168457031,-28.970735549926758,-2.332554340362549,-0.6149692535400391,-0.8399580121040344,-0.2969851493835449,-0.9045649170875549,0.3673253655433655,2.878129005432129
144,619418,619419,-0.10032455623149872,-0.09642232209444046,0.9423961043357849,9.768452644348145,-32.649330139160156,-3.1118476390838623,-0.622468888759613,-0.8354582190513611,-0.28948551416397095,-0.5268532037734985,0.2904099225997925,2.8675014972686768
145,619428,619429,-0.05045417323708534,0.05902509018778801,0.9227178692817688,13.966448783874512,-30.597007751464844,-3.33832049369812,-0.6149692535400391,-0.836958110332489,-0.28798559308052063,-0.3659016489982605,0.28318315744400024,2.8400187492370605
146,619438,619439,-0.09802117198705673,0.043215829879045486,0.9916844964027405,17.47422981262207,-20.519521713256836,-4.516986846923828,-0.6059696674346924,-0.8489575386047363,-0.2969851493835449,0.10162444412708282,0.542641818523407,2.8033294677734375
147,619448,619449,-0.13020764291286469,-0.22490617632865906,0.9853227138519287,22.03316307067871,-5.249876022338867,-3.885436534881592,-0.5939702987670898,-0.8399580121040344,-0.28798559308052063,0.3910810649394989,0.6462236642837524,2.767566204071045
148,619458,619459,-0.04153650254011154,-0.13846644759178162,0.9580987691879272,25.257322311401367,6.762365818023682,-2.434213638305664,-0.6254687309265137,-0.844457745552063,-0.29848507046699524,0.4609319269657135,0.8288718461990356,2.7236766815185547
149,619468,619469,-0.11663620918989182,-0.038119472563266754,0.9850608110427856,23.16458511352539,15.870037078857422,-2.514636993408203,-0.6104694604873657,-0.8414579033851624,-0.3134843111038208,0.3417377769947052,1.119724988937378,2.684189558029175
150,619478,619479,-0.2898440659046173,-0.021678367629647255,0.9633669853210449,17.502004623413086,20.263063430786133,-3.1608424186706543,-0.616469144821167,-0.850457489490509,-0.30748462677001953,0.09936345368623734,1.513749122619629,2.6341729164123535
151,619488,619489,-0.5288737416267395,-0.24455907940864563,0.9667311906814575,7.909702777862549,21.07130241394043,-2.7447025775909424,-0.6074696183204651,-0.8564571738243103,-0.30748462677001953,-0.07596256583929062,1.5157803297042847,2.637831449508667
152,619498,619499,-0.33782124519348145,-0.054293155670166016,0.9926630854606628,-5.140256881713867,14.156782150268555,-2.390573024749756,-0.622468888759613,-0.8534573316574097,-0.3044847846031189,-0.39491206407546997,1.6564279794692993,2.6012990474700928
153,619508,619509,-0.3985927999019623,-0.3592360317707062,1.0386523008346558,-16.095422744750977,4.797361373901367,-2.460662603378296,-0.6044697761535645,-0.8564571738243103,-0.29848507046699524,-0.46497416496276855,1.5332177877426147,2.609092950820923
154,619518,619519,-0.35501062870025635,-0.2081596553325653,0.9958916902542114,-24.796730041503906,-1.334995150566101,-4.600408554077148,-0.6074696183204651,-0.850457489490509,-0.30748462677001953,-0.4746437966823578,1.2983732223510742,2.609832525253296
155,619528,619529,-0.41643473505973816,-0.2552880644798279,0.9688664674758911,-26.63829231262207,-5.351738452911377,-6.288410186767578,-0.6179690957069397,-0.8339582681655884,-0.3059847056865692,-0.4580390751361847,1.1537611484527588,2.5646653175354004
156,619538,619539,-0.4439370036125183,-0.14767777919769287,0.9565240144729614,-22.3994197845459,-6.353623390197754,-7.3083696365356445,-0.6089695692062378,-0.8459576964378357,-0.3059847056865692,-0.3810816705226898,0.8306758999824524,2.5190696716308594
157,619548,619549,-0.28000444173812866,-0.11921542137861252,0.9898955225944519,-12.411211013793945,-7.1042938232421875,-8.972952842712402,-0.5999699831008911,-0.8309584259986877,-0.2969851493835449,-0.28714805841445923,0.7922400236129761,2.429988384246826
158,619558,619559,-0.046267375349998474,-0.027470724657177925,0.9490346908569336,-1.4034854173660278,-6.124113082885742,-11.153636932373047,-0.6059696674346924,-0.851957380771637,-0.30898454785346985,-0.19508770108222961,0.6144154667854309,2.3580870628356934
159,619568,619569,-0.3162071406841278,-0.10608118027448654,1.0357263088226318,7.494358062744141,-4.918910026550293,-12.160001754760742,-0.6059696674346924,-0.8459576964378357,-0.3059847056865692,-0.10110992938280106,0.588391900062561,2.2541921138763428
160,619578,619579,-0.4174423813819885,-0.22439493238925934,0.9610097408294678,16.97856903076172,-4.2329487800598145,-11.399359703063965,-0.6119694113731384,-0.8399580121040344,-0.3149842321872711,-0.020703710615634918,0.7153785228729248,2.1241509914398193
161,619588,619589,-0.16908934712409973,-0.01297722663730383,0.9331695437431335,23.478496551513672,-1.5552536249160767,-9.431775093078613,-0.5984700918197632,-0.8534573316574097,-0.2924853563308716,0.022119294852018356,0.849471926689148,2.0059974193573
162,619598,619599,-0.13631083071231842,0.016976002603769302,0.9626933336257935,21.819711685180664,0.7427840232849121,-8.46972370147705,-0.6134693026542664,-0.8624568581581116,-0.3134843111038208,-0.03695865347981453,1.080155611038208,1.8904961347579956
163,619608,619609,-0.3059280514717102,-0.030028270557522774,0.9777137637138367,13.825846672058105,2.601588249206543,-8.392228126525879,-0.6134693026542664,-0.8624568581581116,-0.30748462677001953,0.006743286736309528,1.424431562423706,1.7949241399765015
164,619618,619619,-0.269915372133255,-0.06468918174505234,1.016541838645935,2.5808920860290527,5.993054389953613,-7.893148899078369,-0.6209689378738403,-0.851957380771637,-0.3029848337173462,-0.1299327164888382,1.415256381034851,1.7230759859085083
165,619628,619629,-0.41844817996025085,-0.18845807015895844,0.9931107759475708,-8.336227416992188,6.292123794555664,-7.187549591064453,-0.6029698252677917,-0.8429578542709351,-0.3149842321872711,-0.1552712619304657,1.453295350074768,1.6503593921661377
166,619638,619639,-0.2032395452260971,-0.15318544209003448,0.9376130104064941,-13.753188133239746,2.1080098152160645,-5.83151912689209,-0.5984700918197632,-0.844457745552063,-0.3014849126338959,-0.26938143372535706,1.3398815393447876,1.5785542726516724
167,619648,619649,-0.5097367763519287,-0.19160671532154083,0.9717869758605957,-14.267654418945312,-5.653916358947754,-4.805144786834717,-0.6074696183204651,-0.8474575877189636,-0.3164841830730438,-0.31066733598709106,1.3439821004867554,1.4981452226638794
168,619658,619659,-0.2377428412437439,-0.07009994238615036,0.9273291826248169,-15.954788208007812,-12.621750831604004,-3.928952693939209,-0.5984700918197632,-0.8594570159912109,-0.3014849126338959,-0.21616682410240173,1.1017922163009644,1.4694972038269043
169,619668,619669,-0.591252863407135,-0.24904850125312805,0.9757071733474731,-17.44136619567871,-16.90593147277832,-3.6340229511260986,-0.6014699339866638,-0.8414579033851624,-0.30748462677001953,-0.012887072749435902,0.9144423007965088,1.4465426206588745
170,619678,619679,-0.5848353505134583,-0.234929621219635,0.9787729382514954,-16.466968536376953,-16.936779022216797,-3.166105031967163,-0.6014699339866638,-0.8474575877189636,-0.3014849126338959,0.17549562454223633,0.9165958762168884,1.3885964155197144
171,619688,619689,-0.6265676617622375,-0.1551864743232727,0.973272442817688,-15.246280670166016,-12.32498836517334,-2.3529911041259766,-0.6044697761535645,-0.8594570159912109,-0.3134843111038208,0.4231218695640564,0.7740167379379272,1.36251699924469
172,619698,619699,-0.4478498101234436,-0.0397309809923172,0.978119969367981,-11.45397663116455,-2.5241901874542236,-1.7673563957214355,-0.5984700918197632,-0.8474575877189636,-0.3164841830730438,0.3717414438724518,0.6582651138305664,1.3005342483520508
173,619708,619709,-0.16195684671401978,-0.4702772796154022,1.008079171180725,-7.2714409828186035,11.783077239990234,-0.9294840097427368,-0.6149692535400391,-0.8639568090438843,-0.31798410415649414,0.3866419792175293,0.5187658667564392,1.2730463743209839
174,619718,619719,-0.11054359376430511,-0.17725349962711334,1.0098968744277954,-1.0046029090881348,26.31874656677246,-1.4975796937942505,-0.6149692535400391,-0.8639568090438843,-0.31798410415649414,0.1853559911251068,0.3839089870452881,1.2502585649490356
175,619728,619729,-0.3834793269634247,-0.13698464632034302,0.9972938895225525,1.318966269493103,34.136199951171875,-2.435995101928711,-0.6149692535400391,-0.8639568090438843,-0.31798410415649414,0.06602156162261963,0.40285158157348633,1.2440283298492432
176,619738,619739,-0.46815764904022217,-0.03224819526076317,1.012406826019287,5.338973045349121,36.420772552490234,-4.09103536605835,-0.6074696183204651,-0.8654567003250122,-0.3164841830730438,-0.1251620352268219,0.47830894589424133,1.228379249572754
177,619748,619749,-0.47572407126426697,-0.5883561968803406,0.9984761476516724,8.577590942382812,30.593034744262695,-6.016886234283447,-0.6209689378738403,-0.8579570651054382,-0.3149842321872711,-0.7041544914245605,0.5333653092384338,1.1698431968688965
178,619758,619759,-0.3364866077899933,-0.8868289589881897,1.0177617073059082,8.196216583251953,20.526660919189453,-6.902204990386963,-0.623968780040741,-0.8639568090438843,-0.31798410415649414,-1.043391227722168,0.6334106922149658,1.1152986288070679
179,619768,619769,-0.1142149269580841,-0.2282104343175888,1.0047094821929932,2.777580976486206,9.763145446777344,-7.194406509399414,-0.6194689869880676,-0.8594570159912109,-0.3044847846031189,-1.0885905027389526,0.7214609980583191,1.0715497732162476
180,619778,619779,-0.3088901937007904,0.06989523768424988,1.00083327293396,-5.994508266448975,-1.6452720165252686,-7.060981750488281,-0.6209689378738403,-0.8549572229385376,-0.3149842321872711,-1.253286600112915,0.7219713926315308,1.003265380859375
181,619788,619789,-0.7376567721366882,-0.011901602149009705,0.9774762988090515,-14.017606735229492,-11.668374061584473,-6.122013568878174,-0.623968780040741,-0.8579570651054382,-0.3029848337173462,-1.2408840656280518,0.5893698334693909,0.944413423538208
182,619798,619799,-0.4000316858291626,-0.08733675628900528,1.0303285121917725,-21.208711624145508,-21.810510635375977,-6.383652210235596,-0.6179690957069397,-0.8459576964378357,-0.30898454785346985,-1.0560435056686401,0.5348581671714783,0.8854913115501404
183,619808,619809,-0.5193105340003967,-0.25989407300949097,0.9995877742767334,-23.571517944335938,-28.143028259277344,-5.781003952026367,-0.6104694604873657,-0.8384580612182617,-0.3014849126338959,-0.7279715538024902,0.23518015444278717,0.8398370146751404
184,619818,619819,-0.28026995062828064,-0.07749505341053009,1.013536810874939,-21.51599884033203,-27.036840438842773,-4.062381267547607,-0.616469144821167,-0.8474575877189636,-0.3134843111038208,-0.5926167368888855,0.047973401844501495,0.7680754661560059
185,619828,619829,-0.5795067548751831,-0.04465871676802635,1.0263603925704956,-15.27934455871582,-17.177297592163086,-2.811596393585205,-0.6134693026542664,-0.8534573316574097,-0.31048446893692017,-0.32675907015800476,-0.17198386788368225,0.7181260585784912
186,619838,619839,-0.33330878615379333,-0.04191362112760544,0.9988837242126465,-5.1399431228637695,-3.5040552616119385,-1.3540488481521606,-0.616469144821167,-0.8414579033851624,-0.30748462677001953,-0.13724280893802643,-0.29265710711479187,0.6841198205947876
187,619848,619849,-0.22872671484947205,-0.05922584980726242,1.0358484983444214,3.166685104370117,9.95360279083252,-0.20277678966522217,-0.6089695692062378,-0.8429578542709351,-0.3029848337173462,-0.23530162870883942,-0.26650217175483704,0.6540763974189758
188,619858,619859,-0.3760276436805725,-0.2757956385612488,1.0081828832626343,6.406525611877441,15.836111068725586,1.956274151802063,-0.622468888759613,-0.8564571738243103,-0.2954852283000946,-0.30697348713874817,-0.26400619745254517,0.6487882733345032
189,619868,619869,-0.34748679399490356,-0.30448848009109497,1.0193084478378296,5.905043125152588,12.888397216796875,4.18419075012207,-0.6284685730934143,-0.8654567003250122,-0.31048446893692017,-0.534800112247467,-0.20601926743984222,0.6583170890808105
190,619878,619879,-0.34017330408096313,-0.32456326484680176,1.0266501903533936,1.8511037826538086,6.695155143737793,5.57214879989624,-0.622468888759613,-0.844457745552063,-0.31048446893692017,-0.7251553535461426,-0.15696501731872559,0.6917164325714111
191,619888,619889,-0.2944541573524475,-0.14559777081012726,1.0157215595245361,-0.2775130271911621,-1.6257318258285522,5.866280555725098,-0.6044697761535645,-0.850457489490509,-0.3044847846031189,-0.6005635857582092,-0.08880773186683655,0.7369038462638855
192,619898,619899,-0.31562504172325134,-0.1529994010925293,1.0546824932098389,-3.8729288578033447,-10.463079452514648,7.235500812530518,-0.6149692535400391,-0.8459576964378357,-0.29998499155044556,-0.5633413195610046,-0.13725882768630981,0.7937049269676208
193,619908,619909,-0.6076520085334778,-0.1429421305656433,1.027096152305603,-11.027152061462402,-15.681656837463379,8.181434631347656,-0.6074696183204651,-0.8414579033851624,-0.31048446893692017,-0.46393898129463196,-0.24576179683208466,0.8613516688346863
194,619918,619919,-0.393984317779541,-0.004395018797367811,1.0196915864944458,-20.22623062133789,-15.065223693847656,8.051912307739258,-0.5999699831008911,-0.8429578542709351,-0.2939853072166443,-0.35647058486938477,-0.3940100371837616,0.9439009428024292
195,619928,619929,-0.24413155019283295,-0.049444038420915604,1.023610234260559,-23.878215789794922,-7.396890163421631,6.85440731048584,-0.6029698252677917,-0.8339582681655884,-0.3149842321872711,-0.18651267886161804,-0.5870927572250366,1.0298542976379395
196,619938,619939,-0.3048819899559021,-0.11919665336608887,0.9487701654434204,-17.040483474731445,3.5485641956329346,5.155962944030762,-0.6089695692062378,-0.8489575386047363,-0.3059847056865692,-0.130142942070961,-0.6858845949172974,1.102630615234375
197,619948,619949,-0.35982802510261536,0.042568840086460114,1.0432031154632568,-2.801024913787842,13.395918846130371,2.810870885848999,-0.6089695692062378,-0.8399580121040344,-0.3059847056865692,-0.10105659067630768,-0.9775703549385071,1.1718950271606445
198,619958,619959,-0.17816072702407837,0.20003868639469147,1.0740952491760254,9.041929244995117,18.385099411010742,-0.497744619846344,-0.6089695692062378,-0.8429578542709351,-0.3059847056865692,-0.309580534696579,-1.0613418817520142,1.218624472618103
199,619968,619969,-0.7984052300453186,-0.3480512201786041,1.046613097190857,15.520832061767578,21.385730743408203,-5.082197189331055,-0.6044697761535645,-0.8564571738243103,-0.28948551416397095,-0.52907395362854,-0.9541271328926086,1.2279998064041138
200,619978,619979,-0.5342304110527039,-0.48189184069633484,1.032219648361206,18.22944450378418,22.777597427368164,-7.771111011505127,-0.6074696183204651,-0.8354582190513611,-0.3044847846031189,-0.8537606000900269,-0.7336724996566772,1.2001628875732422
201,619988,619989,-0.21551288664340973,-0.17848379909992218,0.9727973341941833,18.3675479888916,21.030405044555664,-9.599623680114746,-0.6179690957069397,-0.836958110332489,-0.29098543524742126,-0.8963196873664856,-0.5381255745887756,1.1079901456832886
202,619998,619999,-0.10395452380180359,-0.3802277445793152,0.9741501212120056,12.390620231628418,15.557855606079102,-11.10750961303711,-0.6254687309265137,-0.850457489490509,-0.3014849126338959,-1.0647443532943726,-0.28529849648475647,1.0112570524215698
203,620008,620009,-0.07490049302577972,-0.3421185612678528,0.9967322945594788,4.68695592880249,5.651615619659424,-12.30596923828125,-0.616469144821167,-0.8414579033851624,-0.2954852283000946,-1.290172815322876,-0.26001399755477905,0.9153254628181458
204,620018,620019,-0.22428683936595917,-0.22002114355564117,1.0368837118148804,-0.4578495919704437,-5.317508697509766,-12.324360847473145,-0.6209689378738403,-0.8489575386047363,-0.29998499155044556,-1.3442543745040894,-0.19269102811813354,0.788809061050415
205,620028,620029,-0.7959292531013489,-0.27912992238998413,1.081357479095459,-2.315676689147949,-14.518365859985352,-11.709040641784668,-0.6119694113731384,-0.8459576964378357,-0.2939853072166443,-1.2249865531921387,-0.21334895491600037,0.6583514213562012
206,620038,620039,-0.5853253602981567,-0.8588322401046753,0.9986400008201599,-5.675309658050537,-21.943584442138672,-9.187202453613281,-0.6134693026542664,-0.850457489490509,-0.3134843111038208,-1.1755311489105225,-0.2672390639781952,0.5462295413017273
207,620048,620049,-0.5234269499778748,-0.9659211039543152,0.9756590723991394,-10.964715957641602,-25.325342178344727,-7.892097473144531,-0.6179690957069397,-0.8459576964378357,-0.3119843900203705,-0.9314167499542236,-0.2946226894855499,0.43974339962005615
208,620058,620059,-0.8518644571304321,-0.728238582611084,0.9525421261787415,-16.062957763671875,-27.89977264404297,-7.542128562927246,-0.6119694113731384,-0.8459576964378357,-0.30898454785346985,-0.6347623467445374,-0.48225897550582886,0.3517459034919739
209,620068,620069,-0.3954441249370575,-0.3537052571773529,0.9623606204986572,-14.849543571472168,-29.14374542236328,-8.439191818237305,-0.6179690957069397,-0.851957380771637,-0.2939853072166443,-0.36620914936065674,-0.5800703167915344,0.27682748436927795
210,620078,620079,-0.09819936752319336,-0.14148873090744019,0.9673656225204468,-7.355518341064453,-24.568159103393555,-9.19517707824707,-0.6059696674346924,-0.851957380771637,-0.30898454785346985,-0.018216732889413834,-0.805778443813324,0.19766740500926971
211,620088,620089,-0.21304145455360413,0.13064421713352203,1.054397463798523,1.4835971593856812,-14.721771240234375,-9.33852481842041,-0.6089695692062378,-0.8399580121040344,-0.3119843900203705,0.18839041888713837,-0.7945775985717773,0.1242469772696495
212,620098,620099,-0.23465299606323242,0.05084829404950142,1.1411534547805786,13.01507568359375,-4.461796760559082,-9.518129348754883,-0.6209689378738403,-0.8459576964378357,-0.3119843900203705,0.4111820459365845,-0.7824058532714844,0.033575255423784256
213,620108,620109,-0.2517164945602417,0.05215395614504814,1.0996793508529663,20.832761764526367,1.9979604482650757,-8.934161186218262,-0.6194689869880676,-0.8474575877189636,-0.3014849126338959,0.454562783241272,-0.5980962514877319,-0.0482434518635273
214,620118,620119,-0.1822492927312851,-0.2283443659543991,1.0006080865859985,20.228498458862305,5.705063343048096,-7.292196273803711,-0.6149692535400391,-0.851957380771637,-0.2939853072166443,0.44975560903549194,-0.5071126222610474,-0.14114125072956085
215,620128,620129,-0.2154586911201477,-0.2003953903913498,1.025941252708435,17.089420318603516,5.71338415145874,-5.288862228393555,-0.6284685730934143,-0.8384580612182617,-0.2924853563308716,0.38851940631866455,-0.1844828724861145,-0.22585001587867737
216,620138,620139,-0.08006499707698822,0.059562135487794876,1.0703608989715576,9.8584566116333,3.7360031604766846,-4.5684661865234375,-0.6179690957069397,-0.8399580121040344,-0.29098543524742126,0.30321234464645386,-0.004186405334621668,-0.2831100821495056
217,620148,620149,-0.23277446627616882,-0.3432376980781555,1.032354712486267,0.41698941588401794,4.244234085083008,-3.5550436973571777,-0.623968780040741,-0.8399580121040344,-0.2939853072166443,0.16169573366641998,0.05920012667775154,-0.3201412856578827
218,620158,620159,-0.2621310353279114,-0.49803686141967773,0.9991109371185303,-5.81440544128418,6.113587856292725,-2.9464075565338135,-0.6074696183204651,-0.8354582190513611,-0.3014849126338959,0.0931861624121666,0.06817308813333511,-0.3572354018688202
219,620168,620169,-0.05550622567534447,-0.009966633282601833,1.017930030822754,-8.962934494018555,4.313350200653076,-2.7291011810302734,-0.623968780040741,-0.8279585838317871,-0.2939853072166443,0.006842961069196463,-0.027778014540672302,-0.3886760175228119
220,620178,620179,-0.07356027513742447,0.03051760606467724,1.0095576047897339,-8.62006950378418,0.3542836010456085,-1.6036999225616455,-0.6089695692062378,-0.836958110332489,-0.29098543524742126,0.03377952426671982,-0.17278283834457397,-0.42912301421165466
221,620188,620189,-0.7982631325721741,-0.11983870714902878,0.9888379573822021,-8.456600189208984,-1.6627113819122314,-0.2746734023094177,-0.616469144821167,-0.8354582190513611,-0.3014849126338959,-0.08523363620042801,-0.3113395869731903,-0.4345877766609192
222,620198,620199,-1.4769258499145508,-0.15546366572380066,0.9669603109359741,-11.199806213378906,-0.5327979326248169,0.388234406709671,-0.622468888759613,-0.8354582190513611,-0.3014849126338959,-0.1824270784854889,-0.3687174618244171,-0.4306470453739166
223,620208,620209,-1.2663532495498657,-0.7281392812728882,0.9579351544380188,-11.512125968933105,-3.486126184463501,-0.3974860608577728,-0.622468888759613,-0.8264586329460144,-0.3014849126338959,-0.1551823914051056,-0.39289137721061707,-0.44254380464553833
224,620218,620219,-0.561699390411377,-0.5281307697296143,0.9402229189872742,-15.830763816833496,-9.437796592712402,-2.2750864028930664,-0.6134693026542664,-0.8264586329460144,-0.28948551416397095,-0.08964569866657257,-0.4630903899669647,-0.4518393874168396
225,620228,620229,-0.05709931626915932,-0.29148417711257935,0.9606304168701172,-18.776309967041016,-12.639154434204102,-4.362547874450684,-0.6179690957069397,-0.8249587416648865,-0.2969851493835449,-0.0024806377477943897,-0.7202461957931519,-0.46613940596580505
226,620238,620239,-0.27313435077667236,-0.40020060539245605,0.966367244720459,-12.302862167358398,-11.65338134765625,-4.836158275604248,-0.6149692535400391,-0.8249587416648865,-0.2939853072166443,0.08988229185342789,-0.8553365468978882,-0.500075101852417
227,620248,620249,-0.48833397030830383,-0.44122084975242615,0.9186777472496033,-1.6912275552749634,-11.361655235290527,-3.9007396697998047,-0.6149692535400391,-0.8279585838317871,-0.2759861946105957,0.19132910668849945,-1.0497331619262695,-0.5400585532188416
228,620258,620259,-0.30913540720939636,-0.28516682982444763,0.9577276706695557,10.049738883972168,-7.317183971405029,-2.168865442276001,-0.616469144821167,-0.844457745552063,-0.2924853563308716,0.1447506546974182,-0.9994269609451294,-0.5750237107276917
229,620268,620269,-0.2562839090824127,-0.19358330965042114,0.9578443169593811,20.529293060302734,0.4602009057998657,-0.7333776354789734,-0.6104694604873657,-0.8324583768844604,-0.2924853563308716,0.31399062275886536,-0.8372905254364014,-0.6139418482780457
230,620278,620279,-0.4865022897720337,-0.0801592618227005,0.9740350842475891,27.721078872680664,3.549015522003174,1.1013336181640625,-0.6119694113731384,-0.836958110332489,-0.2969851493835449,0.3798457384109497,-0.5970507264137268,-0.6412846446037292
231,620288,620289,-0.24843384325504303,-0.06262432783842087,0.9449272751808167,31.20526695251465,3.974107027053833,3.3796892166137695,-0.6269686222076416,-0.8459576964378357,-0.3029848337173462,0.38730567693710327,-0.3073669373989105,-0.6421889066696167
232,620298,620299,-0.13413752615451813,-0.0915551409125328,1.006661057472229,26.933094024658203,1.6253610849380493,6.39965295791626,-0.6209689378738403,-0.8489575386047363,-0.3029848337173462,0.3697262108325958,-0.05319124460220337,-0.6169756054878235
233,620308,620309,-0.5412426590919495,-0.005755140911787748,0.9447786808013916,18.456623077392578,-3.1629631519317627,8.368773460388184,-0.622468888759613,-0.8534573316574097,-0.3044847846031189,0.33162423968315125,0.07381051033735275,-0.5409058332443237
234,620318,620319,-0.3389538824558258,0.02570040337741375,0.9443027973175049,6.033875465393066,-7.955620288848877,9.14628791809082,-0.6044697761535645,-0.844457745552063,-0.2954852283000946,0.43537843227386475,0.3633140027523041,-0.47856950759887695
235,620328,620329,-0.3572782576084137,-0.06435985863208771,0.8889325261116028,-9.324207305908203,-13.107403755187988,8.211935043334961,-0.616469144821167,-0.850457489490509,-0.29848507046699524,0.5996440052986145,0.44558706879615784,-0.3897317945957184
236,620338,620339,-0.3492116928100586,-0.08200006932020187,0.9357714653015137,-21.560583114624023,-19.341644287109375,6.44456148147583,-0.6104694604873657,-0.8414579033851624,-0.2954852283000946,0.8409514427185059,0.3007698655128479,-0.2961968779563904
237,620348,620349,-0.8060824275016785,-0.2566058039665222,1.0281445980072021,-24.198528289794922,-23.109010696411133,5.852283000946045,-0.5999699831008911,-0.8429578542709351,-0.2939853072166443,1.1223254203796387,0.0389552041888237,-0.2227155715227127
238,620358,620359,-0.48432502150535583,-0.25351208448410034,1.0634605884552002,-18.558015823364258,-20.91367530822754,6.087864875793457,-0.5984700918197632,-0.8324583768844604,-0.30748462677001953,1.1704137325286865,-0.12381946295499802,-0.15972739458084106
239,620368,620369,-0.3545396327972412,-0.017151352018117905,1.072129487991333,-9.252142906188965,-11.523088455200195,6.75986385345459,-0.6074696183204651,-0.8384580612182617,-0.3164841830730438,1.2190743684768677,-0.27058959007263184,-0.09526900947093964
240,620378,620379,-0.296078622341156,-0.026671085506677628,1.0095329284667969,2.120116710662842,0.564075231552124,7.627510070800781,-0.5984700918197632,-0.8264586329460144,-0.3044847846031189,1.3967626094818115,-0.2723522186279297,-0.057252224534749985
241,620388,620389,-0.09478132426738739,-0.05104661360383034,0.979604184627533,9.295929908752441,10.7877779006958,7.775060653686523,-0.6209689378738403,-0.8249587416648865,-0.29998499155044556,1.398752212524414,-0.25840264558792114,0.006609966978430748
242,620398,620399,-0.1475328654050827,-0.0419636033475399,0.9911822080612183,13.402278900146484,22.864171981811523,6.393818378448486,-0.6209689378738403,-0.8279585838317871,-0.3029848337173462,1.225861668586731,-0.1254841685295105,0.07658757269382477
243,620408,620409,-0.1700967401266098,-0.2373422235250473,0.986225426197052,14.364716529846191,31.939008712768555,6.581389904022217,-0.6119694113731384,-0.8219588994979858,-0.29098543524742126,1.0275518894195557,-0.1408732682466507,0.17712242901325226
244,620418,620419,-0.41106125712394714,0.06829886883497238,1.0559524297714233,19.945980072021484,34.209049224853516,6.719264507293701,-0.6254687309265137,-0.8294585347175598,-0.3014849126338959,0.714880645275116,0.03992703557014465,0.23403650522232056
245,620428,620429,-0.3768947720527649,-0.05546744540333748,1.0344966650009155,20.604496002197266,29.1886043548584,7.321825981140137,-0.6329683661460876,-0.8429578542709351,-0.2939853072166443,0.5023461580276489,0.2729179859161377,0.2831806242465973
246,620438,620439,-0.8262754678726196,-0.10016810148954391,1.0431697368621826,14.612010955810547,19.097753524780273,7.563855171203613,-0.622468888759613,-0.8294585347175598,-0.2924853563308716,0.0759759470820427,0.49563533067703247,0.35874781012535095
247,620448,620449,-0.4357961416244507,-0.32316261529922485,1.02268648147583,1.768625020980835,9.576131820678711,7.090987205505371,-0.623968780040741,-0.8279585838317871,-0.2969851493835449,0.0906689316034317,0.5451126098632812,0.45597976446151733
248,620458,620459,-0.5027590394020081,-0.2022779881954193,0.9912387132644653,-8.867449760437012,1.715643048286438,5.460625171661377,-0.623968780040741,-0.8279585838317871,-0.2969851493835449,0.01870197243988514,0.5520224571228027,0.5372978448867798
249,620468,620469,-0.2280430644750595,-0.015155776403844357,1.0741153955459595,-14.66379451751709,-3.351714849472046,5.530083179473877,-0.623968780040741,-0.8279585838317871,-0.2969851493835449,0.077023945748806,0.4670872688293457,0.5999827980995178
250,620478,620479,-0.294884592294693,-0.06344599276781082,1.094180703163147,-14.143502235412598,-6.725010395050049,6.008498668670654,-0.6209689378738403,-0.8249587416648865,-0.2939853072166443,-0.0485200472176075,0.3668134808540344,0.653888463973999
251,620488,620489,-0.19814161956310272,-0.242293581366539,1.055880069732666,-12.385644912719727,-6.5983099937438965,5.789801597595215,-0.6074696183204651,-0.8354582190513611,-0.29848507046699524,0.07896250486373901,0.11879462003707886,0.7305696606636047
252,620498,620499,-0.5178828239440918,-0.24859195947647095,1.0900806188583374,-9.455207824707031,-2.5462076663970947,6.810036659240723,-0.6284685730934143,-0.8174591064453125,-0.3044847846031189,0.17338989675045013,0.12672238051891327,0.7688128352165222
253,620508,620509,-0.39480388164520264,0.009531738236546516,1.0118755102157593,-6.323227882385254,2.1851847171783447,7.938533306121826,-0.6209689378738403,-0.8339582681655884,-0.29998499155044556,0.13494543731212616,0.02738265134394169,0.8294374346733093
254,620518,620519,-0.1261950433254242,-0.29142075777053833,0.9664820432662964,-5.1391777992248535,6.308225631713867,8.238311767578125,-0.6254687309265137,-0.8204589486122131,-0.2924853563308716,0.09039153158664703,-0.09388110041618347,0.9141244888305664
255,620528,620529,-0.05008787661790848,-0.14736181497573853,0.9151468276977539,-2.7189602851867676,6.921761989593506,8.70212459564209,-0.6269686222076416,-0.8129593133926392,-0.28798559308052063,-0.022790296003222466,-0.18262319266796112,1.002559781074524
256,620538,620539,-0.5121943354606628,-0.002956853248178959,0.9709794521331787,-0.05006612464785576,6.319140911102295,9.998078346252441,-0.623968780040741,-0.8189590573310852,-0.3029848337173462,-0.07116177678108215,-0.09059201925992966,1.0712615251541138
257,620548,620549,-0.2660084664821625,-0.00502358004450798,1.0055969953536987,2.317847490310669,5.198493957519531,11.273571014404297,-0.6374680995941162,-0.8264586329460144,-0.2834858298301697,-0.17045161128044128,-0.10733864456415176,1.1656748056411743
258,620558,620559,-0.2098921239376068,0.05690203234553337,1.0121527910232544,4.577317237854004,-1.9003956317901611,12.349381446838379,-0.6254687309265137,-0.8264586329460144,-0.2924853563308716,-0.24475276470184326,-0.08659342676401138,1.2674555778503418
259,620568,620569,-0.414168119430542,-0.1408543884754181,0.953216016292572,3.1147384643554688,-12.287347793579102,12.351202964782715,-0.6269686222076416,-0.8309584259986877,-0.28798559308052063,-0.19771438837051392,-0.036591529846191406,1.3843709230422974
260,620578,620579,-0.5654070377349854,-0.10041039437055588,0.9491353631019592,-0.5000820755958557,-18.5677547454834,11.812101364135742,-0.6149692535400391,-0.8219588994979858,-0.29098543524742126,-0.06840643286705017,-0.07688110321760178,1.5124863386154175
261,620588,620589,-0.11095699667930603,-0.1037018671631813,0.8854162693023682,-2.5141360759735107,-17.45501708984375,11.66428279876709,-0.6254687309265137,-0.8384580612182617,-0.29848507046699524,0.009260747581720352,-0.01795198768377304,1.6262247562408447
262,620598,620599,-0.10462156683206558,-0.0949101373553276,0.9243833422660828,-4.113956451416016,-14.6337890625,11.229291915893555,-0.6134693026542664,-0.844457745552063,-0.2924853563308716,0.15455417335033417,-0.06961821019649506,1.7382155656814575
263,620608,620609,-0.19332262873649597,-0.041310880333185196,0.9567387104034424,-5.199876308441162,-10.050442695617676,11.048480987548828,-0.6104694604873657,-0.8384580612182617,-0.2954852283000946,0.32670459151268005,-0.07237787544727325,1.8460787534713745
264,620618,620619,-0.31540417671203613,-0.5037301182746887,0.9280427694320679,-8.138748168945312,-6.2960205078125,9.982502937316895,-0.6134693026542664,-0.844457745552063,-0.31048446893692017,0.44083479046821594,-0.1752910017967224,1.9639637470245361
265,620628,620629,-0.14226627349853516,-0.19930864870548248,0.9411141872406006,-12.707477569580078,-3.115710973739624,8.630940437316895,-0.6044697761535645,-0.8384580612182617,-0.2924853563308716,0.49487534165382385,-0.3240775167942047,2.077418804168701
266,620638,620639,-0.060893069952726364,0.07662097364664078,0.9336519241333008,-16.936342239379883,-0.87293940782547,8.458982467651367,-0.5999699831008911,-0.8399580121040344,-0.3029848337173462,0.5642588138580322,-0.40003177523612976,2.162430763244629
267,620648,620649,-0.07829835265874863,-0.0853862538933754,0.9668677449226379,-19.420469284057617,3.6563773155212402,10.268747329711914,-0.5969701409339905,-0.8249587416648865,-0.29998499155044556,0.4361960291862488,-0.5407794117927551,2.2528069019317627
268,620658,620659,0.012717475183308125,-0.03171612322330475,0.9447593688964844,-20.151548385620117,3.4671754837036133,12.464971542358398,-0.5939702987670898,-0.8579570651054382,-0.29998499155044556,0.39666947722435,-0.7274730205535889,2.3471601009368896
269,620668,620669,-0.13059890270233154,-0.00026851578149944544,0.9712692499160767,-18.14150619506836,1.2022625207901,14.376699447631836,-0.5969701409339905,-0.8549572229385376,-0.29998499155044556,0.34785592555999756,-0.9254478812217712,2.4570629596710205
270,620678,620679,-0.12786297500133514,0.1076759621500969,1.0119394063949585,-7.995428562164307,-5.262789249420166,15.730432510375977,-0.5879706144332886,-0.8549572229385376,-0.3059847056865692,0.38052237033843994,-1.0517780780792236,2.581345319747925
271,620688,620689,-0.30496418476104736,0.03777196630835533,1.072054386138916,0.700607419013977,-10.10382080078125,17.382556915283203,-0.5909704566001892,-0.8549572229385376,-0.30898454785346985,0.5100496411323547,-1.179943561553955,2.7327094078063965
272,620698,620699,-0.4026589095592499,-0.017943380400538445,1.0029903650283813,6.70916748046875,-9.994269371032715,18.426986694335938,-0.5954701900482178,-0.8564571738243103,-0.28948551416397095,0.6758362650871277,-1.171859860420227,2.8987326622009277
273,620708,620709,-0.1946525275707245,-0.11740750074386597,1.0186104774475098,11.748420715332031,-7.1844940185546875,17.373600006103516,-0.5909704566001892,-0.8549572229385376,-0.3239837884902954,0.8284639120101929,-1.0711772441864014,3.065885305404663
274,620718,620719,-0.682296872138977,-0.14760272204875946,1.026595950126648,11.081811904907227,-1.484972596168518,17.018836975097656,-0.5849707126617432,-0.8669566512107849,-0.31798410415649414,0.8038405776023865,-0.9038946032524109,3.242933750152588
275,620728,620729,-0.24323056638240814,-0.17699213325977325,1.0267558097839355,3.8018503189086914,4.22533655166626,14.337614059448242,-0.5924703478813171,-0.8684565424919128,-0.30748462677001953,0.8435773253440857,-0.8262665867805481,3.425197124481201
276,620738,620739,-0.11289375275373459,-0.0955905169248581,1.060123085975647,-1.5523284673690796,8.158884048461914,9.909469604492188,-0.5864706635475159,-0.8564571738243103,-0.3224838674068451,0.7772948145866394,-0.8473207354545593,3.5945353507995605
277,620748,620749,-0.09320996701717377,-0.0695284828543663,1.0330543518066406,-4.113753795623779,13.956442832946777,6.480062961578369,-0.5819708704948425,-0.8639568090438843,-0.3059847056865692,0.6481473445892334,-0.8706241846084595,3.7145116329193115
278,620758,620759,-0.06642217934131622,0.09358742088079453,1.0644892454147339,-2.757934808731079,20.625865936279297,4.399788856506348,-0.5924703478813171,-0.8534573316574097,-0.3134843111038208,0.42494985461235046,-0.9200461506843567,3.8039822578430176
279,620768,620769,0.005645681172609329,0.08446182310581207,1.0238043069839478,2.31105375289917,23.66000747680664,1.9826241731643677,-0.5834708213806152,-0.8564571738243103,-0.30748462677001953,0.24290907382965088,-1.016095757484436,3.8537397384643555
280,620778,620779,-0.5912017822265625,-0.00861464161425829,1.0377209186553955,9.221982955932617,21.093334197998047,-0.43504348397254944,-0.5984700918197632,-0.8594570159912109,-0.3134843111038208,0.04092441871762276,-0.9572992920875549,3.866894245147705
281,620788,620789,-0.30680716037750244,0.07143557816743851,1.0317363739013672,15.8212890625,12.381571769714355,-0.5910943746566772,-0.6089695692062378,-0.8549572229385376,-0.2969851493835449,-0.2710108458995819,-0.7871082425117493,3.8744938373565674
282,620798,620799,-0.2344987392425537,0.07433030009269714,1.1040618419647217,16.5970458984375,-2.039442539215088,-0.8106376528739929,-0.5999699831008911,-0.8579570651054382,-0.30898454785346985,-0.3091139793395996,-0.7520943880081177,3.8560924530029297
283,620808,620809,-0.7376954555511475,-0.08603323251008987,1.075417160987854,13.760457038879395,-18.435138702392578,0.6177508234977722,-0.5939702987670898,-0.8759561777114868,-0.3209839463233948,-0.2511383593082428,-0.48476842045783997,3.823754072189331
284,620818,620819,-0.4436112642288208,-0.18141987919807434,1.0380287170410156,7.906951904296875,-28.688541412353516,2.4879379272460938,-0.5969701409339905,-0.8579570651054382,-0.3119843900203705,-0.1468687206506729,-0.47714194655418396,3.838303565979004
285,620828,620829,-0.19683070480823517,-0.14175567030906677,1.0478320121765137,-0.8368547558784485,-32.04545974731445,3.1977035999298096,-0.5864706635475159,-0.8474575877189636,-0.31048446893692017,0.3274095058441162,-0.3384144902229309,3.8305439949035645
286,620838,620839,-0.15445518493652344,-0.26828324794769287,1.0607326030731201,-12.12855052947998,-30.156938552856445,3.6256442070007324,-0.5804709792137146,-0.850457489490509,-0.3164841830730438,0.6110159754753113,-0.4952593445777893,3.874889373779297
287,620848,620849,-0.14289209246635437,-0.15473920106887817,1.0197495222091675,-18.41913604736328,-21.45717430114746,3.9695935249328613,-0.5849707126617432,-0.8549572229385376,-0.29998499155044556,0.9313535690307617,-0.5222129821777344,3.9058828353881836
288,620858,620859,-0.2074754238128662,0.06657334417104721,1.0638978481292725,-17.11671257019043,-7.023800373077393,3.992349147796631,-0.5864706635475159,-0.8384580612182617,-0.30748462677001953,1.1784756183624268,-0.7763559818267822,3.9574148654937744
289,620868,620869,-0.20563170313835144,-0.06549679487943649,1.1163866519927979,-10.452726364135742,12.571807861328125,5.122613430023193,-0.5849707126617432,-0.8489575386047363,-0.3029848337173462,1.0929527282714844,-0.938145637512207,4.018396377563477
290,620878,620879,-0.4278968274593353,-0.37554869055747986,1.0669970512390137,0.5530300736427307,31.54562759399414,5.150096416473389,-0.5954701900482178,-0.8474575877189636,-0.3014849126338959,0.8715965747833252,-1.0607595443725586,4.0722551345825195
291,620888,620889,-0.45121318101882935,-0.21733056008815765,1.0473366975784302,9.26344108581543,43.64574432373047,3.6369588375091553,-0.6014699339866638,-0.850457489490509,-0.3164841830730438,0.7368385791778564,-1.0799578428268433,4.109599590301514
292,620898,620899,-0.13221833109855652,-0.28508448600769043,1.058215618133545,9.68291187286377,45.48470687866211,2.0163917541503906,-0.6014699339866638,-0.8324583768844604,-0.30748462677001953,0.17975257337093353,-0.920074999332428,4.155406475067139
293,620908,620909,-0.077110156416893,-0.06263213604688644,1.0294585227966309,10.590104103088379,38.59100341796875,0.19755959510803223,-0.6074696183204651,-0.8414579033851624,-0.3044847846031189,-0.44344407320022583,-0.8090944290161133,4.188409328460693
294,620918,620919,-0.0843815878033638,0.08075107634067535,1.0294617414474487,11.721976280212402,23.751792907714844,-1.8956366777420044,-0.6209689378738403,-0.8429578542709351,-0.30898454785346985,-0.6455355882644653,-0.8181771636009216,4.174476623535156
295,620928,620929,-0.049350887537002563,0.03895880654454231,1.0829410552978516,14.119783401489258,0.8352333903312683,-3.9945693016052246,-0.6029698252677917,-0.8399580121040344,-0.3119843900203705,-0.9952757954597473,-0.6555984616279602,4.173404693603516
296,620938,620939,-0.29157549142837524,-0.14162984490394592,1.017640233039856,13.231493949890137,-24.305227279663086,-4.973837852478027,-0.6089695692062378,-0.8639568090438843,-0.3029848337173462,-0.9168300032615662,-0.616092324256897,4.112071514129639
297,620948,620949,-0.5031152963638306,-0.31682246923446655,1.014351487159729,10.924108505249023,-45.143165588378906,-5.183623790740967,-0.6149692535400391,-0.8609569072723389,-0.3029848337173462,-0.5123687982559204,-0.5111076235771179,4.035640716552734
298,620958,620959,-0.37932342290878296,-0.26339322328567505,1.0631442070007324,10.564061164855957,-59.31577682495117,-5.279260635375977,-0.5864706635475159,-0.8564571738243103,-0.31048446893692017,-0.05668205767869949,-0.35232624411582947,3.9780030250549316
299,620968,620969,-0.3446829319000244,-0.34940508008003235,1.054032802581787,10.304943084716797,-61.00187683105469,-4.976894855499268,-0.5999699831008911,-0.8549572229385376,-0.3119843900203705,0.5380028486251831,-0.26510223746299744,3.9230709075927734
300,620978,620979,-0.5912972688674927,-0.3121827244758606,1.028526782989502,10.869427680969238,-49.64005661010742,-5.278342247009277,-0.5879706144332886,-0.8669566512107849,-0.30898454785346985,1.1238031387329102,-0.18750208616256714,3.8853964805603027
301,620988,620989,-0.2841607630252838,-0.20949463546276093,1.0055208206176758,10.031243324279785,-33.13053894042969,-6.665803909301758,-0.5789710283279419,-0.8639568090438843,-0.29998499155044556,1.5411479473114014,-0.11040467768907547,3.8439598083496094
302,620998,620999,-0.11378291249275208,-0.03156250715255737,1.0468813180923462,8.184408187866211,-7.0699310302734375,-7.246210098266602,-0.5864706635475159,-0.8594570159912109,-0.31948402523994446,1.756316065788269,0.10789534449577332,3.786450147628784
303,621008,621009,-0.36502888798713684,-0.10683691501617432,1.087699055671692,8.205072402954102,22.692493438720703,-9.480660438537598,-0.5894705057144165,-0.8414579033851624,-0.3164841830730438,1.837214469909668,0.1601722538471222,3.72721791267395
304,621018,621019,-0.2573096752166748,-0.17239724099636078,1.0444821119308472,9.099194526672363,48.61701583862305,-11.147252082824707,-0.5924703478813171,-0.844457745552063,-0.3014849126338959,1.6719272136688232,0.20187214016914368,3.64628529548645
305,621028,621029,-0.13567739725112915,0.021988119930028915,0.9847897887229919,11.620442390441895,64.8443603515625,-13.086749076843262,-0.5999699831008911,-0.8579570651054382,-0.29998499155044556,1.3253287076950073,0.3389109671115875,3.537431240081787
306,621038,621039,-0.4306979179382324,-0.03814374655485153,0.9700164198875427,11.852788925170898,67.31774139404297,-14.161609649658203,-0.6089695692062378,-0.8609569072723389,-0.29098543524742126,0.7602373361587524,0.498083233833313,3.4155826568603516
307,621048,621049,-0.41852739453315735,-0.23408368229866028,1.0143910646438599,15.192768096923828,56.726409912109375,-18.052331924438477,-0.6059696674346924,-0.8489575386047363,-0.3119843900203705,-0.05203450843691826,0.5952029228210449,3.282386064529419
308,621058,621059,-0.12586896121501923,-0.2920065224170685,0.9597194194793701,21.070205688476562,37.82306671142578,-22.072982788085938,-0.6134693026542664,-0.8564571738243103,-0.3044847846031189,-0.6591074466705322,0.6112896800041199,3.1362667083740234
309,621068,621069,-0.3563511371612549,-0.19285108149051666,0.9738818407058716,27.06096076965332,17.377418518066406,-23.258840560913086,-0.6149692535400391,-0.8639568090438843,-0.3029848337173462,-0.8493807911872864,0.8678916096687317,2.935164213180542
310,621078,621079,-0.6740117073059082,-0.7069604992866516,0.9498035311698914,30.157747268676758,-3.9623794555664062,-21.81167221069336,-0.6254687309265137,-0.8564571738243103,-0.2924853563308716,-1.1392004489898682,1.137225866317749,2.704127550125122
311,621088,621089,-0.5707178711891174,-0.8400927782058716,0.9863059520721436,31.904476165771484,-19.716459274291992,-18.87220001220703,-0.5984700918197632,-0.8684565424919128,-0.3134843111038208,-1.0238947868347168,1.5895781517028809,2.486690044403076
312,621098,621099,-0.16211558878421783,-0.5668410062789917,0.8913471102714539,32.001930236816406,-33.28483963012695,-15.087698936462402,-0.6059696674346924,-0.8729563355445862,-0.3119843900203705,-0.7316190600395203,1.9199624061584473,2.2932798862457275
313,621108,621109,-0.41792213916778564,-0.6142016053199768,0.9635103940963745,23.244855880737305,-38.805450439453125,-11.90536117553711,-0.6149692535400391,-0.8849557638168335,-0.3149842321872711,-0.527106523513794,2.0291860103607178,2.1043951511383057
314,621118,621119,-0.35457855463027954,-0.43679600954055786,0.9698543548583984,6.550783634185791,-35.49775695800781,-9.790406227111816,-0.5954701900482178,-0.8744562864303589,-0.32848358154296875,-0.24207141995429993,2.27908992767334,1.9495320320129395
315,621128,621129,-0.36011120676994324,-0.17449523508548737,0.948913037776947,-10.867157936096191,-24.193050384521484,-9.213326454162598,-0.6029698252677917,-0.8549572229385376,-0.3239837884902954,0.19681526720523834,2.4139063358306885,1.8434717655181885
316,621138,621139,-0.3546156883239746,-0.15561231970787048,0.9129148721694946,-27.559410095214844,-5.432424068450928,-7.6963582038879395,-0.5984700918197632,-0.8534573316574097,-0.30748462677001953,0.24225179851055145,2.2672691345214844,1.6803988218307495
317,621148,621149,-0.16504822671413422,-0.15650209784507751,1.0048940181732178,-37.02949905395508,14.200263977050781,-6.327610015869141,-0.6029698252677917,-0.8699564933776855,-0.3059847056865692,0.3694249987602234,1.9424539804458618,1.5938912630081177
318,621158,621159,-0.11811390519142151,-0.26273083686828613,0.9621301293373108,-39.435081481933594,27.523712158203125,-4.884741306304932,-0.6014699339866638,-0.8534573316574097,-0.31048446893692017,0.3400600552558899,1.6710313558578491,1.5421520471572876
319,621168,621169,-0.31598174571990967,-0.018139444291591644,1.0378172397613525,-31.23202896118164,36.81364059448242,-3.117398738861084,-0.5984700918197632,-0.8624568581581116,-0.29848507046699524,0.02422717586159706,1.3109279870986938,1.4749670028686523
320,621178,621179,-0.6724727749824524,-0.1523987352848053,1.0290192365646362,-17.051361083984375,41.90903091430664,-2.0916430950164795,-0.6029698252677917,-0.8579570651054382,-0.29998499155044556,-0.3719553053379059,0.9371814131736755,1.4301868677139282
321,621188,621189,-0.3344818949699402,0.05635029450058937,1.0402376651763916,-1.6494412422180176,33.971778869628906,-2.31158709526062,-0.6029698252677917,-0.8579570651054382,-0.29998499155044556,-0.6819179654121399,0.8498071432113647,1.445168375968933
322,621198,621199,-0.2990100085735321,0.01893630437552929,1.027876377105713,5.980922698974609,15.903000831604004,-3.2205331325531006,-0.6029698252677917,-0.8579570651054382,-0.29998499155044556,-1.0790966749191284,0.8202337622642517,1.42254638671875
323,621208,621209,-0.8542338609695435,-0.046748265624046326,0.994966983795166,7.333840847015381,-7.184669494628906,-3.5420517921447754,-0.6104694604873657,-0.8534573316574097,-0.30748462677001953,-1.1203116178512573,0.981027364730835,1.45736825466156
324,621218,621219,-0.6589248776435852,-0.1423322558403015,0.9637241363525391,5.636848449707031,-21.268911361694336,-2.324852705001831,-0.616469144821167,-0.8594570159912109,-0.3014849126338959,-1.0537065267562866,1.094413161277771,1.4442713260650635
325,621228,621229,-1.3139585256576538,-0.18508881330490112,1.0500679016113281,0.7096166014671326,-27.27520179748535,-0.6721376180648804,-0.6179690957069397,-0.8489575386047363,-0.3119843900203705,-0.8932833075523376,1.1701233386993408,1.4123190641403198
326,621238,621239,-0.7857248187065125,-0.1351655125617981,1.023898959159851,-5.378453731536865,-26.082557678222656,1.2651485204696655,-0.6059696674346924,-0.8639568090438843,-0.3059847056865692,-0.6354650259017944,1.0353467464447021,1.3754900693893433
327,621248,621249,-0.6785418391227722,-0.3607383668422699,1.0016781091690063,-9.31262493133545,-18.604459762573242,1.9887887239456177,-0.6119694113731384,-0.8489575386047363,-0.3059847056865692,-0.40164533257484436,1.0981032848358154,1.3797235488891602
328,621258,621259,-0.27213454246520996,-0.1992848515510559,1.0275845527648926,-9.966202735900879,-6.788707256317139,1.2507688999176025,-0.6194689869880676,-0.8414579033851624,-0.3014849126338959,-0.22364342212677002,1.092797875404358,1.3936009407043457
329,621268,621269,-0.11210222542285919,0.1166456937789917,1.055096983909607,-7.990323066711426,2.591769218444824,1.146977186203003,-0.622468888759613,-0.844457745552063,-0.2954852283000946,-0.16158337891101837,0.9315453171730042,1.3928042650222778
330,621278,621279,-0.712471604347229,-0.32792919874191284,0.9811440110206604,-5.401349067687988,9.55371379852295,-1.7219749689102173,-0.6134693026542664,-0.8384580612182617,-0.2924853563308716,-0.23846451938152313,0.7297372221946716,1.3762654066085815
331,621288,621289,-0.6928449869155884,-0.1239183321595192,1.0123392343521118,1.4195457696914673,14.220962524414062,-2.227080821990967,-0.6209689378738403,-0.836958110332489,-0.3029848337173462,-0.3342951536178589,0.8627244830131531,1.3860924243927002
332,621298,621299,-0.19846339523792267,-0.21846047043800354,1.0120344161987305,8.917755126953125,17.256763458251953,-3.620561361312866,-0.6269686222076416,-0.8399580121040344,-0.2969851493835449,-0.5074577331542969,0.9372406601905823,1.3679559230804443
333,621308,621309,-0.3456285297870636,-0.10052240639925003,1.000505805015564,12.608657836914062,17.88469123840332,-5.135245323181152,-0.6269686222076416,-0.836958110332489,-0.3029848337173462,-0.659654438495636,0.9024638533592224,1.3337328433990479
334,621318,621319,-0.12274931371212006,-0.09551320970058441,0.9179517030715942,11.996198654174805,15.31558609008789,-5.69170618057251,-0.6269686222076416,-0.8399580121040344,-0.29098543524742126,-0.811320960521698,1.0802533626556396,1.3051483631134033
335,621328,621329,-0.8341533541679382,-0.11507178097963333,0.948060929775238,5.882784843444824,11.138314247131348,-6.493721008300781,-0.6254687309265137,-0.8414579033851624,-0.3044847846031189,-0.8582184314727783,1.2344907522201538,1.2838778495788574
336,621338,621339,-0.5786473155021667,-0.14339029788970947,0.9718277454376221,1.4872374534606934,6.303110599517822,-7.912477970123291,-0.6314684152603149,-0.8534573316574097,-0.30748462677001953,-1.0604841709136963,1.310349941253662,1.2075670957565308
337,621348,621349,-0.4129435122013092,-0.08070747554302216,0.9771237373352051,-4.134354591369629,2.403113842010498,-8.122441291809082,-0.6194689869880676,-0.8384580612182617,-0.28948551416397095,-1.1120476722717285,1.303942084312439,1.1374882459640503
338,621358,621359,-0.19822165369987488,-0.13473762571811676,0.944487452507019,-13.442397117614746,-0.32570868730545044,-7.74860143661499,-0.6314684152603149,-0.8354582190513611,-0.2864856719970703,-1.0962146520614624,1.266487717628479,1.0662751197814941
339,621368,621369,-0.24260804057121277,-0.19279906153678894,0.95833420753479,-22.96792221069336,-4.5869460105896,-7.318334102630615,-0.622468888759613,-0.8414579033851624,-0.29848507046699524,-1.09528386592865,1.1613150835037231,0.9871898889541626
340,621378,621379,-0.1600995808839798,-0.04814646393060684,0.9464773535728455,-26.933359146118164,-7.19262170791626,-5.090053558349609,-0.6254687309265137,-0.8354582190513611,-0.3044847846031189,-1.0375179052352905,0.982850193977356,0.9201964139938354
341,621388,621389,-0.44781428575515747,-0.10456200689077377,0.9131205081939697,-22.925247192382812,-5.609285831451416,-3.6294076442718506,-0.6134693026542664,-0.8264586329460144,-0.29848507046699524,-0.9380984902381897,0.6762490272521973,0.8566969037055969
342,621398,621399,-1.2712528705596924,-0.5347509980201721,0.9607242941856384,-19.375720977783203,1.1052662134170532,-1.9542064666748047,-0.6284685730934143,-0.8414579033851624,-0.28948551416397095,-0.874933660030365,0.3464285135269165,0.7970471978187561
343,621408,621409,-0.6323619484901428,-0.4379842281341553,0.9297959804534912,-13.596757888793945,7.802546501159668,-1.5255779027938843,-0.6359682083129883,-0.836958110332489,-0.2939853072166443,-0.9208095669746399,0.35839393734931946,0.7990235090255737
344,621418,621419,-0.4226987063884735,-0.20128624141216278,0.9571351408958435,-5.750060081481934,9.12704849243164,-0.9619073867797852,-0.6194689869880676,-0.8294585347175598,-0.2924853563308716,-1.0615315437316895,0.15797178447246552,0.7630414366722107
345,621428,621429,-0.2579721510410309,0.06993727385997772,0.9772279858589172,3.882585287094116,6.208040237426758,0.23001497983932495,-0.6404679417610168,-0.8414579033851624,-0.3044847846031189,-1.1318172216415405,0.16990360617637634,0.7756898999214172
346,621438,621439,-0.20259495079517365,0.01860892027616501,0.9902641773223877,11.796338081359863,1.9386736154556274,1.4257984161376953,-0.6269686222076416,-0.8339582681655884,-0.29098543524742126,-1.2263798713684082,0.1814940720796585,0.77052241563797
347,621448,621449,-0.09156421571969986,0.029318319633603096,0.9759925603866577,14.971698760986328,-3.318357229232788,2.4861223697662354,-0.6389680504798889,-0.836958110332489,-0.29098543524742126,-1.2465883493423462,0.3144882023334503,0.7895598411560059
348,621458,621459,-0.38148364424705505,-0.5209641456604004,1.0227704048156738,15.382256507873535,-8.517687797546387,3.7105252742767334,-0.622468888759613,-0.8324583768844604,-0.29848507046699524,-1.1782716512680054,0.44145524501800537,0.8126434683799744
349,621468,621469,-0.35692277550697327,-0.25481757521629333,1.0245847702026367,9.181428909301758,-13.026281356811523,4.570588111877441,-0.6179690957069397,-0.8459576964378357,-0.29998499155044556,-1.031806230545044,0.6221807599067688,0.8555002212524414
350,621478,621479,-0.12273310124874115,-0.10365656763315201,1.094972848892212,-5.679567337036133,-14.462573051452637,5.639638900756836,-0.6194689869880676,-0.8414579033851624,-0.29848507046699524,-0.8990399241447449,0.6745818853378296,0.8874439001083374
351,621488,621489,-0.3485265374183655,-0.11322527378797531,0.9556556940078735,-27.050310134887695,-9.181612968444824,5.4653496742248535,-0.6314684152603149,-0.8354582190513611,-0.2924853563308716,-0.7437905073165894,0.5572003722190857,0.9228861331939697
352,621498,621499,-0.6824465394020081,-0.5256035327911377,0.9943758249282837,-38.38753890991211,-2.7583518028259277,6.1495819091796875,-0.6029698252677917,-0.8339582681655884,-0.2939853072166443,-0.7301381826400757,0.30631038546562195,0.959312915802002
353,621508,621509,-0.5233149528503418,-0.1478041410446167,0.9807424545288086,-45.365074157714844,5.468070030212402,7.451991558074951,-0.6269686222076416,-0.8429578542709351,-0.28498575091362,-0.752202570438385,-0.21569399535655975,0.9745539426803589
354,621518,621519,-0.7894649505615234,0.04321330413222313,1.0359629392623901,-45.008888244628906,9.632357597351074,7.95252799987793,-0.623968780040741,-0.8159592151641846,-0.29098543524742126,-0.7829473614692688,-0.6865314841270447,1.0383455753326416
355,621528,621529,-0.44414982199668884,0.015620006248354912,0.9739588499069214,-35.67905044555664,12.290372848510742,8.5316743850708,-0.6209689378738403,-0.8309584259986877,-0.28798559308052063,-0.8306904435157776,-0.8555323481559753,1.1786810159683228
356,621538,621539,-0.11841737478971481,0.11350230127573013,1.0194836854934692,-24.429651260375977,7.874664306640625,7.265430450439453,-0.6269686222076416,-0.8099594712257385,-0.2969851493835449,-1.002961277961731,-1.460810899734497,1.2156875133514404
357,621548,621549,-0.17645691335201263,0.006415501702576876,0.9825744032859802,-10.468306541442871,0.5563797354698181,6.828031539916992,-0.6299684643745422,-0.8129593133926392,-0.28498575091362,-1.1181573867797852,-1.5755984783172607,1.321506142616272
358,621558,621559,-0.327342689037323,-0.1628861278295517,0.9639740586280823,7.307013511657715,-6.448212623596191,6.050350189208984,-0.6419678926467896,-0.8069596290588379,-0.28198590874671936,-1.1311779022216797,-1.758960485458374,1.3837401866912842
359,621568,621569,-0.15882974863052368,-0.15217383205890656,0.9801856279373169,20.407474517822266,-11.889384269714355,5.566673278808594,-0.6404679417610168,-0.8294585347175598,-0.28948551416397095,-1.0327767133712769,-1.6897718906402588,1.4576568603515625
360,621578,621579,-0.08603658527135849,-0.01762242428958416,0.9710162878036499,33.2273063659668,-16.81546974182129,5.516972064971924,-0.6344682574272156,-0.8294585347175598,-0.2924853563308716,-0.9559637904167175,-1.5129820108413696,1.5237480401992798
361,621588,621589,-0.6946651935577393,-0.33134081959724426,0.9325824975967407,38.466373443603516,-19.017419815063477,5.529697895050049,-0.6329683661460876,-0.8279585838317871,-0.28798559308052063,-0.7377135753631592,-1.0831823348999023,1.5985357761383057
362,621598,621599,-0.5963547825813293,-0.22653838992118835,0.9212955832481384,32.578426361083984,-17.520360946655273,5.611322402954102,-0.6269686222076416,-0.8339582681655884,-0.28798559308052063,-0.6318516135215759,-0.6682900786399841,1.676680564880371
363,621608,621609,-0.30414673686027527,-0.5428464412689209,0.9029618501663208,21.798049926757812,-17.26650047302246,5.569958209991455,-0.6254687309265137,-0.8354582190513611,-0.3014849126338959,-0.5336458086967468,-0.4095333516597748,1.7291382551193237
364,621618,621619,-0.04436537250876427,-0.4900587797164917,0.8681415915489197,7.120589256286621,-16.818397521972656,3.182891845703125,-0.6209689378738403,-0.8249587416648865,-0.29098543524742126,-0.23675550520420074,-0.251263290643692,1.7451763153076172
365,621628,621629,-0.14888742566108704,-0.20911502838134766,0.8326476216316223,-6.887224197387695,-14.676399230957031,-0.1990077942609787,-0.6269686222076416,-0.8339582681655884,-0.28798559308052063,-0.1562502533197403,-0.17499680817127228,1.7928869724273682
366,621638,621639,-0.46403342485427856,-0.20189186930656433,0.8806935548782349,-12.965346336364746,-8.984365463256836,-4.681483268737793,-0.6089695692062378,-0.8309584259986877,-0.29098543524742126,0.11200243979692459,-0.28899866342544556,1.7761749029159546
367,621648,621649,-0.35549601912498474,-0.2614424228668213,0.9827126264572144,-14.543652534484863,-3.69887113571167,-7.03025484085083,-0.6089695692062378,-0.8279585838317871,-0.3029848337173462,0.07665159553289413,-0.4309062659740448,1.766945242881775
368,621658,621659,-0.7323712706565857,-0.5932396650314331,0.9817519187927246,-9.790197372436523,1.7966914176940918,-8.612651824951172,-0.6029698252677917,-0.8339582681655884,-0.29998499155044556,0.16705988347530365,-0.6613907217979431,1.6897873878479004
369,621668,621669,-1.2017123699188232,-0.5514072775840759,0.9905871152877808,1.8833911418914795,4.378266334533691,-7.506683826446533,-0.6089695692062378,-0.8399580121040344,-0.2969851493835449,0.12328679859638214,-0.6595796942710876,1.6251991987228394
370,621678,621679,-0.478212833404541,-0.5335135459899902,1.006156086921692,11.764225959777832,4.814276218414307,-7.321971893310547,-0.6149692535400391,-0.8459576964378357,-0.3119843900203705,0.10389580577611923,-0.6413214206695557,1.546924352645874
371,621688,621689,-0.18356268107891083,-0.22610130906105042,1.0245379209518433,24.03257942199707,0.20304057002067566,-6.448399066925049,-0.6149692535400391,-0.8399580121040344,-0.29998499155044556,0.08185727894306183,-0.45039087533950806,1.474370002746582
372,621698,621699,-0.082272469997406,-0.0014399837236851454,0.9747981429100037,28.606260299682617,-3.1183784008026123,-6.097383499145508,-0.6074696183204651,-0.8594570159912109,-0.3014849126338959,0.12179569900035858,-0.17597489058971405,1.4079458713531494
373,621708,621709,-0.5719055533409119,-0.027694527059793472,1.0678117275238037,24.909847259521484,-2.89086651802063,-4.748836040496826,-0.622468888759613,-0.8594570159912109,-0.29848507046699524,0.25062254071235657,-0.04460810124874115,1.3243387937545776
374,621718,621719,-0.45257091522216797,0.07690974324941635,1.0803720951080322,17.260854721069336,-1.8063976764678955,-2.825564384460449,-0.6089695692062378,-0.836958110332489,-0.3029848337173462,0.23353968560695648,0.11909908056259155,1.2777981758117676
375,621728,621729,-0.7608315944671631,0.002875663572922349,1.0372858047485352,7.635093688964844,3.3523600101470947,-1.48232102394104,-0.6179690957069397,-0.851957380771637,-0.29998499155044556,0.13103213906288147,0.37080174684524536,1.266255259513855
376,621738,621739,-0.8521018624305725,-0.1422092169523239,1.0168614387512207,-2.7661380767822266,6.800549507141113,-1.1523609161376953,-0.6149692535400391,-0.8459576964378357,-0.30898454785346985,0.10727166384458542,0.4533652067184448,1.2579867839813232
377,621748,621749,-0.5025992393493652,-0.2420627474784851,0.9987559914588928,-4.005519390106201,6.37376070022583,-0.25176653265953064,-0.6149692535400391,-0.8459576964378357,-0.3059847056865692,0.030167443677783012,0.33883941173553467,1.2527068853378296
378,621758,621759,-0.6501940488815308,-0.03004959225654602,0.9703884124755859,-5.996346473693848,3.9814419746398926,2.4677796363830566,-0.6074696183204651,-0.8414579033851624,-0.28948551416397095,-0.028297221288084984,0.3256377577781677,1.2455310821533203
379,621768,621769,-0.8976322412490845,-0.05767764523625374,0.9859123826026917,-7.983394145965576,0.030730348080396652,6.694390773773193,-0.6179690957069397,-0.836958110332489,-0.30898454785346985,-0.028643988072872162,0.28672879934310913,1.2612913846969604
380,621778,621779,-1.1840827465057373,-0.1107981875538826,0.9389543533325195,-9.477473258972168,-3.3153886795043945,9.934954643249512,-0.6194689869880676,-0.8414579033851624,-0.3044847846031189,0.018352163955569267,0.2146749198436737,1.316602349281311
381,621788,621789,-0.8640167117118835,-0.10297413170337677,0.949702262878418,-12.863142967224121,-8.048807144165039,12.511879920959473,-0.6209689378738403,-0.8429578542709351,-0.29098543524742126,0.04420990124344826,0.17929436266422272,1.4085705280303955
382,621798,621799,-0.15884768962860107,0.02881571091711521,0.9352499842643738,-18.562849044799805,-13.160407066345215,14.479548454284668,-0.6149692535400391,-0.8339582681655884,-0.3029848337173462,0.15437056124210358,0.02132592350244522,1.5246630907058716
383,621808,621809,-0.048372603952884674,-0.015204506926238537,0.9712262749671936,-19.171125411987305,-15.142607688903809,14.639604568481445,-0.6149692535400391,-0.8549572229385376,-0.29998499155044556,0.2568676471710205,-0.2018960416316986,1.6703730821609497
384,621818,621819,-0.25161856412887573,-0.15767280757427216,1.0108277797698975,-18.965744018554688,-17.307266235351562,14.01386833190918,-0.6059696674346924,-0.8429578542709351,-0.29998499155044556,0.3188963532447815,-0.31770259141921997,1.8172739744186401
385,621828,621829,-0.4787311255931854,-0.044450853019952774,1.0530991554260254,-13.476445198059082,-13.8805513381958,12.665236473083496,-0.6059696674346924,-0.8339582681655884,-0.3059847056865692,0.6182633638381958,-0.6260373592376709,1.9614466428756714
386,621838,621839,-0.24153843522071838,0.08139755576848984,1.0654633045196533,-3.0180866718292236,-6.917152404785156,12.592785835266113,-0.6089695692062378,-0.8279585838317871,-0.3029848337173462,0.7705110907554626,-0.755777895450592,2.0907535552978516
387,621848,621849,-0.07322698831558228,-0.035538025200366974,1.0135366916656494,9.42977237701416,0.9772236943244934,14.499518394470215,-0.6029698252677917,-0.8309584259986877,-0.2969851493835449,0.7483460307121277,-0.6509879231452942,2.206462860107422
388,621858,621859,-0.09981939941644669,-0.2869962751865387,1.033957600593567,12.4400053024292,7.797597885131836,16.378034591674805,-0.6044697761535645,-0.844457745552063,-0.3044847846031189,0.7689092755317688,-0.5477584004402161,2.3362956047058105
389,621868,621869,-0.39932575821876526,-0.49424949288368225,0.9420392513275146,11.372879981994629,9.923003196716309,17.52419090270996,-0.6059696674346924,-0.8399580121040344,-0.29998499155044556,0.6913835406303406,-0.44334205985069275,2.496140241622925
390,621878,621879,-0.3330918848514557,-0.18413572013378143,1.0219225883483887,3.159675121307373,3.8711793422698975,17.080060958862305,-0.5939702987670898,-0.8549572229385376,-0.3029848337173462,0.5920348167419434,-0.367766797542572,2.672813892364502
391,621888,621889,-0.10611551254987717,0.16823746263980865,1.0141477584838867,-10.884492874145508,-6.719738006591797,16.71048927307129,-0.6149692535400391,-0.8339582681655884,-0.3059847056865692,0.5042336583137512,-0.2821282744407654,2.846609592437744
392,621898,621899,-0.051353782415390015,0.08002792298793793,0.9894726276397705,-23.259607315063477,-14.55088996887207,16.01822280883789,-0.6059696674346924,-0.836958110332489,-0.29998499155044556,0.5682744383811951,-0.4798141419887543,3.030956745147705
393,621908,621909,-0.05708984658122063,-0.13228991627693176,0.9612340927124023,-32.75885772705078,-17.226463317871094,14.051238059997559,-0.5924703478813171,-0.8354582190513611,-0.2924853563308716,0.8245523571968079,-0.7315716743469238,3.1894986629486084
394,621918,621919,-0.11898940056562424,-0.15426649153232574,0.940584659576416,-35.20863723754883,-13.451401710510254,11.347851753234863,-0.5984700918197632,-0.8384580612182617,-0.2954852283000946,0.9776064157485962,-0.9071633815765381,3.320915460586548
395,621928,621929,-0.22708740830421448,-0.06732674688100815,0.973088264465332,-29.7254695892334,-6.61399507522583,7.99320125579834,-0.5984700918197632,-0.8384580612182617,-0.2954852283000946,1.2114753723144531,-1.3212120532989502,3.4502882957458496
396,621938,621939,-0.2087254673242569,-0.04176004230976105,1.0000041723251343,-19.300161361694336,-0.5758708715438843,4.536640167236328,-0.5984700918197632,-0.8384580612182617,-0.2954852283000946,1.3032437562942505,-1.5743721723556519,3.5325698852539062
397,621948,621949,-0.514432966709137,-0.06673385947942734,1.035902976989746,-0.0326814167201519,-1.897386908531189,2.459606170654297,-0.5909704566001892,-0.8399580121040344,-0.2969851493835449,1.260716199874878,-1.8592510223388672,3.599489450454712
398,621958,621959,-0.6643695831298828,-0.14049388468265533,1.0083783864974976,12.327880859375,-1.4934908151626587,0.027769191190600395,-0.6044697761535645,-0.8354582190513611,-0.2864856719970703,1.297214388847351,-1.7391839027404785,3.5877845287323
399,621968,621969,-0.2802264392375946,-0.3133206367492676,0.9438310265541077,26.66397476196289,-4.9012322425842285,-2.268049955368042,-0.5894705057144165,-0.8384580612182617,-0.29848507046699524,1.1909703016281128,-1.6769943237304688,3.6235342025756836
400,621978,621979,-0.13920703530311584,-0.21565598249435425,0.9448946714401245,39.43783950805664,-7.158940315246582,-2.459911823272705,-0.5984700918197632,-0.8564571738243103,-0.29848507046699524,1.0593852996826172,-1.3146365880966187,3.607205390930176
401,621988,621989,0.005463114473968744,0.044449277222156525,0.9474785923957825,45.43570327758789,-5.2017011642456055,-2.269319534301758,-0.5894705057144165,-0.8594570159912109,-0.3164841830730438,1.0969955921173096,-1.047361969947815,3.610516309738159
402,621998,621999,-0.26527711749076843,0.001737898914143443,0.973913848400116,40.29987335205078,-3.57833194732666,-2.693990468978882,-0.6044697761535645,-0.8594570159912109,-0.3044847846031189,1.1670148372650146,-0.6263370513916016,3.5843546390533447
403,622008,622009,-0.7569695711135864,-0.2580326795578003,0.9737811088562012,23.641094207763672,0.5215685367584229,-2.7074859142303467,-0.5939702987670898,-0.8579570651054382,-0.3149842321872711,1.1518632173538208,-0.1665612757205963,3.553799629211426
404,622018,622019,-0.735152542591095,0.007321512792259455,1.041824460029602,8.07484245300293,8.206282615661621,-1.3803836107254028,-0.5954701900482178,-0.850457489490509,-0.31948402523994446,1.1639044284820557,-0.009183942340314388,3.564133405685425
405,622028,622029,-0.38563570380210876,0.056794650852680206,1.071273922920227,-4.763973712921143,20.11281394958496,-0.8219083547592163,-0.5924703478813171,-0.850457489490509,-0.29848507046699524,1.0315639972686768,0.11389259994029999,3.5679848194122314
406,622038,622039,-0.4611509442329407,-0.18294215202331543,0.9840644598007202,-14.884905815124512,31.450193405151367,-1.3684642314910889,-0.5864706635475159,-0.850457489490509,-0.3134843111038208,0.8442218899726868,0.022552629932761192,3.5873939990997314
407,622048,622049,-0.4632522463798523,-0.45030009746551514,0.9930356740951538,-18.435482025146484,38.6627082824707,-1.6232788562774658,-0.6029698252677917,-0.8489575386047363,-0.3119843900203705,0.5555809140205383,-0.13806186616420746,3.583308219909668
408,622058,622059,-0.3257935643196106,-0.8698118329048157,1.0229493379592896,-17.288963317871094,34.53905487060547,-1.617980718612671,-0.5999699831008911,-0.8579570651054382,-0.2939853072166443,0.1252502053976059,-0.42022714018821716,3.5967659950256348
409,622068,622069,-1.181443691253662,-1.016586422920227,1.043731451034546,-13.529891014099121,22.134506225585938,-1.1662969589233398,-0.5924703478813171,-0.844457745552063,-0.2954852283000946,-0.23762774467468262,-0.535163938999176,3.559800386428833
410,622078,622079,-0.8818720579147339,-0.6256648302078247,0.997329831123352,-3.3203530311584473,-0.8128467798233032,-0.4655006229877472,-0.6029698252677917,-0.851957380771637,-0.3119843900203705,-0.39349862933158875,-0.7134122252464294,3.534175157546997
411,622088,622089,-0.2554115653038025,-0.14179494976997375,1.0266566276550293,6.455565929412842,-19.084735870361328,1.1896119117736816,-0.6119694113731384,-0.8579570651054382,-0.3119843900203705,-0.36880379915237427,-0.7443773150444031,3.5097594261169434
412,622098,622099,-0.006912898737937212,0.09660293906927109,0.9828498959541321,16.50410270690918,-36.47798538208008,2.198237180709839,-0.5939702987670898,-0.8429578542709351,-0.31798410415649414,-0.15558098256587982,-0.6119918823242188,3.493462085723877
413,622108,622109,0.04122569411993027,0.01955728605389595,0.9715255498886108,20.5487003326416,-42.074642181396484,2.533571243286133,-0.5999699831008911,-0.8489575386047363,-0.3119843900203705,0.21895897388458252,-0.4170672595500946,3.4998295307159424
414,622118,622119,-0.20451338589191437,0.09133642166852951,1.031864881515503,26.16985511779785,-35.378440856933594,3.268556833267212,-0.5894705057144165,-0.8594570159912109,-0.30748462677001953,0.5166575312614441,-0.13563120365142822,3.528934955596924
415,622128,622129,-0.41416028141975403,-0.04623084142804146,1.0390095710754395,26.215274810791016,-18.78089714050293,5.549098491668701,-0.5879706144332886,-0.8669566512107849,-0.30898454785346985,0.9818896651268005,0.132588729262352,3.5438358783721924
416,622138,622139,-0.2183734029531479,-0.10961412638425827,0.979920506477356,16.185380935668945,-4.486717700958252,7.2739338874816895,-0.6044697761535645,-0.8654567003250122,-0.32848358154296875,1.1355698108673096,0.23867566883563995,3.6170947551727295
417,622148,622149,-0.3186911940574646,0.0489899180829525,0.965484082698822,3.2465248107910156,7.226077079772949,6.388871192932129,-0.5894705057144165,-0.8534573316574097,-0.3164841830730438,1.0845130681991577,0.35400906205177307,3.7113876342773438
418,622158,622159,-0.1664178967475891,0.026560891419649124,1.0051352977752686,-7.655262470245361,17.57268714904785,4.40087890625,-0.5894705057144165,-0.8624568581581116,-0.30748462677001953,1.039200782775879,0.4123561680316925,3.7913784980773926
419,622168,622169,0.012523873709142208,-0.30989620089530945,1.0057820081710815,-19.1748104095459,21.316801071166992,2.125030279159546,-0.5864706635475159,-0.8594570159912109,-0.3164841830730438,0.7486656308174133,0.27553632855415344,3.8658058643341064
420,622178,622179,-0.3213530480861664,-0.26378166675567627,1.0496989488601685,-22.563417434692383,19.041828155517578,0.9933438301086426,-0.5789710283279419,-0.8609569072723389,-0.31798410415649414,0.496663361787796,0.0669940710067749,3.899425983428955
421,622188,622189,-0.9681547284126282,-0.11373982578516006,1.0741918087005615,-17.414365768432617,11.723506927490234,0.6933707594871521,-0.5864706635475159,-0.8624568581581116,-0.3044847846031189,0.31373170018196106,-0.10960372537374496,3.9050981998443604
422,622198,622199,-0.560657262802124,-0.11781971156597137,1.0625340938568115,-6.988128185272217,0.7276057004928589,-1.070394515991211,-0.5969701409339905,-0.8549572229385376,-0.3059847056865692,0.3127950429916382,-0.27229371666908264,3.9094011783599854
423,622208,622209,-0.8122062087059021,-0.15421447157859802,1.0158653259277344,3.0393805503845215,-11.237854957580566,-1.449479103088379,-0.5984700918197632,-0.8534573316574097,-0.3134843111038208,0.2580806314945221,-0.35915762186050415,3.90351939201355
424,622218,622219,-1.411260724067688,-0.326254665851593,1.0369970798492432,15.720731735229492,-20.297163009643555,0.15768656134605408,-0.5894705057144165,-0.8684565424919128,-0.31048446893692017,0.4066070020198822,-0.27424365282058716,3.8707282543182373
425,622228,622229,-1.0259639024734497,-0.9087696671485901,1.0450568199157715,20.581979751586914,-21.270679473876953,1.4065309762954712,-0.6044697761535645,-0.8624568581581116,-0.31948402523994446,0.6772193908691406,-0.09017284214496613,3.8533644676208496
426,622238,622239,-0.15650691092014313,-0.5072575807571411,1.007441520690918,19.49281883239746,-17.794767379760742,2.6724061965942383,-0.5909704566001892,-0.8579570651054382,-0.3119843900203705,0.8642390370368958,0.02775529772043228,3.872746467590332
427,622248,622249,-0.04315304756164551,-0.1032588928937912,1.0253729820251465,13.594417572021484,-15.687990188598633,2.9577181339263916,-0.5924703478813171,-0.8594570159912109,-0.3134843111038208,1.082932472229004,0.33700379729270935,3.876699447631836
428,622258,622259,-0.23706462979316711,-0.0945475772023201,1.0627648830413818,8.598715782165527,-10.800152778625488,2.372035503387451,-0.5909704566001892,-0.8549572229385376,-0.30898454785346985,1.0619755983352661,0.4203777313232422,3.911870241165161
429,622268,622269,-0.2623319923877716,-0.3067162036895752,1.0636204481124878,-0.37206947803497314,0.01778736151754856,0.7210540175437927,-0.5954701900482178,-0.8594570159912109,-0.31048446893692017,1.1773333549499512,0.4794008135795593,3.9424941539764404
430,622278,622279,-0.07626259326934814,-0.07058185338973999,1.0260621309280396,-7.045854568481445,10.508794784545898,-0.7068397998809814,-0.5939702987670898,-0.8639568090438843,-0.3239837884902954,1.1957582235336304,0.4213040769100189,3.9716074466705322
431,622288,622289,-0.09601285308599472,-0.09174682945013046,0.9556583762168884,-12.701963424682617,22.54513931274414,-1.659036636352539,-0.5924703478813171,-0.8534573316574097,-0.2954852283000946,1.0366599559783936,0.31999728083610535,3.970985174179077
432,622298,622299,-0.44534751772880554,-0.1391865462064743,1.0008951425552368,-13.553110122680664,32.813228607177734,-3.2780392169952393,-0.5984700918197632,-0.8534573316574097,-0.31048446893692017,0.9215795397758484,0.2871786952018738,3.9475293159484863
433,622308,622309,-0.8547025918960571,-0.3095051646232605,1.040961742401123,-9.917993545532227,35.46638107299805,-4.801479816436768,-0.5939702987670898,-0.8459576964378357,-0.3029848337173462,0.5789322853088379,0.09774492681026459,3.929783582687378
434,622318,622319,-0.6263893842697144,-0.10417749732732773,1.0300873517990112,-3.8460891246795654,34.89539337158203,-5.154652118682861,-0.6014699339866638,-0.8474575877189636,-0.2954852283000946,0.1678401082754135,0.03630497306585312,3.874699592590332
435,622328,622329,-0.06112467870116234,0.04792851209640503,1.01795494556427,4.009008407592773,23.60808753967285,-6.131056785583496,-0.6029698252677917,-0.8609569072723389,-0.3029848337173462,-0.06096421927213669,0.0003750645846594125,3.8235020637512207
436,622338,622339,-0.09810295701026917,-0.0342266708612442,1.0871219635009766,9.098045349121094,10.350923538208008,-6.113765239715576,-0.6074696183204651,-0.850457489490509,-0.3044847846031189,-0.4185141623020172,0.07519789785146713,3.7550222873687744
437,622348,622349,-0.026967575773596764,-0.025960387662053108,1.0527340173721313,11.555776596069336,-3.3091814517974854,-4.847893714904785,-0.6059696674346924,-0.851957380771637,-0.3119843900203705,-0.27674299478530884,0.2327946573495865,3.7017459869384766
438,622358,622359,-0.18553507328033447,-0.1609589159488678,1.0714837312698364,9.248479843139648,-13.14987564086914,-2.681572437286377,-0.6044697761535645,-0.8474575877189636,-0.31048446893692017,-0.440854549407959,0.3404257297515869,3.6418020725250244
439,622368,622369,-0.4557051956653595,-0.2727136015892029,1.0149455070495605,0.436890184879303,-18.904205322265625,-0.7841498255729675,-0.6104694604873657,-0.8564571738243103,-0.30748462677001953,-0.3757404088973999,0.252609521150589,3.6148083209991455
440,622378,622379,-0.2794596552848816,-0.3120529353618622,0.9732656478881836,-14.585721969604492,-23.331493377685547,0.48440685868263245,-0.5984700918197632,-0.8594570159912109,-0.3164841830730438,-0.21359725296497345,0.24382279813289642,3.597768545150757
441,622388,622389,-0.30324918031692505,-0.39963260293006897,1.0127131938934326,-23.68366241455078,-23.24598503112793,-0.45985397696495056,-0.5909704566001892,-0.8399580121040344,-0.3059847056865692,0.16414141654968262,0.03967345133423805,3.6080543994903564
442,622398,622399,-1.0153162479400635,-0.2767505645751953,1.047189712524414,-24.98269271850586,-19.550174713134766,-1.4718565940856934,-0.6074696183204651,-0.8204589486122131,-0.31048446893692017,0.458344042301178,-0.16137614846229553,3.6101629734039307
443,622408,622409,-0.5489135980606079,-0.03765592724084854,1.0760647058486938,-23.830806732177734,-12.436797142028809,-1.8670775890350342,-0.5924703478813171,-0.8414579033851624,-0.3044847846031189,0.4005642533302307,-0.3976496458053589,3.5860748291015625
444,622418,622419,-0.1263960748910904,0.030894245952367783,1.007409930229187,-19.234363555908203,-7.607709884643555,-3.1860055923461914,-0.5849707126617432,-0.8309584259986877,-0.29998499155044556,0.47509709000587463,-0.532727062702179,3.558886766433716
445,622428,622429,-0.31255295872688293,0.03641560301184654,1.0063703060150146,-10.39786148071289,0.11028419435024261,-4.634576797485352,-0.5999699831008911,-0.8339582681655884,-0.3059847056865692,0.5467700362205505,-0.7389402389526367,3.5302252769470215
446,622438,622439,-0.4898861348628998,0.02675386518239975,1.0212494134902954,6.339451789855957,8.783377647399902,-7.420507907867432,-0.616469144821167,-0.8264586329460144,-0.2924853563308716,0.48646044731140137,-0.8449404239654541,3.4934802055358887
447,622448,622449,-0.34527385234832764,0.08908935636281967,0.9905818104743958,18.731088638305664,13.591365814208984,-9.00905704498291,-0.6059696674346924,-0.8429578542709351,-0.28798559308052063,0.3449147939682007,-0.7889873385429382,3.4269938468933105
448,622458,622459,-0.11265279352664948,-0.00820673257112503,0.9874880313873291,27.654279708862305,14.216248512268066,-10.90388011932373,-0.6074696183204651,-0.8474575877189636,-0.30748462677001953,0.22115930914878845,-0.5431991219520569,3.3300998210906982
449,622468,622469,-0.18628491461277008,-0.10079971700906754,0.955887496471405,32.45158386230469,12.810837745666504,-12.326310157775879,-0.6134693026542664,-0.844457745552063,-0.3044847846031189,0.18749696016311646,-0.3014800548553467,3.2229793071746826
450,622478,622479,-0.18056568503379822,0.02002374827861786,1.0154240131378174,31.664804458618164,6.086511611938477,-13.883157730102539,-0.6104694604873657,-0.850457489490509,-0.3014849126338959,0.1846458911895752,0.008312690071761608,3.107297658920288
451,622488,622489,-0.46952205896377563,0.1936090588569641,1.0280139446258545,28.074663162231445,-1.877968192100525,-14.913116455078125,-0.6149692535400391,-0.851957380771637,-0.3059847056865692,0.2513125240802765,0.3850778043270111,2.973633289337158
452,622498,622499,-0.3682524561882019,-0.1867658644914627,1.035293698310852,24.689361572265625,-9.745695114135742,-14.552978515625,-0.6104694604873657,-0.850457489490509,-0.2954852283000946,0.08093206584453583,0.4402022659778595,2.8309566974639893
453,622508,622509,-0.21794110536575317,-0.26776063442230225,1.0153861045837402,17.135835647583008,-14.19524097442627,-12.992136001586914,-0.6119694113731384,-0.8489575386047363,-0.30898454785346985,0.24485935270786285,0.7721142768859863,2.6807796955108643
454,622518,622519,-0.172406867146492,-0.5180054903030396,0.968572199344635,16.664243698120117,-16.664854049682617,-12.02921199798584,-0.6044697761535645,-0.8474575877189636,-0.3044847846031189,0.5340157747268677,0.9375837445259094,2.5468733310699463
455,622528,622529,-0.10427001863718033,-0.29351967573165894,0.9350745677947998,16.50092315673828,-13.59424114227295,-10.817461967468262,-0.6104694604873657,-0.8414579033851624,-0.3044847846031189,0.4815222918987274,1.0835762023925781,2.410619020462036
456,622538,622539,-0.23514315485954285,-0.06592510640621185,0.9053056836128235,10.927080154418945,-2.8466131687164307,-9.626666069030762,-0.6014699339866638,-0.8474575877189636,-0.29848507046699524,0.6007248163223267,1.3600826263427734,2.286665439605713
457,622548,622549,-0.5141910910606384,-0.5075876116752625,0.9310285449028015,2.0005595684051514,5.796077251434326,-8.040492057800293,-0.6074696183204651,-0.8534573316574097,-0.29848507046699524,0.6559982299804688,1.3392835855484009,2.1829285621643066
458,622558,622559,-0.31030210852622986,-0.26204463839530945,0.9335038661956787,-9.0122709274292,13.770793914794922,-6.7502851486206055,-0.6059696674346924,-0.8489575386047363,-0.3029848337173462,0.5611273646354675,1.3800241947174072,2.0901923179626465
459,622568,622569,-0.12391044199466705,-0.24304430186748505,0.9083382487297058,-17.135164260864258,20.711868286132812,-4.758284568786621,-0.5984700918197632,-0.8714563846588135,-0.3014849126338959,0.3511630594730377,1.265782117843628,2.0126307010650635
460,622578,622579,-0.21120032668113708,-0.4247737228870392,0.980826199054718,-24.473896026611328,23.83265495300293,-3.4248569011688232,-0.6044697761535645,-0.8354582190513611,-0.30748462677001953,0.25803110003471375,1.1535649299621582,1.9744641780853271
461,622588,622589,-0.15843500196933746,-0.1909164935350418,0.9429842233657837,-25.542442321777344,18.397705078125,-1.0510139465332031,-0.5984700918197632,-0.8534573316574097,-0.3014849126338959,-0.008788849227130413,0.9345775246620178,1.9354411363601685
462,622598,622599,-0.07975312322378159,0.03423033282160759,0.9488323926925659,-21.18182373046875,10.173831939697266,0.7173470854759216,-0.5999699831008911,-0.8549572229385376,-0.3149842321872711,-0.1876620501279831,0.7684748768806458,1.9224210977554321
463,622608,622609,-0.10075919330120087,-0.1132398471236229,0.984005868434906,-12.139176368713379,3.5621869564056396,2.942985773086548,-0.6044697761535645,-0.8534573316574097,-0.31048446893692017,-0.24894218146800995,0.5246279835700989,1.9384863376617432
464,622618,622619,-0.7017307281494141,-0.39710935950279236,1.0783228874206543,-0.6639516949653625,-3.986788034439087,4.870212078094482,-0.6029698252677917,-0.8489575386047363,-0.3119843900203705,-0.2726556658744812,0.48526278138160706,1.969573736190796
465,622628,622629,-0.7342005372047424,-0.7311855554580688,1.0959842205047607,10.311664581298828,-11.250395774841309,7.766716480255127,-0.6029698252677917,-0.8669566512107849,-0.30898454785346985,-0.18124398589134216,0.47853440046310425,2.024218797683716
466,622638,622639,-0.8453303575515747,-0.42557933926582336,1.0210171937942505,13.844482421875,-15.226545333862305,9.039104461669922,-0.6089695692062378,-0.8549572229385376,-0.31798410415649414,0.0019052193965762854,0.5587935447692871,2.1083226203918457
467,622648,622649,-1.0052061080932617,-0.1877025067806244,0.9444674253463745,7.884298324584961,-15.817987442016602,7.924808025360107,-0.6014699339866638,-0.8474575877189636,-0.3134843111038208,0.2320336252450943,0.7491828799247742,2.2123851776123047
468,622658,622659,-0.6067500710487366,-0.10869668424129486,0.959083080291748,2.0218842029571533,-9.95263957977295,8.22679328918457,-0.5969701409339905,-0.851957380771637,-0.30898454785346985,0.31495991349220276,0.7945343852043152,2.2807962894439697
469,622668,622669,-0.20290909707546234,-0.06000847369432449,0.9969090819358826,-4.766907215118408,2.5523507595062256,9.10954761505127,-0.5969701409339905,-0.851957380771637,-0.30898454785346985,0.44144344329833984,0.8071432709693909,2.3583812713623047
470,622678,622679,-0.25524643063545227,-0.06803205609321594,1.0139682292938232,-11.209551811218262,12.389166831970215,8.820592880249023,-0.5969701409339905,-0.851957380771637,-0.30898454785346985,0.4618448317050934,0.7155164480209351,2.4461450576782227
471,622688,622689,-0.4238136410713196,-0.03136131912469864,1.0341601371765137,-16.08998680114746,20.797393798828125,8.305091857910156,-0.5969701409339905,-0.8639568090438843,-0.3119843900203705,0.1692560613155365,0.5319985151290894,2.5005953311920166
472,622698,622699,-0.36921632289886475,-0.09471588581800461,0.9906065464019775,-18.516887664794922,23.983428955078125,7.5909223556518555,-0.5969701409339905,-0.8489575386047363,-0.3149842321872711,-0.08760975301265717,0.41609030961990356,2.576931953430176
