,timestamp_start,timestamp_end,acc.x,acc.y,acc.z,gyro.x,gyro.y,gyro.z,mag.x,mag.y,mag.z,stabilizer.pitch,stabilizer.roll,stabilizer.yaw
0,888876,888877,-0.183262437582016,-0.4824155867099762,1.0079617500305176,-2.8158693313598633,15.936824798583984,12.80758285522461,-0.5714713931083679,-0.7994599938392639,-0.2864856719970703,3.3349924087524414,-1.2623075246810913,-3.6689648628234863
1,888886,888887,-0.1830773800611496,-0.39901474118232727,0.9759440422058105,-16.675302505493164,17.087682723999023,14.673188209533691,-0.562471866607666,-0.8084595799446106,-0.2834858298301697,3.160580635070801,-1.5216197967529297,-3.4452507495880127
2,888896,888897,-0.23118549585342407,-0.19856996834278107,0.9988651275634766,-31.386178970336914,17.020641326904297,18.342906951904297,-0.554972231388092,-0.8099594712257385,-0.2939853072166443,2.951707124710083,-1.8390097618103027,-3.2352542877197266
3,888906,888907,-0.4742710292339325,-0.34071099758148193,0.9970882534980774,-40.31804275512695,15.904111862182617,19.179744720458984,-0.562471866607666,-0.790460467338562,-0.29848507046699524,2.7431552410125732,-3.2982864379882812,-2.5508103370666504
4,888916,888917,-0.293407142162323,-0.40399500727653503,0.9388808012008667,-39.53830337524414,12.346914291381836,17.28802490234375,-0.5339732766151428,-0.7919603586196899,-0.2939853072166443,3.159507989883423,-4.088230609893799,-2.3750298023223877
5,888926,888927,-0.12968945503234863,-0.15807732939720154,0.9692965745925903,-26.45863914489746,10.100358009338379,16.128616333007812,-0.5504724383354187,-0.8024598360061646,-0.2924853563308716,3.0207102298736572,-4.199059963226318,-2.3139724731445312
6,888936,888937,-0.31420832872390747,-0.21834097802639008,0.9145289659500122,-4.011600971221924,7.734982490539551,15.691173553466797,-0.5414729118347168,-0.790460467338562,-0.28948551416397095,2.929328680038452,-4.808471202850342,-1.988289475440979
7,888946,888947,-0.43202319741249084,-0.10768317431211472,0.9408883452415466,22.816211700439453,7.462784767150879,12.878989219665527,-0.5534723401069641,-0.7844607830047607,-0.2864856719970703,3.139486789703369,-4.196907043457031,-2.1964640617370605
8,888956,888957,-0.16459797322750092,-0.11923818290233612,0.9894935488700867,40.33158874511719,9.25234603881836,12.500197410583496,-0.5639718174934387,-0.8159592151641846,-0.2939853072166443,3.019103765487671,-3.7405192852020264,-2.104208469390869
9,888966,888967,-0.2055540829896927,-0.22800475358963013,1.0107990503311157,57.24038314819336,13.102556228637695,11.206801414489746,-0.5744712948799133,-0.8144592642784119,-0.28948551416397095,2.6389975547790527,-2.983551025390625,-1.95662260055542
10,888976,888977,-0.3025592863559723,-0.1325637698173523,0.9339082837104797,69.4325180053711,15.705137252807617,9.297626495361328,-0.5684715509414673,-0.8144592642784119,-0.2954852283000946,2.4004287719726562,-2.2540123462677,-1.8635773658752441
11,888986,888987,-0.9632803797721863,-0.29451507329940796,0.9279627799987793,71.67973327636719,17.219989776611328,9.945662498474121,-0.577471137046814,-0.8174591064453125,-0.31048446893692017,1.818155288696289,-1.301463007926941,-1.644504427909851
12,888996,888997,-0.6336820125579834,-0.039066631346940994,0.9363649487495422,64.46961975097656,15.757372856140137,10.210678100585938,-0.56997150182724,-0.8219588994979858,-0.29098543524742126,1.8405966758728027,-0.4189819097518921,-1.7027486562728882
13,889006,889007,-0.12459363043308258,0.028370941057801247,1.0084688663482666,47.079444885253906,9.9911527633667,9.220745086669922,-0.577471137046814,-0.8294585347175598,-0.2924853563308716,1.7208868265151978,0.006022613495588303,-1.587249994277954
14,889016,889017,-0.09370476007461548,0.0480935275554657,1.003840446472168,21.598920822143555,4.541044235229492,8.87734603881836,-0.5714713931083679,-0.8264586329460144,-0.2954852283000946,1.5607341527938843,0.3625187277793884,-1.4580485820770264
15,889026,889027,-0.9736009836196899,-0.36171212792396545,0.9719231724739075,-7.550742149353027,-2.030667781829834,6.039997100830078,-0.5744712948799133,-0.8114594221115112,-0.2744862735271454,1.6058921813964844,0.4533008337020874,-1.378984808921814
16,889036,889037,-0.7344381809234619,-0.3888370394706726,0.9684088826179504,-31.09234046936035,-3.3231379985809326,5.011839866638184,-0.5744712948799133,-0.8144592642784119,-0.28048595786094666,1.6583905220031738,0.20968341827392578,-1.3060896396636963
17,889046,889047,-0.3223195970058441,-0.5951200723648071,0.9001894593238831,-46.94008255004883,-0.49602010846138,4.948614597320557,-0.562471866607666,-0.80545973777771,-0.2924853563308716,1.5530720949172974,-0.1950920820236206,-1.2201281785964966
18,889056,889057,-0.3197607696056366,-0.8433676958084106,0.860980212688446,-49.60816192626953,3.101642370223999,6.645194053649902,-0.5639718174934387,-0.797960102558136,-0.28798559308052063,1.7706819772720337,-0.6704599857330322,-1.2048819065093994
19,889066,889067,-0.23239801824092865,-0.16244181990623474,0.9129356145858765,-41.61239242553711,6.7690863609313965,7.872605323791504,-0.5849707126617432,-0.797960102558136,-0.28798559308052063,1.5207842588424683,-1.161723256111145,-1.1020643711090088
20,889076,889077,-0.16190096735954285,0.010956306010484695,0.9083371162414551,-27.849943161010742,13.132872581481934,8.806636810302734,-0.5714713931083679,-0.7784610390663147,-0.2864856719970703,1.3237576484680176,-1.277323603630066,-1.0272533893585205
21,889086,889087,-0.36397725343704224,-0.16232462227344513,0.9129881858825684,-12.972050666809082,18.331317901611328,9.707561492919922,-0.5714713931083679,-0.7934603095054626,-0.277486115694046,1.0701173543930054,-1.516314148902893,-0.9209733605384827
22,889096,889097,-0.32857102155685425,-0.20692934095859528,0.9142149090766907,3.8659889698028564,21.137096405029297,11.456164360046387,-0.5729713439941406,-0.7859606742858887,-0.28498575091362,1.072205901145935,-1.4216573238372803,-0.8532529473304749
23,889106,889107,-0.3313617706298828,-0.15900003910064697,0.844424843788147,15.672359466552734,22.086761474609375,12.241937637329102,-0.5759711861610413,-0.7919603586196899,-0.27898603677749634,0.6900807023048401,-1.3140803575515747,-0.7185585498809814
24,889116,889117,-0.4651251435279846,-0.05317951366305351,0.8373512029647827,22.61423110961914,22.013931274414062,11.842304229736328,-0.5894705057144165,-0.7994599938392639,-0.28048595786094666,0.5358699560165405,-0.9948809146881104,-0.6053766012191772
25,889126,889127,-0.16495409607887268,-0.10528101772069931,0.8514975905418396,19.37569236755371,21.35259246826172,11.506007194519043,-0.5804709792137146,-0.8084595799446106,-0.28948551416397095,0.36760228872299194,-0.7960355877876282,-0.495673269033432
26,889136,889137,-0.11038097739219666,-0.45679834485054016,0.7988421320915222,14.811695098876953,15.520628929138184,10.428634643554688,-0.5849707126617432,-0.8009599447250366,-0.27898603677749634,0.22657334804534912,-0.7864575982093811,-0.4083901643753052
27,889146,889147,-0.039863597601652145,-0.21475768089294434,0.8253922462463379,4.097355842590332,12.226902961730957,9.899627685546875,-0.5834708213806152,-0.7934603095054626,-0.2834858298301697,0.004528447054326534,-0.6861488223075867,-0.31145140528678894
28,889156,889157,-0.1724691241979599,-0.48018816113471985,0.9053856730461121,-6.394381523132324,9.17518138885498,11.596776008605957,-0.5864706635475159,-0.8024598360061646,-0.2834858298301697,-0.10199674218893051,-0.6946948170661926,-0.21635007858276367
29,889166,889167,-0.20171985030174255,-0.33436980843544006,0.9821163415908813,-11.603704452514648,8.56204891204834,12.793246269226074,-0.5744712948799133,-0.8084595799446106,-0.2864856719970703,-0.23788487911224365,-0.890250563621521,-0.10765420645475388
30,889176,889177,-0.3532588481903076,-0.7201159596443176,1.0766478776931763,-13.95156478881836,10.260021209716797,13.10351848602295,-0.577471137046814,-0.8114594221115112,-0.2954852283000946,-0.23573020100593567,-0.9412518739700317,0.031057661399245262
31,889186,889187,-0.11404019594192505,-0.3352234363555908,0.9743340611457825,-12.474143028259277,10.894824981689453,13.173506736755371,-0.5684715509414673,-0.80545973777771,-0.29848507046699524,-0.3795234262943268,-1.137873649597168,0.15845796465873718
32,889196,889197,-0.05136019363999367,-0.029074786230921745,0.9087634086608887,-5.7366509437561035,9.619373321533203,13.234580039978027,-0.5684715509414673,-0.8084595799446106,-0.2954852283000946,-0.45944657921791077,-1.1741023063659668,0.3001583516597748
33,889206,889207,-0.02325521968305111,0.1140732541680336,0.8809180855751038,4.1985273361206055,6.505189418792725,13.22558879852295,-0.5729713439941406,-0.8189590573310852,-0.29098543524742126,-0.6421627998352051,-1.214869499206543,0.4366121292114258
34,889216,889217,-0.03144271299242973,0.10882820934057236,0.9230829477310181,16.89728355407715,2.9003002643585205,13.424161911010742,-0.577471137046814,-0.8204589486122131,-0.29848507046699524,-0.6071827411651611,-0.9292691946029663,0.6167235970497131
35,889226,889227,-0.2836495339870453,-0.06037535518407822,0.9366296529769897,20.87948226928711,1.2233883142471313,12.693068504333496,-0.5879706144332886,-0.8189590573310852,-0.29098543524742126,-0.6853877305984497,-0.8682214021682739,0.7190777659416199
36,889236,889237,-0.8439333438873291,-0.35741856694221497,0.9708269834518433,17.223791122436523,-1.100417971611023,11.262923240661621,-0.577471137046814,-0.8354582190513611,-0.3014849126338959,-0.6946324110031128,-0.587675929069519,0.8686702251434326
37,889246,889247,-0.7432816028594971,-0.2248114049434662,0.9678366780281067,7.13067626953125,-0.7934261560440063,10.062614440917969,-0.5789710283279419,-0.8099594712257385,-0.3029848337173462,-0.7623212933540344,-0.4388895630836487,0.9884782433509827
38,889256,889257,-0.5049813985824585,-0.25940412282943726,0.9877623915672302,-1.3799060583114624,-0.9828236103057861,7.722691535949707,-0.562471866607666,-0.8294585347175598,-0.2864856719970703,-0.880364179611206,-0.43312138319015503,1.0770095586776733
39,889266,889267,-0.3045485317707062,-0.17489135265350342,0.948479413986206,-5.474217891693115,-3.256715774536133,5.865739822387695,-0.56997150182724,-0.8129593133926392,-0.28198590874671936,-0.7695184946060181,-0.5288839340209961,1.1210196018218994
40,889276,889277,-0.3780766427516937,-0.2191568911075592,0.9005922079086304,-3.2350831031799316,-2.1523571014404297,7.185919761657715,-0.5744712948799133,-0.8174591064453125,-0.2954852283000946,-0.7254619002342224,-0.6244478225708008,1.1715624332427979
41,889286,889287,-0.15374760329723358,-0.11390472948551178,0.8975784778594971,-0.40297257900238037,-2.301800489425659,8.273173332214355,-0.577471137046814,-0.8114594221115112,-0.2954852283000946,-0.7688713073730469,-0.6729333996772766,1.240818738937378
42,889296,889297,-0.11318042874336243,-0.05287458375096321,0.8989148736000061,4.477917194366455,-5.504070281982422,9.263641357421875,-0.5804709792137146,-0.8174591064453125,-0.2924853563308716,-0.7139059901237488,-0.6459460258483887,1.3315938711166382
43,889306,889307,-0.5255018472671509,-0.3147123157978058,0.8517943024635315,5.157790184020996,-9.43176555633545,12.020004272460938,-0.5534723401069641,-0.8174591064453125,-0.2924853563308716,-0.5892590284347534,-0.5803056359291077,1.4422144889831543
44,889316,889317,-0.5163549184799194,-0.26756370067596436,0.8973572254180908,-2.23751163482666,-14.454092025756836,13.201112747192383,-0.5744712948799133,-0.8324583768844604,-0.29848507046699524,-0.18945880234241486,-0.5056654810905457,1.5792220830917358
45,889326,889327,-0.2950139343738556,-0.3251267671585083,0.9589539170265198,-10.501776695251465,-17.086523056030273,14.190001487731934,-0.5519723892211914,-0.8159592151641846,-0.29998499155044556,0.32537102699279785,-0.22785870730876923,1.8241957426071167
46,889336,889337,-0.23808161914348602,-0.49018335342407227,0.9235963821411133,-18.919921875,-14.055505752563477,12.35000228881836,-0.5534723401069641,-0.8294585347175598,-0.2954852283000946,0.5215308666229248,-0.38448044657707214,1.9554709196090698
47,889346,889347,-0.11706256121397018,-0.31925415992736816,0.9454107880592346,-24.79454231262207,-8.337060928344727,11.882526397705078,-0.5444727540016174,-0.8264586329460144,-0.28948551416397095,0.5638400912284851,-0.6624864339828491,2.061069965362549
48,889356,889357,-0.09822764992713928,-0.030827440321445465,0.9442194104194641,-28.053016662597656,-0.2399255335330963,10.694963455200195,-0.5444727540016174,-0.8264586329460144,-0.28948551416397095,0.6281601190567017,-1.0052545070648193,2.154278516769409
49,889366,889367,-0.24022692441940308,0.010370471514761448,0.9504174590110779,-26.83756446838379,11.375314712524414,9.965873718261719,-0.5444727540016174,-0.8264586329460144,-0.28948551416397095,0.45956355333328247,-1.2147810459136963,2.2741951942443848
50,889376,889377,-0.17330503463745117,0.05399874597787857,0.9437508583068848,-14.725032806396484,21.945009231567383,10.154670715332031,-0.5474725961685181,-0.8144592642784119,-0.29848507046699524,0.12229214608669281,-1.5115364789962769,2.3497729301452637
51,889386,889387,-0.05657416954636574,0.03426918387413025,0.9707205295562744,-4.4039764404296875,32.04086685180664,10.169295310974121,-0.5579720735549927,-0.8219588994979858,-0.2969851493835449,-0.2995472848415375,-1.6098207235336304,2.445531129837036
52,889396,889397,-0.07145991176366806,-0.04704294726252556,0.9430955648422241,3.4829132556915283,31.935876846313477,8.020249366760254,-0.56997150182724,-0.8189590573310852,-0.29998499155044556,-0.3718402683734894,-1.4277795553207397,2.581676721572876
53,889406,889407,-0.09975144267082214,0.05079621076583862,0.9738478660583496,10.920433044433594,22.26723861694336,4.865901947021484,-0.5534723401069641,-0.8264586329460144,-0.29848507046699524,-0.7775068283081055,-1.3432471752166748,2.65000319480896
54,889416,889417,-0.031046690419316292,-0.018806328997015953,0.9279401898384094,13.397981643676758,12.168206214904785,4.014252662658691,-0.5609719157218933,-0.836958110332489,-0.3059847056865692,-0.8694678544998169,-1.253237247467041,2.678640842437744
55,889426,889427,-0.2756614089012146,-0.13546115159988403,0.9676295518875122,14.8883056640625,2.4268991947174072,2.9779953956604004,-0.5684715509414673,-0.844457745552063,-0.3044847846031189,-0.9422962665557861,-1.0547715425491333,2.7283313274383545
56,889436,889437,-0.21462000906467438,-0.12416975200176239,0.9602109789848328,13.504874229431152,-4.900199890136719,3.0443332195281982,-0.5594720244407654,-0.8354582190513611,-0.3014849126338959,-0.8218160271644592,-0.9306879043579102,2.7425339221954346
57,889446,889447,-0.09891972690820694,-0.00611305283382535,0.9621566534042358,8.593412399291992,-10.418335914611816,2.801323413848877,-0.554972231388092,-0.8489575386047363,-0.2969851493835449,-0.7948945164680481,-0.9304839968681335,2.7388620376586914
58,889456,889457,-0.18856269121170044,0.06820971518754959,0.9859670400619507,5.166869163513184,-15.953336715698242,2.7716875076293945,-0.5579720735549927,-0.8459576964378357,-0.2969851493835449,-0.609373152256012,-0.9247481226921082,2.7486140727996826
59,889466,889467,-0.6047378778457642,-0.09668684005737305,0.9829952716827393,4.705419063568115,-16.806758880615234,5.1842041015625,-0.5444727540016174,-0.8414579033851624,-0.31048446893692017,-0.5982316732406616,-0.8666566610336304,2.7938995361328125
60,889476,889477,-1.0398406982421875,-0.29528000950813293,0.9799938797950745,7.024891376495361,-11.572710037231445,8.432727813720703,-0.5459727048873901,-0.8489575386047363,-0.3119843900203705,-0.47325631976127625,-0.8617129325866699,2.8454222679138184
61,889486,889487,-0.38881370425224304,-0.17470957338809967,0.9787271022796631,12.225045204162598,0.31023627519607544,12.86798095703125,-0.5534723401069641,-0.8414579033851624,-0.3014849126338959,-0.5629942417144775,-0.7769606709480286,2.9469358921051025
62,889496,889497,-0.12302621454000473,-0.007945328950881958,0.9939743280410767,11.815558433532715,9.104427337646484,16.769155502319336,-0.554972231388092,-0.8489575386047363,-0.30898454785346985,-0.5935277342796326,-0.5851686000823975,3.1108036041259766
63,889506,889507,-0.06224845349788666,0.08286357671022415,0.9792454242706299,9.444236755371094,11.893259048461914,18.298219680786133,-0.5609719157218933,-0.8399580121040344,-0.30898454785346985,-0.7904072999954224,-0.572223961353302,3.25998854637146
64,889516,889517,-0.15077939629554749,-0.04658522456884384,0.9835107922554016,9.606654167175293,13.978528022766113,18.84286880493164,-0.5474725961685181,-0.8414579033851624,-0.2924853563308716,-0.7420523762702942,-0.4930834472179413,3.438668966293335
65,889526,889527,-0.10645921528339386,0.04687726870179176,0.9714714884757996,5.24865198135376,15.66964054107666,18.372411727905273,-0.5474725961685181,-0.8534573316574097,-0.3044847846031189,-0.8121008276939392,-0.3726196587085724,3.6344940662384033
66,889536,889537,-0.0316743440926075,-0.015496531501412392,0.9702262878417969,-4.0976033210754395,10.419225692749023,17.903152465820312,-0.5489725470542908,-0.8429578542709351,-0.3059847056865692,-0.9846820831298828,-0.4375306963920593,3.790289878845215
67,889546,889547,-0.07769086211919785,0.02649533562362194,0.9541621208190918,-8.711973190307617,4.043692111968994,16.81118392944336,-0.5474725961685181,-0.850457489490509,-0.3134843111038208,-1.1184394359588623,-0.5425695180892944,3.9493892192840576
68,889556,889557,0.015270060859620571,-0.10327772051095963,0.9590010046958923,-6.9318342208862305,-2.288936138153076,16.457372665405273,-0.5354732275009155,-0.8384580612182617,-0.29848507046699524,-1.084899663925171,-0.5913236141204834,4.12579345703125
69,889566,889567,-0.05192374438047409,-0.10143689811229706,0.9980484843254089,-2.9190616607666016,-12.91549015045166,16.75933074951172,-0.5429728627204895,-0.8459576964378357,-0.30898454785346985,-0.9872298240661621,-0.665857195854187,4.2890753746032715
70,889576,889577,-0.045673154294490814,0.043263040482997894,1.0124492645263672,-0.4461382031440735,-22.31205940246582,16.391305923461914,-0.5474725961685181,-0.8474575877189636,-0.31048446893692017,-0.7221078872680664,-0.6189209222793579,4.483453273773193
71,889586,889587,-0.06530844420194626,0.053932514041662216,1.0471031665802002,1.835500717163086,-28.183269500732422,14.728788375854492,-0.5459727048873901,-0.8489575386047363,-0.30898454785346985,-0.6832980513572693,-0.8065221309661865,4.577566146850586
72,889596,889597,-0.16971874237060547,-0.0388859286904335,1.0564011335372925,0.7955278754234314,-25.877321243286133,14.972685813903809,-0.5459727048873901,-0.8489575386047363,-0.3209839463233948,-0.44439688324928284,-0.8342759013175964,4.714260101318359
73,889606,889607,-0.2758426368236542,-0.23005826771259308,0.9503107666969299,1.5884934663772583,-12.822430610656738,15.801238059997559,-0.5324733853340149,-0.8564571738243103,-0.31048446893692017,-0.12748070061206818,-0.7800645232200623,4.888101577758789
74,889616,889617,-0.6892654895782471,-0.36450207233428955,1.007893681526184,4.364607334136963,4.4848785400390625,15.272281646728516,-0.5414729118347168,-0.8534573316574097,-0.3044847846031189,-0.19028137624263763,-0.7649692893028259,5.034977912902832
75,889626,889627,-0.43285462260246277,-0.12481039017438889,1.0423848628997803,3.3145275115966797,13.625082969665527,14.087539672851562,-0.5354732275009155,-0.850457489490509,-0.3134843111038208,-0.3456456661224365,-0.7575286030769348,5.168114185333252
76,889636,889637,-0.16042642295360565,0.13620994985103607,1.0029784440994263,2.878993511199951,19.58005714416504,14.26271915435791,-0.5324733853340149,-0.8594570159912109,-0.31048446893692017,-0.6273811459541321,-0.7379425168037415,5.3023176193237305
77,889646,889647,-0.716399610042572,-0.3647727370262146,1.1170645952224731,5.562629222869873,18.611461639404297,14.37646484375,-0.5354732275009155,-0.8534573316574097,-0.3044847846031189,-0.9423702359199524,-0.7834172248840332,5.417715549468994
78,889656,889657,-0.5962560176849365,-0.43994784355163574,1.0890930891036987,15.477806091308594,12.079933166503906,15.692980766296387,-0.5384730696678162,-0.8414579033851624,-0.30748462677001953,-1.0068978071212769,-0.5836438536643982,5.603625774383545
79,889666,889667,-0.9977240562438965,-0.5706118941307068,1.0146067142486572,17.401222229003906,3.25994610786438,13.026545524597168,-0.5534723401069641,-0.8564571738243103,-0.30748462677001953,-1.1029322147369385,-0.4192286729812622,5.752703666687012
80,889676,889677,-1.4896539449691772,-1.0212253332138062,1.022952675819397,19.592063903808594,-4.019963264465332,10.088177680969238,-0.5459727048873901,-0.8579570651054382,-0.3149842321872711,-1.0812615156173706,-0.08817379176616669,5.908537864685059
81,889686,889687,-1.1441997289657593,-0.40939027070999146,1.075259804725647,23.801050186157227,-8.947668075561523,8.160225868225098,-0.5354732275009155,-0.8474575877189636,-0.3134843111038208,-0.9390466809272766,-0.055914584547281265,5.953647613525391
82,889696,889697,-0.41425883769989014,-0.1905018389225006,1.0204626321792603,25.090839385986328,-12.136916160583496,5.988299369812012,-0.5429728627204895,-0.8609569072723389,-0.31798410415649414,-0.7575026750564575,0.17682631313800812,6.027153491973877
83,889706,889707,-0.1941443234682083,-0.050829268991947174,1.0323216915130615,21.566204071044922,-12.81498908996582,3.4984829425811768,-0.5384730696678162,-0.8534573316574097,-0.3164841830730438,-0.6149938106536865,0.31604909896850586,6.0531697273254395
84,889716,889717,-0.06389155983924866,-0.06510966271162033,0.9931677579879761,14.505926132202148,-10.634977340698242,0.4140678346157074,-0.5429728627204895,-0.8399580121040344,-0.30898454785346985,-0.40553176403045654,0.5773112773895264,6.100832939147949
85,889726,889727,-0.5949767231941223,-0.1825145184993744,1.0311607122421265,9.098489761352539,-5.46861457824707,-3.3515100479125977,-0.5489725470542908,-0.851957380771637,-0.3029848337173462,-0.2702192962169647,0.7997745275497437,6.120842456817627
86,889736,889737,-0.6813509464263916,-0.09045449644327164,1.0283170938491821,5.7728424072265625,-1.567681908607483,-6.702667713165283,-0.5444727540016174,-0.8414579033851624,-0.30748462677001953,-0.28110820055007935,0.8757652640342712,6.0677008628845215
87,889746,889747,-0.3944444954395294,-0.09332524240016937,1.0263956785202026,0.8955003023147583,4.432651996612549,-7.1136579513549805,-0.5579720735549927,-0.8579570651054382,-0.2969851493835449,-0.314268559217453,0.7455605268478394,5.946832180023193
88,889756,889757,-0.060999736189842224,-0.04840029776096344,0.9896723031997681,-6.701062202453613,6.9573211669921875,-3.620164155960083,-0.5489725470542908,-0.8279585838317871,-0.29998499155044556,-0.3933585286140442,0.6793896555900574,5.864030838012695
89,889766,889767,-0.06325088441371918,0.09543699771165848,1.0061395168304443,-13.973282814025879,7.843725681304932,-2.8959004878997803,-0.5504724383354187,-0.8414579033851624,-0.31048446893692017,-0.5066846609115601,0.5416087508201599,5.817083358764648
90,889776,889777,-0.0508289635181427,0.055777981877326965,1.0353525876998901,-8.939831733703613,11.422406196594238,-0.919174075126648,-0.5474725961685181,-0.844457745552063,-0.31948402523994446,-0.6615263223648071,0.3983381986618042,5.787556171417236
91,889786,889787,-0.06355525553226471,-0.0005037051159888506,0.9976483583450317,-0.6481518745422363,10.5827054977417,1.7360166311264038,-0.5474725961685181,-0.8384580612182617,-0.30748462677001953,-0.7593334317207336,0.43096062541007996,5.811927318572998
92,889796,889797,-0.18705633282661438,-0.10226577520370483,0.9813963770866394,5.321218967437744,5.13740873336792,2.0629351139068604,-0.554972231388092,-0.8399580121040344,-0.29998499155044556,-0.8716434240341187,0.5230333805084229,5.843400478363037
93,889806,889807,-0.509728193283081,-0.09712778031826019,0.9629265069961548,7.248122215270996,-9.888660430908203,0.9965583086013794,-0.5489725470542908,-0.8489575386047363,-0.29998499155044556,-0.7861915230751038,0.6697867512702942,5.8885416984558105
94,889816,889817,-0.40941324830055237,0.14060524106025696,0.9708757400512695,2.905914306640625,-25.978818893432617,-0.30240774154663086,-0.5519723892211914,-0.8339582681655884,-0.31798410415649414,-0.4671468138694763,0.6439202427864075,5.90956449508667
95,889826,889827,-0.16687580943107605,0.033301565796136856,0.9816484451293945,-7.310450077056885,-40.61870574951172,-2.6019277572631836,-0.5429728627204895,-0.8429578542709351,-0.3209839463233948,-0.1843482404947281,0.568006157875061,5.871698379516602
96,889836,889837,-0.13324281573295593,0.00856036227196455,1.0449036359786987,-13.072752952575684,-48.093475341796875,-2.726916790008545,-0.5429728627204895,-0.8549572229385376,-0.31798410415649414,0.2697983980178833,0.576826810836792,5.8643670082092285
97,889846,889847,-0.11371348053216934,0.007174483500421047,1.0067546367645264,-15.432830810546875,-48.00314712524414,-3.4175262451171875,-0.5399730205535889,-0.8339582681655884,-0.30898454785346985,0.8541774153709412,0.37288832664489746,5.840140342712402
98,889856,889857,-0.07560743391513824,-0.0245074350386858,1.0099425315856934,-16.17371940612793,-43.7526969909668,-4.472183704376221,-0.5354732275009155,-0.8474575877189636,-0.3014849126338959,1.1937791109085083,0.3573485314846039,5.795109748840332
99,889866,889867,-0.14618352055549622,-0.016347713768482208,0.98963463306427,-11.58736801147461,-30.15775489807129,-7.087745189666748,-0.5369731187820435,-0.8309584259986877,-0.29998499155044556,1.5416417121887207,0.1465313881635666,5.721882343292236
100,889876,889877,-0.40363842248916626,0.0023043882101774216,1.0021789073944092,0.7661643028259277,-6.469785690307617,-8.566325187683105,-0.5414729118347168,-0.8354582190513611,-0.31048446893692017,1.6534382104873657,0.07281217724084854,5.623312473297119
101,889886,889887,-0.5734611749649048,-0.19027180969715118,1.022861361503601,15.550527572631836,15.306753158569336,-10.363106727600098,-0.5444727540016174,-0.8384580612182617,-0.3014849126338959,1.5308446884155273,0.16246993839740753,5.510385990142822
102,889896,889897,-0.6477013230323792,-0.1392592042684555,1.0102359056472778,23.83087921142578,29.251192092895508,-11.514145851135254,-0.5459727048873901,-0.8549572229385376,-0.3059847056865692,1.255370020866394,0.36967146396636963,5.390039920806885
103,889906,889907,-0.057264622300863266,0.014638012275099754,0.9648106098175049,30.6962947845459,33.767879486083984,-12.93984317779541,-0.5489725470542908,-0.8399580121040344,-0.30898454785346985,1.1822367906570435,0.7615957856178284,5.310318946838379
104,889916,889917,-0.66756272315979,-0.08509615808725357,0.993992269039154,26.609493255615234,33.407676696777344,-13.704644203186035,-0.5564721822738647,-0.8474575877189636,-0.3014849126338959,0.7076612114906311,1.0293138027191162,5.163998603820801
105,889926,889927,-1.114944577217102,-0.18575839698314667,0.9681088924407959,20.77387237548828,24.663270950317383,-13.5744047164917,-0.5519723892211914,-0.8489575386047363,-0.29998499155044556,0.45676615834236145,1.153070092201233,5.045897483825684
106,889936,889937,-0.657248854637146,-0.22396616637706757,0.9726985692977905,12.139522552490234,13.008843421936035,-12.347808837890625,-0.5594720244407654,-0.8414579033851624,-0.2954852283000946,0.22625470161437988,1.36921226978302,4.915276050567627
107,889946,889947,-0.38806599378585815,-0.20702192187309265,0.9653896689414978,7.203513145446777,2.912863254547119,-10.052342414855957,-0.5504724383354187,-0.8414579033851624,-0.31048446893692017,0.3129430413246155,1.5345407724380493,4.834146499633789
108,889956,889957,-0.7335289716720581,-0.2417817860841751,0.9836921691894531,3.294933319091797,-4.502434253692627,-7.809700965881348,-0.5444727540016174,-0.8414579033851624,-0.31048446893692017,0.3063850700855255,1.6267304420471191,4.739156246185303
109,889966,889967,-0.809159517288208,-0.40598762035369873,0.958798348903656,-2.13202166557312,-6.862008094787598,-6.313127040863037,-0.5444727540016174,-0.8414579033851624,-0.31048446893692017,0.39725998044013977,1.6321992874145508,4.669146537780762
110,889976,889977,-1.0405482053756714,-0.5684510469436646,0.9637326598167419,-4.016094207763672,-2.6122002601623535,-4.97812557220459,-0.5414729118347168,-0.8324583768844604,-0.3164841830730438,0.40118229389190674,1.5843498706817627,4.592634201049805
111,889986,889987,-0.7729611992835999,-0.5207749605178833,0.944383442401886,-7.043532371520996,5.513489723205566,-1.4515811204910278,-0.5504724383354187,-0.8474575877189636,-0.29848507046699524,0.3757043182849884,1.4992793798446655,4.54835844039917
112,889996,889997,-0.35853803157806396,-0.050315972417593,0.9414132833480835,-14.051012992858887,12.581951141357422,0.0007013261201791465,-0.5399730205535889,-0.836958110332489,-0.3059847056865692,0.23538029193878174,1.4006515741348267,4.523908615112305
113,890006,890007,0.01594606414437294,0.057271964848041534,0.9151459336280823,-21.477500915527344,15.421319007873535,1.5219649076461792,-0.5444727540016174,-0.844457745552063,-0.31948402523994446,0.07170259207487106,1.1857826709747314,4.528112411499023
114,890016,890017,-0.0331975594162941,0.05466819927096367,0.9331809282302856,-22.506103515625,13.506843566894531,2.401601552963257,-0.5519723892211914,-0.8309584259986877,-0.3119843900203705,-0.17027387022972107,0.894081711769104,4.528220176696777
115,890026,890027,-0.10090120136737823,0.019283918663859367,0.9489299058914185,-26.60747528076172,13.492105484008789,3.1401939392089844,-0.5534723401069641,-0.8474575877189636,-0.31048446893692017,-0.17863257229328156,0.5673115849494934,4.5914506912231445
116,890036,890037,-0.09095963090658188,0.05471815913915634,0.9362003803253174,-27.976787567138672,16.33378028869629,2.9878106117248535,-0.5474725961685181,-0.8354582190513611,-0.3014849126338959,-0.4567990303039551,0.2655322849750519,4.594915866851807
117,890046,890047,-0.28875452280044556,-0.19902275502681732,0.9618149399757385,-24.996856689453125,13.73161506652832,2.236577272415161,-0.5444727540016174,-0.8324583768844604,-0.3044847846031189,-0.4842665195465088,-0.008457055315375328,4.6570305824279785
118,890056,890057,-0.4982554018497467,-0.14157281816005707,0.9835091233253479,-19.558433532714844,4.854477405548096,-1.8582708835601807,-0.5519723892211914,-0.836958110332489,-0.2939853072166443,-0.6556752920150757,-0.2283416986465454,4.648472309112549
119,890066,890067,-0.11216136813163757,-0.007447162177413702,0.9696317911148071,-11.7579984664917,-4.356544017791748,-4.6701130867004395,-0.5324733853340149,-0.8414579033851624,-0.30748462677001953,-0.5824608206748962,-0.4732186496257782,4.63960599899292
120,890076,890077,-0.04340002313256264,0.04454046115279198,0.9496959447860718,3.7764456272125244,-11.896695137023926,-6.429060459136963,-0.5324733853340149,-0.8414579033851624,-0.30748462677001953,-0.4947611689567566,-0.37338346242904663,4.6034746170043945
121,890086,890087,-0.3768061101436615,0.038631122559309006,1.0122302770614624,18.938121795654297,-9.92496395111084,-10.454803466796875,-0.5324733853340149,-0.8414579033851624,-0.30748462677001953,-0.2942698001861572,-0.18336541950702667,4.544223308563232
122,890096,890097,-0.5447810888290405,-0.007354374974966049,1.0354810953140259,34.093894958496094,-0.11051516979932785,-12.454273223876953,-0.5429728627204895,-0.8489575386047363,-0.3029848337173462,-0.2815232276916504,0.038987673819065094,4.4235405921936035
123,890106,890107,-0.23107360303401947,-0.014081510715186596,0.9935427904129028,39.020240783691406,8.168564796447754,-12.169957160949707,-0.5519723892211914,-0.8639568090438843,-0.30898454785346985,-0.361815869808197,0.505115807056427,4.298827648162842
124,890116,890117,-0.09719241410493851,-0.0169764906167984,1.006412148475647,35.024200439453125,10.49815559387207,-14.468523025512695,-0.562471866607666,-0.8684565424919128,-0.3134843111038208,-0.45034828782081604,0.9630129933357239,4.174691677093506
125,890126,890127,-0.03199333697557449,-0.021345773711800575,1.0019989013671875,25.53658676147461,7.304105758666992,-15.686636924743652,-0.5459727048873901,-0.8579570651054382,-0.3029848337173462,-0.5286914110183716,1.157543659210205,4.020501136779785
126,890136,890137,-0.04113324359059334,-0.01622617058455944,1.041758418083191,10.21984577178955,-0.5262708067893982,-17.009666442871094,-0.554972231388092,-0.8699564933776855,-0.3149842321872711,-0.6071466207504272,1.1565171480178833,3.846674919128418
127,890146,890147,-0.08846188336610794,0.011356779374182224,0.9985957741737366,-7.0964555740356445,-7.024278163909912,-15.705769538879395,-0.5519723892211914,-0.8609569072723389,-0.3119843900203705,-0.6112765669822693,1.1901366710662842,3.670534610748291
128,890156,890157,-0.0921490415930748,-0.022355666384100914,0.9991787075996399,-21.97800636291504,-12.15063762664795,-13.711800575256348,-0.5579720735549927,-0.8639568090438843,-0.3209839463233948,-0.4486008882522583,0.9591442942619324,3.5194480419158936
129,890166,890167,-0.6768928170204163,-0.19193165004253387,1.0157458782196045,-33.95220947265625,-14.432107925415039,-10.52145004272461,-0.5429728627204895,-0.8609569072723389,-0.3059847056865692,-0.22224245965480804,0.6661878824234009,3.401979684829712
130,890176,890177,-0.5870252847671509,-0.5703110694885254,1.0073188543319702,-40.576072692871094,-11.135457038879395,-7.092496871948242,-0.5594720244407654,-0.844457745552063,-0.30748462677001953,-0.1469540297985077,0.41596516966819763,3.3028650283813477
131,890186,890187,-0.49921706318855286,-0.2454662173986435,0.9963779449462891,-36.40543746948242,-4.676814556121826,-1.626927375793457,-0.5399730205535889,-0.8459576964378357,-0.3029848337173462,-0.1778988093137741,0.004789864178746939,3.228830337524414
132,890196,890197,-0.23684002459049225,0.0736575499176979,1.0249124765396118,-25.334016799926758,-2.8529109954833984,1.7796238660812378,-0.5354732275009155,-0.844457745552063,-0.3044847846031189,-0.14283373951911926,-0.30231785774230957,3.229987621307373
133,890206,890207,-0.1655200868844986,-0.32135969400405884,1.0265034437179565,-13.254725456237793,-1.4264295101165771,4.85992956161499,-0.5489725470542908,-0.836958110332489,-0.29998499155044556,-0.09927088022232056,-0.41686245799064636,3.2676334381103516
134,890216,890217,-0.08154698461294174,-0.1631125658750534,1.0146030187606812,4.766936302185059,-2.2768948078155518,6.458559513092041,-0.554972231388092,-0.8399580121040344,-0.28798559308052063,-0.061168402433395386,-0.4212251901626587,3.330162763595581
135,890226,890227,-0.02875600941479206,0.014097609557211399,0.9979639053344727,18.502023696899414,-4.144007205963135,7.405567646026611,-0.5474725961685181,-0.8384580612182617,-0.30748462677001953,-0.07988004386425018,-0.30690497159957886,3.395244598388672
136,890236,890237,-0.10540442168712616,-0.15180310606956482,0.9975587725639343,26.390382766723633,-7.898444175720215,8.138394355773926,-0.5594720244407654,-0.8384580612182617,-0.31048446893692017,0.020595023408532143,0.04854384437203407,3.486919403076172
137,890246,890247,-0.10979843139648438,-0.005845851264894009,0.9961350560188293,21.869863510131836,-6.8994059562683105,9.582216262817383,-0.5489725470542908,-0.851957380771637,-0.30898454785346985,0.0014117613900452852,0.28134751319885254,3.5662319660186768
138,890256,890257,-0.060777317732572556,0.039009939879179,1.0040388107299805,14.127381324768066,-8.035097122192383,9.140701293945312,-0.5474725961685181,-0.8474575877189636,-0.3134843111038208,0.06843050569295883,0.48007652163505554,3.6600518226623535
139,890266,890267,-0.2765916585922241,-0.12057255208492279,0.9979593753814697,3.0163166522979736,-10.4404935836792,7.133840084075928,-0.562471866607666,-0.8414579033851624,-0.3014849126338959,0.15516559779644012,0.5198409557342529,3.7404723167419434
140,890276,890277,-0.1548570692539215,0.0710626095533371,1.0213966369628906,-1.6108561754226685,-11.279497146606445,6.034311294555664,-0.562471866607666,-0.8474575877189636,-0.3044847846031189,0.267731636762619,0.4399290680885315,3.805233955383301
141,890286,890287,-0.028838563710451126,-0.002426487160846591,1.0133771896362305,-4.624183177947998,-10.157318115234375,5.538593292236328,-0.5444727540016174,-0.8294585347175598,-0.3044847846031189,0.38074010610580444,0.36761248111724854,3.8616230487823486
142,890296,890297,-0.13740481436252594,-0.032749272882938385,0.9924599528312683,-8.62587833404541,-7.57322883605957,5.244064807891846,-0.5489725470542908,-0.8339582681655884,-0.2939853072166443,0.4005320072174072,0.3259619474411011,3.909390449523926
143,890306,890307,-0.13705259561538696,0.05116492137312889,1.0010325908660889,-13.132494926452637,-6.6570940017700195,3.5902581214904785,-0.5474725961685181,-0.8414579033851624,-0.30748462677001953,0.5286123752593994,0.2073678821325302,3.9622156620025635
144,890316,890317,-0.017710192129015923,0.035271257162094116,0.980134129524231,-13.333501815795898,-6.2356133460998535,1.9689052104949951,-0.5414729118347168,-0.8234587907791138,-0.3014849126338959,0.5638821125030518,0.11278976500034332,3.991701602935791
145,890326,890327,-0.07559628039598465,0.002464086515828967,0.9927915334701538,-8.312281608581543,-5.886734962463379,0.12229668349027634,-0.5369731187820435,-0.836958110332489,-0.29998499155044556,0.6705421209335327,-0.07285824418067932,4.006147384643555
146,890336,890337,-0.06910137832164764,-0.039328012615442276,0.9500027298927307,0.1800030916929245,1.8092801570892334,-1.5139851570129395,-0.5354732275009155,-0.8354582190513611,-0.29848507046699524,0.6949098110198975,-0.1471237987279892,4.003199577331543
147,890346,890347,-0.1927405148744583,-0.09500372409820557,0.9964528679847717,8.133318901062012,9.066825866699219,-2.853228807449341,-0.5489725470542908,-0.8279585838317871,-0.3029848337173462,0.6102497577667236,-0.016494471579790115,3.9806413650512695
148,890356,890357,-0.049326490610837936,-0.027917496860027313,0.9727985262870789,16.971946716308594,13.505525588989258,-3.9303038120269775,-0.5474725961685181,-0.8324583768844604,-0.29848507046699524,0.4351452887058258,0.1682213842868805,3.9424033164978027
149,890366,890367,-0.07351072132587433,-0.008115269243717194,0.9772485494613647,19.81416893005371,14.365473747253418,-5.160463809967041,-0.5399730205535889,-0.8459576964378357,-0.31798410415649414,0.22000651061534882,0.3871946632862091,3.8952293395996094
150,890376,890377,-0.09847786277532578,-0.005220486782491207,0.9689909815788269,13.70343017578125,6.4787211418151855,-6.269804954528809,-0.5564721822738647,-0.844457745552063,-0.29848507046699524,0.06659866124391556,0.5734471082687378,3.8412861824035645
151,890386,890387,-0.10695710778236389,-0.04073731228709221,0.9730241894721985,3.0231451988220215,-2.7484517097473145,-6.239738464355469,-0.562471866607666,-0.8354582190513611,-0.3134843111038208,0.1279584765434265,0.6890112161636353,3.781094789505005
152,890396,890397,-0.1781105101108551,-0.048052337020635605,0.9902864098548889,-10.951468467712402,-9.677559852600098,-6.039148807525635,-0.562471866607666,-0.8324583768844604,-0.2924853563308716,0.24044355750083923,0.610569953918457,3.7237565517425537
153,890406,890407,-0.11762119829654694,0.08564770966768265,1.012437343597412,-20.086811065673828,-11.107537269592285,-7.392014980316162,-0.5564721822738647,-0.8534573316574097,-0.29848507046699524,0.4078613519668579,0.3438873589038849,3.6634151935577393
154,890416,890417,-0.08373942971229553,-0.023883754387497902,0.9981019496917725,-26.830163955688477,-9.070572853088379,-7.508533954620361,-0.5444727540016174,-0.8354582190513611,-0.3014849126338959,0.5755916833877563,0.15639518201351166,3.5900843143463135
155,890426,890427,-0.008709900081157684,0.016923364251852036,0.9763057231903076,-27.752286911010742,-2.6470632553100586,-6.192661285400391,-0.5414729118347168,-0.8384580612182617,-0.29848507046699524,0.5436561107635498,-0.236110121011734,3.5171995162963867
156,890436,890437,-0.14011803269386292,-0.03214877098798752,1.0081627368927002,-20.911691665649414,5.769278526306152,-4.58231782913208,-0.5504724383354187,-0.8384580612182617,-0.3044847846031189,0.5382760763168335,-0.29018357396125793,3.4505326747894287
157,890446,890447,-0.1504930853843689,-0.009739888831973076,0.9780793786048889,-10.027677536010742,14.804109573364258,-1.583932876586914,-0.562471866607666,-0.8414579033851624,-0.30748462677001953,0.44690006971359253,-0.559749186038971,3.4159586429595947
158,890456,890457,-0.14090709388256073,-0.062157128006219864,0.9910635948181152,-3.8171956539154053,18.73483657836914,0.22323039174079895,-0.5444727540016174,-0.8384580612182617,-0.3044847846031189,0.17150035500526428,-0.6803025007247925,3.4012036323547363
159,890466,890467,-0.0750497430562973,0.0027721200603991747,0.9857838749885559,1.688002109527588,18.383466720581055,1.1727133989334106,-0.5579720735549927,-0.8339582681655884,-0.29998499155044556,0.03034745343029499,-0.7103447914123535,3.406064510345459
160,890476,890477,-0.0959373265504837,0.007430503610521555,0.9506052732467651,6.659042835235596,14.817506790161133,-0.10434798896312714,-0.5504724383354187,-0.8354582190513611,-0.3014849126338959,-0.1424635648727417,-0.6513933539390564,3.409903049468994
161,890486,890487,-0.34189698100090027,-0.10397635400295258,0.9851729273796082,16.188724517822266,7.854036331176758,1.8444218635559082,-0.5504724383354187,-0.850457489490509,-0.30748462677001953,-0.10934113711118698,-0.3967736065387726,3.403620481491089
162,890496,890497,-0.2923455834388733,-0.09693524986505508,0.9772288799285889,18.06377410888672,1.9184508323669434,2.998704671859741,-0.5639718174934387,-0.8549572229385376,-0.2969851493835449,-0.2010241150856018,-0.13000713288784027,3.4220638275146484
163,890506,890507,-0.13247641921043396,-0.0317404568195343,0.9726500511169434,15.360687255859375,-3.4360551834106445,4.106475830078125,-0.5579720735549927,-0.8579570651054382,-0.30898454785346985,-0.19044320285320282,0.04285183921456337,3.453798294067383
164,890516,890517,-0.04435760900378227,0.06377499550580978,0.9708325266838074,13.303071022033691,-9.095155715942383,4.546814918518066,-0.5444727540016174,-0.8474575877189636,-0.3164841830730438,-0.08167985826730728,0.04572915658354759,3.497913360595703
165,890526,890527,-0.09607832878828049,0.05962401255965233,0.9949221014976501,11.902010917663574,-13.317987442016602,5.011492729187012,-0.5444727540016174,-0.8474575877189636,-0.31048446893692017,0.05671309679746628,0.22401636838912964,3.5419442653656006
166,890536,890537,0.01684563048183918,0.013506138697266579,0.970225989818573,10.332488059997559,-14.607217788696289,5.842201232910156,-0.5474725961685181,-0.8354582190513611,-0.3014849126338959,0.20498937368392944,0.2535148859024048,3.5954296588897705
167,890546,890547,-0.1529691070318222,-0.01176887471228838,1.0274333953857422,6.748826503753662,-10.92741870880127,6.119662284851074,-0.5474725961685181,-0.8384580612182617,-0.31048446893692017,0.2555261552333832,0.2412262111902237,3.65677547454834
168,890556,890557,-0.1832348108291626,0.03193065896630287,0.9942165017127991,1.084092140197754,-2.897343397140503,5.379313945770264,-0.5579720735549927,-0.8489575386047363,-0.29998499155044556,0.2895815670490265,0.29435911774635315,3.717191457748413
169,890566,890567,-0.10796061158180237,-0.11281123757362366,1.0053635835647583,-3.4686882495880127,2.3625099658966064,4.419727325439453,-0.5369731187820435,-0.851957380771637,-0.3029848337173462,0.2947494089603424,0.27145278453826904,3.7692222595214844
170,890576,890577,-0.14048287272453308,-0.042001429945230484,1.01145339012146,-4.106801986694336,6.571038246154785,4.102988243103027,-0.5594720244407654,-0.8414579033851624,-0.3134843111038208,0.22878259420394897,0.2718817889690399,3.8141448497772217
171,890586,890587,-0.046531688421964645,0.023175708949565887,1.0403962135314941,-2.8327248096466064,6.302646636962891,5.123398303985596,-0.5444727540016174,-0.850457489490509,-0.3014849126338959,0.1228693500161171,0.3338700532913208,3.8605973720550537
172,890596,890597,-0.0741022378206253,-0.04703671485185623,1.0236163139343262,0.8772503733634949,3.890040397644043,4.928145885467529,-0.5459727048873901,-0.8459576964378357,-0.30898454785346985,0.1866084486246109,0.2952616810798645,3.9104294776916504
173,890606,890607,-0.060445696115493774,0.1209762915968895,1.0588940382003784,1.5839166641235352,-1.4462946653366089,5.158555507659912,-0.5579720735549927,-0.8579570651054382,-0.3119843900203705,0.22925889492034912,0.29703110456466675,3.96142315864563
174,890616,890617,-0.10074688494205475,0.09785681962966919,1.0832008123397827,3.6509904861450195,-7.999996185302734,4.850721836090088,-0.5504724383354187,-0.850457489490509,-0.30748462677001953,0.29579049348831177,0.3313286304473877,4.0139970779418945
175,890626,890627,-0.06742555648088455,0.0903802290558815,1.0446550846099854,1.6893812417984009,-10.158270835876465,4.902235507965088,-0.5504724383354187,-0.8474575877189636,-0.31048446893692017,0.36357012391090393,0.35774290561676025,4.059967041015625
176,890636,890637,-0.0683814212679863,-0.05601189285516739,1.0030465126037598,-2.700821876525879,-1.9456204175949097,5.849116325378418,-0.5429728627204895,-0.8399580121040344,-0.30898454785346985,0.31365978717803955,0.336721271276474,4.110375881195068
177,890646,890647,-0.0872989222407341,0.012506945990025997,1.0009746551513672,-4.599422931671143,9.981385231018066,5.519969463348389,-0.5474725961685181,-0.8474575877189636,-0.3044847846031189,0.3799436390399933,0.25176456570625305,4.169643402099609
178,890656,890657,-0.07024713605642319,-0.12447112053632736,0.9996500611305237,-2.298067331314087,22.184181213378906,6.339276313781738,-0.5474725961685181,-0.8474575877189636,-0.3014849126338959,0.1852438598871231,0.25948092341423035,4.224593639373779
179,890666,890667,-0.0645679384469986,-0.03520192205905914,0.9893271923065186,-0.5290241241455078,32.616817474365234,7.269412994384766,-0.5519723892211914,-0.8459576964378357,-0.3119843900203705,-0.1210256889462471,0.22021172940731049,4.294609069824219
180,890676,890677,-0.05735914036631584,0.009784023277461529,1.0181509256362915,-0.2952384054660797,39.587955474853516,6.502892017364502,-0.5504724383354187,-0.8594570159912109,-0.3044847846031189,-0.5697131156921387,0.2701846659183502,4.3644609451293945
181,890686,890687,-0.07216095924377441,0.029712991788983345,0.9831867814064026,-2.021413564682007,39.467342376708984,7.502418518066406,-0.5579720735549927,-0.851957380771637,-0.3059847056865692,-1.0023245811462402,0.1702525019645691,4.430380344390869
182,890696,890697,-0.015620461665093899,0.025013303384184837,0.9766301512718201,-7.135884761810303,29.815954208374023,8.105920791625977,-0.5594720244407654,-0.850457489490509,-0.31048446893692017,-1.2941219806671143,0.22479471564292908,4.514225482940674
183,890706,890707,-0.30200886726379395,-0.17574156820774078,0.9798677563667297,-12.354437828063965,13.885248184204102,9.251883506774902,-0.5564721822738647,-0.8384580612182617,-0.3014849126338959,-1.3792827129364014,0.04411502555012703,4.596421241760254
184,890716,890717,-0.2282426804304123,-0.3964919447898865,0.9731505513191223,-13.291525840759277,-4.739258766174316,10.386682510375977,-0.5504724383354187,-0.8294585347175598,-0.2954852283000946,-1.4632002115249634,-0.10477670282125473,4.69344425201416
185,890726,890727,-0.4989289343357086,-0.24473834037780762,0.9906444549560547,-13.16535758972168,-23.775232315063477,11.842679977416992,-0.5564721822738647,-0.844457745552063,-0.2954852283000946,-1.2293736934661865,-0.19010908901691437,4.810116291046143
186,890736,890737,-0.26061832904815674,0.0073852320201694965,1.0058037042617798,-11.626803398132324,-34.461185455322266,12.419686317443848,-0.5564721822738647,-0.8294585347175598,-0.3044847846031189,-0.9668130278587341,0.017407147213816643,4.964326858520508
187,890746,890747,-0.02487890236079693,0.03235958144068718,0.9718565344810486,-8.313029289245605,-36.03947067260742,13.040902137756348,-0.5474725961685181,-0.8384580612182617,-0.2954852283000946,-0.6115277409553528,-0.18323765695095062,5.081966400146484
188,890756,890757,-0.09959336370229721,0.140920490026474,0.9975940585136414,-8.303540229797363,-29.60169219970703,12.512317657470703,-0.5504724383354187,-0.8414579033851624,-0.3134843111038208,-0.37176015973091125,-0.19998705387115479,5.220882415771484
189,890766,890767,-0.29938510060310364,-0.23533669114112854,0.9650821089744568,-7.4569244384765625,-22.860858917236328,13.10736083984375,-0.5474725961685181,-0.8384580612182617,-0.3134843111038208,0.0417855940759182,-0.3803234100341797,5.336524486541748
190,890776,890777,-0.21000859141349792,0.01776950992643833,0.9618960022926331,-5.027568817138672,-17.380268096923828,13.718807220458984,-0.5519723892211914,-0.8489575386047363,-0.3029848337173462,0.1399880200624466,-0.37765559554100037,5.481330871582031
191,890786,890787,-0.06298201531171799,-0.004526765551418066,0.9694360494613647,-7.837442398071289,-11.268905639648438,13.212178230285645,-0.5354732275009155,-0.8414579033851624,-0.2954852283000946,0.2986390292644501,-0.5047928690910339,5.61140775680542
192,890796,890797,-0.06827176362276077,0.008886313065886497,0.9643231630325317,-14.062249183654785,-9.992189407348633,11.850193977355957,-0.5354732275009155,-0.8114594221115112,-0.3014849126338959,0.32450202107429504,-0.6407782435417175,5.738800525665283
193,890806,890807,-0.29426661133766174,-0.026899371296167374,0.9545519351959229,-20.777782440185547,-11.129047393798828,9.549920082092285,-0.5354732275009155,-0.8324583768844604,-0.3014849126338959,0.3569110035896301,-0.7395508289337158,5.859042167663574
194,890816,890817,-0.3819689154624939,-0.05678945034742355,0.9051617980003357,-25.9190673828125,-13.276530265808105,6.019221782684326,-0.5354732275009155,-0.8324583768844604,-0.3014849126338959,0.5383909940719604,-1.077345371246338,5.93756103515625
195,890826,890827,-0.1053243950009346,0.07091794908046722,0.9556363821029663,-28.147661209106445,-14.798816680908203,3.104121208190918,-0.5354732275009155,-0.8324583768844604,-0.3014849126338959,0.6936103105545044,-1.3276046514511108,5.992300510406494
196,890836,890837,-0.0933808982372284,-0.2172033190727234,0.9919184446334839,-21.084875106811523,-13.263593673706055,0.8195355534553528,-0.5294735431671143,-0.8204589486122131,-0.30748462677001953,0.7784097194671631,-1.617002010345459,6.02583122253418
197,890846,890847,-0.08436508476734161,-0.4260075092315674,0.9897568225860596,-11.072129249572754,-5.1321024894714355,-0.8841063976287842,-0.5144742727279663,-0.8234587907791138,-0.3044847846031189,0.8723910450935364,-1.898410677909851,6.032465934753418
198,890856,890857,-0.11268450319766998,-0.17572841048240662,1.0158473253250122,2.8985843658447266,3.0109446048736572,-2.977254867553711,-0.5294735431671143,-0.8354582190513611,-0.30748462677001953,0.8843000531196594,-1.879225492477417,6.022566318511963
199,890866,890867,-0.03257153555750847,-0.005786103196442127,1.0218702554702759,20.04409408569336,11.842127799987793,-4.444160461425781,-0.5324733853340149,-0.8324583768844604,-0.31048446893692017,0.7824668884277344,-1.5550812482833862,5.9923553466796875
200,890876,890877,-0.07395792007446289,0.053422555327415466,1.0080571174621582,30.258621215820312,15.240127563476562,-7.168221950531006,-0.5444727540016174,-0.8324583768844604,-0.2954852283000946,0.6353071331977844,-1.3793375492095947,5.942798614501953
201,890886,890887,-0.4684223234653473,-0.02589048072695732,1.00586998462677,37.06276321411133,18.343524932861328,-10.96516227722168,-0.5249737501144409,-0.8399580121040344,-0.29998499155044556,0.43526968359947205,-0.9840007424354553,5.859503269195557
202,890896,890897,-0.49630603194236755,0.041927821934223175,0.9986441731452942,35.045040130615234,18.908002853393555,-14.979780197143555,-0.5414729118347168,-0.850457489490509,-0.3134843111038208,0.2605193257331848,-0.5497991442680359,5.7266716957092285
203,890906,890907,-0.2548922002315521,0.026656251400709152,1.0178731679916382,27.54569435119629,17.457612991333008,-15.470108985900879,-0.5399730205535889,-0.8699564933776855,-0.31798410415649414,0.035153329372406006,-0.411661833524704,5.586085319519043
204,890916,890917,-0.11560627073049545,-0.03958907723426819,1.01407790184021,9.571093559265137,4.816884994506836,-16.268585205078125,-0.5354732275009155,-0.8654567003250122,-0.3044847846031189,-0.08269526064395905,-0.2579905092716217,5.430394649505615
205,890926,890927,-0.06108022481203079,0.005499361082911491,0.9827748537063599,-2.6406631469726562,-8.30070686340332,-18.43555450439453,-0.5324733853340149,-0.8594570159912109,-0.3254837095737457,-0.05341865494847298,-0.34165528416633606,5.263326168060303
206,890936,890937,-0.11425323039293289,-0.0006799104739911854,1.0159214735031128,-10.17015552520752,-14.483508110046387,-20.135122299194336,-0.5384730696678162,-0.850457489490509,-0.3224838674068451,0.1475783735513687,-0.37345045804977417,5.0590362548828125
207,890946,890947,-0.043778080493211746,0.048367783427238464,0.9861462116241455,-3.909701347351074,-12.89587688446045,-20.4833927154541,-0.5279735922813416,-0.851957380771637,-0.30898454785346985,0.30606240034103394,-0.49009332060813904,4.854857444763184
208,890956,890957,-0.17128552496433258,-0.04254969581961632,1.017642855644226,4.386756896972656,-9.717385292053223,-19.176103591918945,-0.5324733853340149,-0.850457489490509,-0.30748462677001953,0.4223805367946625,-0.4130949378013611,4.6522040367126465
209,890966,890967,-0.1425827145576477,-0.08068712055683136,0.9980130195617676,13.013402938842773,-2.459475517272949,-16.147098541259766,-0.5429728627204895,-0.851957380771637,-0.29998499155044556,0.5199862718582153,-0.26479053497314453,4.462750434875488
210,890976,890977,-0.013749244622886181,-0.05632191151380539,0.9665051102638245,16.69029998779297,8.395492553710938,-12.51218032836914,-0.5309734344482422,-0.8699564933776855,-0.30898454785346985,0.4660499691963196,-0.16128331422805786,4.316624164581299
211,890986,890987,-0.4013853371143341,-0.27016305923461914,1.011246919631958,15.746896743774414,14.879316329956055,-11.539917945861816,-0.5459727048873901,-0.8579570651054382,-0.3029848337173462,0.2738395631313324,0.10661251097917557,4.199846267700195
212,890996,890997,-0.3909376859664917,-0.39421477913856506,1.0010210275650024,12.573277473449707,16.407865524291992,-10.633869171142578,-0.5489725470542908,-0.836958110332489,-0.3029848337173462,0.09873928874731064,0.2630457282066345,4.0888519287109375
213,891006,891007,-0.15699777007102966,-0.25036391615867615,1.011222004890442,12.574440956115723,18.260099411010742,-9.968798637390137,-0.5459727048873901,-0.8459576964378357,-0.29998499155044556,-0.0406971275806427,0.3170296251773834,3.983947515487671
214,891016,891017,-0.3484845757484436,-0.057725850492715836,1.0150713920593262,14.725296974182129,19.113981246948242,-8.950637817382812,-0.5564721822738647,-0.8594570159912109,-0.3014849126338959,-0.2785205841064453,0.5353980660438538,3.8886983394622803
215,891026,891027,-0.14111992716789246,-0.012835747562348843,1.0214232206344604,13.318227767944336,19.083635330200195,-6.092414379119873,-0.5459727048873901,-0.851957380771637,-0.3119843900203705,-0.3545131981372833,0.4896201193332672,3.8124983310699463
216,891036,891037,-0.171306312084198,0.0007697260589338839,1.0353035926818848,3.279550790786743,15.6567964553833,-4.625340938568115,-0.5504724383354187,-0.844457745552063,-0.3044847846031189,-0.5686840415000916,0.6375218033790588,3.760425329208374
217,891046,891047,-0.06626035273075104,0.01050499826669693,1.0161715745925903,-5.605456352233887,6.827524185180664,-3.7386136054992676,-0.5504724383354187,-0.8564571738243103,-0.30748462677001953,-0.6801633238792419,0.5486260652542114,3.7174949645996094
218,891056,891057,-0.13659855723381042,-0.0630018562078476,0.9966049194335938,-15.6570463180542,-2.0545949935913086,-3.6400811672210693,-0.5579720735549927,-0.851957380771637,-0.30898454785346985,-0.7140666842460632,0.4601624011993408,3.681666374206543
219,891066,891067,-0.2274676412343979,-0.08791269361972809,1.0340793132781982,-22.021108627319336,-5.428150653839111,-4.479327201843262,-0.5519723892211914,-0.8399580121040344,-0.29998499155044556,-0.62367844581604,0.23586949706077576,3.6411595344543457
220,891076,891077,-0.2742321789264679,-0.2863680124282837,1.0308794975280762,-17.909154891967773,-4.837062358856201,-4.801827907562256,-0.5414729118347168,-0.8534573316574097,-0.29848507046699524,-0.46671155095100403,0.12533730268478394,3.59924578666687
221,891086,891087,-1.095383882522583,-0.38754984736442566,1.0242382287979126,-12.71782112121582,-1.6122525930404663,-5.1938982009887695,-0.5474725961685181,-0.8474575877189636,-0.2924853563308716,-0.39416489005088806,0.033915434032678604,3.554204225540161
222,891096,891097,-0.5023948550224304,-0.7401496767997742,0.9866294860839844,-8.744562149047852,2.4510645866394043,-4.632160663604736,-0.5609719157218933,-0.8429578542709351,-0.3029848337173462,-0.4222089946269989,-0.1405479609966278,3.504270076751709
223,891106,891107,-0.21787704527378082,-0.2651464343070984,1.0170162916183472,-1.0699595212936401,2.833667516708374,-7.15791654586792,-0.5444727540016174,-0.8534573316574097,-0.31048446893692017,-0.45494356751441956,-0.20995166897773743,3.4572789669036865
224,891116,891117,-0.18298962712287903,0.07862387597560883,0.9975616931915283,7.066364765167236,0.22144968807697296,-10.442062377929688,-0.5564721822738647,-0.8474575877189636,-0.3014849126338959,-0.4831947684288025,-0.16444481909275055,3.3820066452026367
225,891126,891127,-0.09504953771829605,-0.03531453385949135,1.0016974210739136,15.055678367614746,-5.569805145263672,-14.451539039611816,-0.5654717087745667,-0.844457745552063,-0.3044847846031189,-0.44767528772354126,0.013949968852102757,3.273365020751953
226,891136,891137,-0.06574404239654541,0.022118577733635902,1.0214357376098633,22.635019302368164,-9.887031555175781,-16.986486434936523,-0.5609719157218933,-0.8339582681655884,-0.30898454785346985,-0.33339887857437134,0.30920568108558655,3.128175973892212
227,891146,891147,-0.2853999137878418,-0.09272757172584534,1.0624144077301025,25.25411605834961,-8.087608337402344,-18.47556495666504,-0.5459727048873901,-0.8549572229385376,-0.30898454785346985,-0.3571465015411377,0.6138980984687805,2.957979679107666
228,891156,891157,-0.4568311274051666,-0.42296102643013,1.0187127590179443,21.684825897216797,-1.2310326099395752,-18.32541847229004,-0.562471866607666,-0.850457489490509,-0.30748462677001953,-0.3570472002029419,0.7718256711959839,2.76354718208313
229,891166,891167,-0.6574584245681763,-0.6438915133476257,1.0429763793945312,10.093706130981445,4.754791259765625,-18.823707580566406,-0.5594720244407654,-0.850457489490509,-0.3014849126338959,-0.47517767548561096,0.8820746541023254,2.571375846862793
230,891176,891177,-1.4395443201065063,-0.8165224194526672,1.0600614547729492,-4.306070327758789,4.147330284118652,-19.61634635925293,-0.5609719157218933,-0.8489575386047363,-0.3029848337173462,-0.5457188487052917,0.9142680764198303,2.3786888122558594
231,891186,891187,-1.1456706523895264,-0.5499159693717957,1.0585508346557617,-22.421619415283203,6.450919151306152,-18.133987426757812,-0.5579720735549927,-0.8309584259986877,-0.3119843900203705,-0.5391876697540283,0.7468278408050537,2.19065260887146
232,891196,891197,-0.19445925951004028,-0.39922863245010376,1.015580177307129,-35.726932525634766,9.433685302734375,-16.184341430664062,-0.5504724383354187,-0.844457745552063,-0.2924853563308716,-0.6445356607437134,0.48342108726501465,2.011866807937622
233,891206,891207,-0.21985791623592377,-0.10613691806793213,1.0134108066558838,-43.44534683227539,10.430221557617188,-14.500011444091797,-0.5594720244407654,-0.8264586329460144,-0.2924853563308716,-0.7158695459365845,-0.03358502313494682,1.8486781120300293
234,891216,891217,-0.2839949429035187,-0.1442457139492035,1.037651777267456,-42.47938537597656,8.206347465515137,-14.090387344360352,-0.5594720244407654,-0.8204589486122131,-0.3014849126338959,-0.7683591246604919,-0.11524992436170578,1.738031268119812
235,891226,891227,-0.43158331513404846,0.020310042425990105,0.9936069250106812,-33.327693939208984,3.931478500366211,-14.60440444946289,-0.5594720244407654,-0.8264586329460144,-0.2924853563308716,-0.8515721559524536,-0.7618399858474731,1.5704227685928345
236,891236,891237,-0.2939390242099762,-0.13091334700584412,1.0106632709503174,-15.314909934997559,-4.665781497955322,-14.181514739990234,-0.5684715509414673,-0.8294585347175598,-0.3044847846031189,-0.8336700201034546,-1.102464199066162,1.4233077764511108
237,891246,891247,-0.06843715906143188,-0.06851238757371902,0.9996059536933899,6.783515930175781,-13.384129524230957,-14.575798034667969,-0.554972231388092,-0.8189590573310852,-0.29098543524742126,-0.8111668229103088,-0.9769102931022644,1.304455041885376
238,891256,891257,-0.07892449200153351,0.0371156744658947,0.9909231066703796,35.85386657714844,-17.90590476989746,-13.954793930053711,-0.56997150182724,-0.836958110332489,-0.2969851493835449,-0.7558035850524902,-0.7845524549484253,1.1670622825622559
239,891266,891267,-0.059047020971775055,-0.25519639253616333,1.0031224489212036,55.528236389160156,-14.629274368286133,-14.448904037475586,-0.5744712948799133,-0.8564571738243103,-0.3014849126338959,-0.4616701900959015,-0.13680194318294525,1.0536389350891113
240,891276,891277,-0.1037290170788765,-0.17087921500205994,1.0127090215682983,59.5244026184082,-7.167433738708496,-13.145881652832031,-0.554972231388092,-0.8579570651054382,-0.30898454785346985,-0.5514875054359436,0.153314471244812,0.878044605255127
241,891286,891287,-0.4624450206756592,-0.22023054957389832,0.985112190246582,47.54987335205078,-4.339959144592285,-12.01010513305664,-0.5684715509414673,-0.8594570159912109,-0.31048446893692017,-0.5778499841690063,0.8946813941001892,0.7667111754417419
242,891296,891297,-1.068236231803894,-0.8346196413040161,1.0623774528503418,19.174043655395508,-7.241982936859131,-11.797266960144043,-0.5609719157218933,-0.851957380771637,-0.2969851493835449,-0.5370997786521912,1.2186247110366821,0.6377831101417542
243,891306,891307,-0.7689789533615112,-0.4856012463569641,0.9871394634246826,-9.537771224975586,-10.802077293395996,-11.786872863769531,-0.5534723401069641,-0.844457745552063,-0.31048446893692017,-0.3581937551498413,1.276541829109192,0.5137267112731934
244,891316,891317,-0.0767851248383522,-0.22210170328617096,0.9757364988327026,-32.10124969482422,-13.33322525024414,-12.884886741638184,-0.562471866607666,-0.8474575877189636,-0.3014849126338959,-0.1324729174375534,1.1104295253753662,0.3961871564388275
245,891326,891327,-0.4160802662372589,-0.2848179340362549,1.0126967430114746,-44.495994567871094,-15.358282089233398,-13.8212251663208,-0.554972231388092,-0.836958110332489,-0.2969851493835449,0.11914675682783127,0.5284934639930725,0.25375479459762573
246,891336,891337,-0.4711165726184845,-0.03145395219326019,0.980891764163971,-46.41686248779297,-14.166723251342773,-14.455662727355957,-0.5504724383354187,-0.844457745552063,-0.3134843111038208,0.30528172850608826,0.1887388676404953,0.12537160515785217
247,891346,891347,-0.8247268199920654,-0.4259116053581238,1.0191303491592407,-39.196868896484375,-9.874589920043945,-15.966243743896484,-0.5474725961685181,-0.8294585347175598,-0.30748462677001953,0.23689106106758118,-0.2626110017299652,-0.0372360423207283
248,891356,891357,-0.5836653113365173,-0.6206054091453552,1.0210273265838623,-20.328901290893555,-5.378432273864746,-16.775922775268555,-0.5579720735549927,-0.8339582681655884,-0.29098543524742126,0.670161783695221,-0.767686665058136,-0.1832217425107956
249,891366,891367,-0.3831764757633209,-0.10076554864645004,0.9986015558242798,-1.9819499254226685,-3.894784927368164,-17.6175479888916,-0.5609719157218933,-0.836958110332489,-0.29998499155044556,0.7400491237640381,-0.9530352354049683,-0.3558073341846466
250,891376,891377,-0.13115264475345612,0.05046471953392029,1.0219365358352661,14.560537338256836,-2.5756027698516846,-18.4246883392334,-0.5654717087745667,-0.8384580612182617,-0.30748462677001953,0.656282365322113,-0.8431704640388489,-0.5364881157875061
251,891386,891387,-0.154771089553833,-0.1827971488237381,0.9989351630210876,24.833072662353516,3.5713512897491455,-17.924455642700195,-0.5594720244407654,-0.8414579033851624,-0.3044847846031189,0.14460092782974243,0.24428997933864594,-0.7190515398979187
252,891396,891397,-0.4561084508895874,-0.09060675650835037,1.0388429164886475,29.32334327697754,6.282598972320557,-18.83517074584961,-0.5789710283279419,-0.8429578542709351,-0.3209839463233948,0.15295925736427307,0.4885602593421936,-0.8914987444877625
253,891406,891407,-0.9441842436790466,-0.2699693739414215,1.044132113456726,26.185930252075195,7.060915946960449,-22.036020278930664,-0.5669716596603394,-0.8399580121040344,-0.30898454785346985,0.07528050988912582,0.800448477268219,-1.0921432971954346
254,891416,891417,-1.2851816415786743,-0.11132768541574478,1.0038881301879883,16.720500946044922,5.531379222869873,-20.423961639404297,-0.5729713439941406,-0.8489575386047363,-0.3029848337173462,-0.0739479511976242,0.9369076490402222,-1.3116260766983032
255,891426,891427,-0.6499438285827637,-0.07865256071090698,0.9645298719406128,-1.673222303390503,1.3523902893066406,-17.126914978027344,-0.5744712948799133,-0.8534573316574097,-0.31048446893692017,-0.08253853023052216,1.0023242235183716,-1.5088958740234375
256,891436,891437,-0.3100239336490631,-0.5293209552764893,1.003888487815857,-23.48554229736328,-1.9041647911071777,-13.193696975708008,-0.562471866607666,-0.8354582190513611,-0.30748462677001953,-0.02049621008336544,0.7377327680587769,-1.6627612113952637
257,891446,891447,-0.5558359026908875,-0.459810346364975,0.9870983362197876,-43.05381774902344,-7.965322494506836,-10.86655330657959,-0.5639718174934387,-0.8399580121040344,-0.3029848337173462,0.10945385694503784,0.3380212187767029,-1.781633734703064
258,891456,891457,-0.6732983589172363,-0.6029238700866699,1.0013874769210815,-54.83896255493164,-15.272854804992676,-7.683016777038574,-0.5579720735549927,-0.8309584259986877,-0.31798410415649414,0.3014976680278778,-0.3143670856952667,-1.870521903038025
259,891466,891467,-0.24618972837924957,-0.19820323586463928,0.9876753091812134,-54.876708984375,-25.16748809814453,-7.505248069763184,-0.5564721822738647,-0.8294585347175598,-0.3044847846031189,0.41695863008499146,-0.841062605381012,-1.9511442184448242
260,891476,891477,-0.823877215385437,-0.42014825344085693,1.0723540782928467,-37.32337188720703,-30.498992919921875,-6.415744781494141,-0.554972231388092,-0.8189590573310852,-0.3059847056865692,0.777252197265625,-1.2069803476333618,-2.0145511627197266
261,891486,891487,-1.1712074279785156,-0.19260521233081818,1.0862951278686523,-12.249232292175293,-28.61343765258789,-3.9063267707824707,-0.554972231388092,-0.8339582681655884,-0.2939853072166443,0.9122427105903625,-1.4282814264297485,-2.0757904052734375
262,891496,891497,-0.715660572052002,-0.08496227860450745,1.022914171218872,6.3120622634887695,-20.687746047973633,-0.5823423862457275,-0.562471866607666,-0.8234587907791138,-0.29848507046699524,1.3050357103347778,-1.4367012977600098,-2.099146604537964
263,891506,891507,-0.4059251546859741,-0.1365736871957779,0.9950945377349854,19.300973892211914,-12.292584419250488,1.0425292253494263,-0.5564721822738647,-0.8234587907791138,-0.28948551416397095,1.3401297330856323,-1.2775201797485352,-2.09609055519104
264,891516,891517,-0.1064857617020607,-0.19328100979328156,1.0096032619476318,31.002403259277344,-4.837536334991455,2.540757894515991,-0.562471866607666,-0.8294585347175598,-0.3044847846031189,1.5095704793930054,-1.0497618913650513,-2.0789880752563477
265,891526,891527,-0.04770446941256523,-0.20801761746406555,0.9775846004486084,31.4185733795166,-0.8364736437797546,2.949296236038208,-0.554972231388092,-0.836958110332489,-0.29098543524742126,1.58786940574646,-0.7246230244636536,-2.054682493209839
266,891536,891537,-0.332200288772583,-0.07400818914175034,0.9961174130439758,27.620370864868164,5.136168956756592,4.320337295532227,-0.5579720735549927,-0.8309584259986877,-0.2939853072166443,1.596450924873352,-0.4361022710800171,-2.0206995010375977
267,891546,891547,-0.23413968086242676,-0.03414606302976608,0.9820816516876221,18.354812622070312,10.335882186889648,6.094117641448975,-0.5579720735549927,-0.8309584259986877,-0.2939853072166443,1.5062590837478638,-0.23882003128528595,-1.957653522491455
268,891556,891557,-0.2864445149898529,-0.05880336835980415,0.9505842328071594,7.1649675369262695,17.51239776611328,5.432779788970947,-0.5579720735549927,-0.8309584259986877,-0.2939853072166443,1.3133188486099243,-0.13590241968631744,-1.8835643529891968
269,891566,891567,-0.27947840094566345,-0.16012869775295258,0.9256453514099121,-8.820616722106934,22.016748428344727,3.346620559692383,-0.5759711861610413,-0.8309584259986877,-0.2759861946105957,1.097072958946228,-0.24022947251796722,-1.8084650039672852
270,891576,891577,-0.21880315244197845,-0.033252838999032974,0.942119300365448,-23.928003311157227,18.73582649230957,2.8464877605438232,-0.5744712948799133,-0.8234587907791138,-0.29848507046699524,0.9339818954467773,-0.5298805236816406,-1.749657392501831
271,891586,891587,-0.1883997619152069,-0.08117643743753433,0.9350699186325073,-33.25580978393555,10.32935905456543,0.8821197152137756,-0.5654717087745667,-0.8114594221115112,-0.3014849126338959,0.8622581362724304,-0.7965254783630371,-1.731482744216919
272,891596,891597,-0.37356147170066833,-0.1589936763048172,0.9933361411094666,-35.28770065307617,1.5305818319320679,-0.22085018455982208,-0.5519723892211914,-0.8219588994979858,-0.3029848337173462,0.7761780023574829,-1.0883617401123047,-1.7338511943817139
273,891606,891607,-0.27164605259895325,-0.057877421379089355,0.9721584916114807,-31.4057559967041,-4.314529895782471,-1.7054784297943115,-0.5519723892211914,-0.8279585838317871,-0.29098543524742126,0.8123945593833923,-1.374940276145935,-1.7527636289596558
274,891616,891617,-0.4373214840888977,-0.07638900727033615,0.9477890133857727,-20.220129013061523,-6.4792656898498535,-1.6465702056884766,-0.5729713439941406,-0.8159592151641846,-0.28798559308052063,0.9169210195541382,-1.689380407333374,-1.768233060836792
275,891626,891627,-0.2526910901069641,-0.1531774401664734,0.9404500722885132,-4.571192264556885,-3.066484212875366,-0.1663295179605484,-0.5534723401069641,-0.8294585347175598,-0.2954852283000946,0.933771550655365,-1.913027048110962,-1.7648018598556519
276,891636,891637,-0.4560062885284424,-0.05169788375496864,1.0062452554702759,11.440665245056152,-0.5265406370162964,0.04642842710018158,-0.5534723401069641,-0.8174591064453125,-0.29848507046699524,0.9658477306365967,-1.8756070137023926,-1.7770874500274658
277,891646,891647,-0.8920268416404724,-0.034116778522729874,0.9671909213066101,28.632341384887695,2.5599451065063477,-0.012971654534339905,-0.5594720244407654,-0.8324583768844604,-0.3044847846031189,0.9422298669815063,-1.5682523250579834,-1.8016753196716309
278,891656,891657,-0.41941872239112854,-0.06444749236106873,1.0061839818954468,39.07709884643555,7.776479721069336,0.43886610865592957,-0.562471866607666,-0.8294585347175598,-0.3044847846031189,0.9280378222465515,-1.2507257461547852,-1.810133695602417
279,891666,891667,-0.4253651201725006,-0.11457208544015884,0.988703727722168,41.91660690307617,16.924266815185547,0.9361639618873596,-0.5669716596603394,-0.8549572229385376,-0.30898454785346985,0.7304410338401794,-0.8170740604400635,-1.7963895797729492
280,891676,891677,-0.3249330520629883,-0.04480983316898346,1.0069388151168823,37.2802619934082,22.503204345703125,1.3423069715499878,-0.5654717087745667,-0.8624568581581116,-0.31048446893692017,0.5522555708885193,-0.24839483201503754,-1.8153479099273682
281,891686,891687,-0.3594729006290436,-0.29185739159584045,0.9594623446464539,24.501813888549805,21.005380630493164,1.459257960319519,-0.5744712948799133,-0.844457745552063,-0.31048446893692017,0.30285125970840454,-0.05015353113412857,-1.7849153280258179
282,891696,891697,-0.08928751200437546,-0.20183178782463074,0.9523038268089294,5.762889862060547,10.739036560058594,2.3291659355163574,-0.5744712948799133,-0.850457489490509,-0.3014849126338959,0.10425501316785812,0.06465261429548264,-1.751630425453186
283,891706,891707,-0.2832831144332886,-0.43639329075813293,0.980306088924408,-16.715557098388672,2.3453726768493652,2.789656162261963,-0.562471866607666,-0.850457489490509,-0.29848507046699524,0.000601235602516681,-0.043464649468660355,-1.71120023727417
284,891716,891717,-0.3073522746562958,-0.335187703371048,1.079574704170227,-38.36534881591797,-0.456820547580719,3.319692850112915,-0.5519723892211914,-0.8489575386047363,-0.3029848337173462,0.019460532814264297,-0.5196273922920227,-1.6484005451202393
285,891726,891727,-0.17564816772937775,-0.09988445043563843,1.0493978261947632,-48.160072326660156,2.019044876098633,2.6432762145996094,-0.5504724383354187,-0.8474575877189636,-0.30748462677001953,0.09721852093935013,-0.9518412351608276,-1.617451548576355
286,891736,891737,-0.1733551174402237,-0.26354455947875977,1.0349018573760986,-44.010459899902344,5.533769130706787,1.4815531969070435,-0.5474725961685181,-0.844457745552063,-0.3044847846031189,0.03426281735301018,-1.4124122858047485,-1.5914303064346313
287,891746,891747,-0.06164224445819855,0.014479371719062328,1.0818355083465576,-24.90448570251465,8.983129501342773,0.8483063578605652,-0.5654717087745667,-0.8324583768844604,-0.3014849126338959,-0.0879318118095398,-1.7365355491638184,-1.5783036947250366
288,891756,891757,-0.11628185957670212,-0.01293489895761013,1.097513198852539,-0.02322256751358509,9.975881576538086,-0.7157328128814697,-0.5654717087745667,-0.844457745552063,-0.3044847846031189,-0.10841464251279831,-1.9143222570419312,-1.599326252937317
289,891766,891767,-0.5081853866577148,-0.2895756959915161,1.0177210569381714,25.569326400756836,8.652351379394531,-0.2956734895706177,-0.562471866607666,-0.8384580612182617,-0.3014849126338959,-0.18085940182209015,-1.6514599323272705,-1.622192144393921
290,891776,891777,-0.2656845450401306,-0.3529469966888428,1.0003597736358643,42.547447204589844,5.471069812774658,-0.002398546552285552,-0.5594720244407654,-0.8474575877189636,-0.29848507046699524,-0.3096023201942444,-1.42507004737854,-1.6180810928344727
291,891786,891787,-0.04880955442786217,-0.12815234065055847,1.001814842224121,48.626258850097656,-2.7335407733917236,-0.6736794114112854,-0.5639718174934387,-0.8579570651054382,-0.3119843900203705,-0.23067860305309296,-0.9191970825195312,-1.6288012266159058
292,891796,891797,0.005773831158876419,-0.054489437490701675,1.003263235092163,44.03168869018555,-10.108656883239746,-1.6899610757827759,-0.5714713931083679,-0.8384580612182617,-0.3134843111038208,-0.12782759964466095,-0.14648102223873138,-1.6546928882598877
293,891806,891807,-0.06641538441181183,-0.0065279435366392136,1.0182024240493774,27.117389678955078,-18.907779693603516,-2.0555994510650635,-0.5759711861610413,-0.851957380771637,-0.3059847056865692,0.06184032931923866,-0.13950884342193604,-1.665135145187378
294,891816,891817,-0.24636709690093994,-0.1977369636297226,1.0290582180023193,3.8647236824035645,-19.898088455200195,-4.166526794433594,-0.5534723401069641,-0.8714563846588135,-0.3134843111038208,0.38291841745376587,0.11203130334615707,-1.6996514797210693
295,891826,891827,-0.3041355013847351,-0.2626204490661621,1.0810424089431763,-9.917222023010254,-14.00763988494873,-5.390902996063232,-0.5504724383354187,-0.844457745552063,-0.3164841830730438,0.4912204444408417,-0.07880811393260956,-1.734460473060608
296,891836,891837,-0.2020501047372818,-0.08032350242137909,1.0876163244247437,-16.880355834960938,-2.690692186355591,-5.512941837310791,-0.5429728627204895,-0.8639568090438843,-0.3149842321872711,0.6075270175933838,-0.27437272667884827,-1.7776609659194946
297,891846,891847,-0.2171415090560913,0.09165945649147034,1.1082544326782227,-13.884662628173828,6.804946422576904,-6.484842300415039,-0.5519723892211914,-0.8459576964378357,-0.30898454785346985,0.5297040939331055,-0.48772698640823364,-1.825380802154541
298,891856,891857,-0.26669272780418396,-0.0011757282773032784,1.07382071018219,-5.2272047996521,15.219300270080566,-6.325351238250732,-0.5519723892211914,-0.851957380771637,-0.3119843900203705,0.29806604981422424,-0.5294668674468994,-1.8893738985061646
299,891866,891867,-0.29956504702568054,0.02737184427678585,1.0553163290023804,8.347064971923828,23.210250854492188,-4.8325910568237305,-0.5684715509414673,-0.844457745552063,-0.2924853563308716,-0.029168421402573586,-0.46263524889945984,-1.9400105476379395
300,891876,891877,-0.12789492309093475,-0.08265914022922516,1.0508285760879517,24.618793487548828,26.512094497680664,-3.291740894317627,-0.5744712948799133,-0.8594570159912109,-0.3044847846031189,-0.17957618832588196,-0.22071141004562378,-2.0049054622650146
301,891886,891887,-0.03861994296312332,-0.15946108102798462,1.026814341545105,36.20458984375,20.900663375854492,-2.345242500305176,-0.5759711861610413,-0.8459576964378357,-0.3029848337173462,-0.4122101068496704,0.1766054630279541,-2.0393145084381104
302,891896,891897,-0.18556168675422668,-0.35765156149864197,1.0170328617095947,42.87571716308594,10.830788612365723,-2.1452391147613525,-0.5729713439941406,-0.8639568090438843,-0.3029848337173462,-0.4566948711872101,0.4218696653842926,-2.073256015777588
303,891906,891907,-0.17577962577342987,0.02581476978957653,0.984521746635437,40.89344024658203,0.026124898344278336,-2.0739617347717285,-0.5729713439941406,-0.8579570651054382,-0.3119843900203705,-0.5431604385375977,0.9353704452514648,-2.0969364643096924
304,891916,891917,-0.11948256939649582,-0.19321227073669434,0.9787188172340393,30.023088455200195,-9.826519966125488,-3.788224935531616,-0.5759711861610413,-0.8609569072723389,-0.30898454785346985,-0.4703378975391388,1.3862501382827759,-2.1237218379974365
305,891926,891927,-0.4259718060493469,-0.4932421147823334,1.0270506143569946,12.052024841308594,-15.710267066955566,-6.620772361755371,-0.5759711861610413,-0.8669566512107849,-0.3059847056865692,-0.3005257546901703,1.3810075521469116,-2.190089464187622
306,891936,891937,-0.5531989932060242,-0.38739490509033203,1.0092602968215942,-10.88806438446045,-20.14151382446289,-9.391499519348145,-0.5639718174934387,-0.8579570651054382,-0.30898454785346985,-0.050571784377098083,1.3182613849639893,-2.2744898796081543
307,891946,891947,-0.3582126796245575,-0.15597829222679138,1.05400812625885,-27.74584197998047,-20.975982666015625,-12.112966537475586,-0.554972231388092,-0.8669566512107849,-0.31798410415649414,0.024441417306661606,1.1474682092666626,-2.387192487716675
308,891956,891957,-0.2730056643486023,-0.3269069790840149,1.0662282705307007,-36.61466979980469,-17.33445167541504,-15.348637580871582,-0.5504724383354187,-0.8684565424919128,-0.3164841830730438,0.2268247753381729,0.7019778490066528,-2.531662940979004
309,891966,891967,-0.3196253776550293,-0.32870420813560486,1.0299170017242432,-33.79483413696289,-10.463991165161133,-17.167421340942383,-0.5609719157218933,-0.8729563355445862,-0.3149842321872711,0.2853330075740814,0.3027814030647278,-2.7050225734710693
310,891976,891977,-0.13085918128490448,-0.039234500378370285,1.0684598684310913,-23.536897659301758,0.8325152397155762,-17.202980041503906,-0.5534723401069641,-0.8474575877189636,-0.3014849126338959,0.25583159923553467,0.14846143126487732,-2.883385419845581
311,891986,891987,-0.06039037927985191,-0.05695146694779396,1.0748096704483032,-2.3890843391418457,8.37876033782959,-15.282419204711914,-0.562471866607666,-0.844457745552063,-0.31048446893692017,0.15883184969425201,0.047797974199056625,-3.060868978500366
312,891996,891997,-0.8641592264175415,-0.34776541590690613,1.0148358345031738,20.127010345458984,13.962257385253906,-12.17976188659668,-0.5729713439941406,-0.8579570651054382,-0.3119843900203705,0.030497957020998,0.25410282611846924,-3.1982412338256836
313,892006,892007,-1.064820647239685,-0.21258071064949036,0.9938162565231323,38.10829544067383,18.88447380065918,-9.79587173461914,-0.577471137046814,-0.8564571738243103,-0.3134843111038208,-0.07216224819421768,0.7509230375289917,-3.30243182182312
314,892016,892017,-0.507088840007782,-0.1822107583284378,0.9485897421836853,48.03711700439453,19.433765411376953,-5.84383487701416,-0.5789710283279419,-0.8699564933776855,-0.3209839463233948,-0.24506482481956482,1.1173653602600098,-3.387406587600708
315,892026,892027,-0.16089968383312225,-0.29821786284446716,0.9656959176063538,44.35863494873047,13.77037239074707,-1.8816039562225342,-0.5864706635475159,-0.8654567003250122,-0.31948402523994446,-0.44674333930015564,1.5954861640930176,-3.4336540699005127
316,892036,892037,0.01067271176725626,-0.1977039873600006,1.0035840272903442,25.364456176757812,4.871140480041504,3.5683727264404297,-0.5879706144332886,-0.8729563355445862,-0.3209839463233948,-0.615744411945343,1.9531890153884888,-3.443504571914673
317,892046,892047,-0.1889292150735855,-0.6103358268737793,1.0426337718963623,-4.683963298797607,-5.892967700958252,6.511729717254639,-0.5834708213806152,-0.8534573316574097,-0.3164841830730438,-0.6120167970657349,1.8674683570861816,-3.4039618968963623
318,892056,892057,-0.8371388912200928,-0.5890683531761169,1.0003165006637573,-32.43473434448242,-16.12148666381836,8.458719253540039,-0.5669716596603394,-0.8639568090438843,-0.2969851493835449,-0.41442355513572693,1.6009186506271362,-3.327524423599243
319,892066,892067,-0.4874553382396698,-0.29367032647132874,1.0025774240493774,-56.977474212646484,-23.041399002075195,9.896042823791504,-0.554972231388092,-0.8639568090438843,-0.3119843900203705,-0.11481264233589172,1.3020493984222412,-3.216932773590088
320,892076,892077,-0.2368299961090088,-0.00737392995506525,1.0036301612854004,-66.13691711425781,-22.45148277282715,10.331833839416504,-0.5564721822738647,-0.8564571738243103,-0.29848507046699524,0.17404691874980927,0.5098842978477478,-3.1225523948669434
321,892086,892087,-0.13494309782981873,-0.16162730753421783,0.9828975200653076,-61.077266693115234,-16.687589645385742,10.365341186523438,-0.5579720735549927,-0.8489575386047363,-0.3119843900203705,0.1831641048192978,-0.3011174499988556,-3.0717220306396484
322,892096,892097,-0.2725358009338379,-0.17055171728134155,1.0215764045715332,-48.59696960449219,-9.97829532623291,9.204376220703125,-0.5669716596603394,-0.8399580121040344,-0.3149842321872711,0.3827570974826813,-0.5376282334327698,-2.9405765533447266
323,892106,892107,-0.6959398984909058,-0.037213630974292755,1.0783942937850952,-19.19870948791504,1.0552877187728882,7.351701259613037,-0.5609719157218933,-0.8489575386047363,-0.3059847056865692,0.26982614398002625,-0.8611478209495544,-2.8823914527893066
324,892116,892117,-0.24013526737689972,-0.012158498167991638,1.0708736181259155,12.930526733398438,11.07478141784668,6.482241630554199,-0.5519723892211914,-0.8399580121040344,-0.3029848337173462,0.24025122821331024,-0.8749580979347229,-2.808654546737671
325,892126,892127,-0.36928829550743103,-0.17877712845802307,1.0082643032073975,36.5218505859375,17.03277587890625,5.015842437744141,-0.5759711861610413,-0.8429578542709351,-0.2969851493835449,-0.006394390016794205,-0.5340379476547241,-2.764350175857544
326,892136,892137,-0.6699768900871277,-0.15522116422653198,0.9474408626556396,44.6754035949707,15.822696685791016,1.7719178199768066,-0.5759711861610413,-0.8549572229385376,-0.3149842321872711,-0.26892516016960144,-0.02031189203262329,-2.728834867477417
327,892146,892147,-0.7822415828704834,-0.13551118969917297,0.9384960532188416,38.77704620361328,11.010891914367676,-1.0301885604858398,-0.5864706635475159,-0.850457489490509,-0.3134843111038208,-0.20336566865444183,0.35848474502563477,-2.6958301067352295
328,892156,892157,-0.36864733695983887,-0.11036934703588486,0.9417043924331665,29.7220516204834,5.2979841232299805,-2.4370415210723877,-0.5894705057144165,-0.8474575877189636,-0.3014849126338959,-0.3479873538017273,0.7595477104187012,-2.7122087478637695
329,892166,892167,-0.12624509632587433,-0.14142507314682007,0.9455408453941345,14.327596664428711,0.3616202771663666,-1.718618392944336,-0.5879706144332886,-0.8429578542709351,-0.2969851493835449,-0.25151196122169495,0.8917251229286194,-2.727318286895752
330,892176,892177,-0.09263118356466293,-0.1475232094526291,0.951720654964447,-2.3895044326782227,-7.602125644683838,-1.4811432361602783,-0.5759711861610413,-0.8429578542709351,-0.2969851493835449,-0.1376119703054428,0.9611462950706482,-2.7296993732452393
331,892186,892187,-0.3653222918510437,0.0043775951489806175,0.98916095495224,-12.8296480178833,-12.645610809326172,1.3542654514312744,-0.5594720244407654,-0.8354582190513611,-0.3134843111038208,-0.12232328951358795,0.8804746866226196,-2.7469985485076904
332,892196,892197,-0.4865657091140747,-0.05094357952475548,1.0033552646636963,-17.035791397094727,-14.1708402633667,4.702949523925781,-0.5609719157218933,-0.8429578542709351,-0.3209839463233948,0.024717004969716072,0.6840980648994446,-2.7270100116729736
333,892206,892207,-0.42900896072387695,-0.21982088685035706,1.0117329359054565,-16.62452507019043,-13.019269943237305,7.395144462585449,-0.5654717087745667,-0.8474575877189636,-0.29848507046699524,0.16250048577785492,0.46318739652633667,-2.6729912757873535
334,892216,892217,-0.7486733198165894,-0.27088019251823425,1.000239610671997,-14.542421340942383,-10.16374683380127,12.677695274353027,-0.5609719157218933,-0.8459576964378357,-0.3059847056865692,0.32208696007728577,0.39790311455726624,-2.574558734893799
335,892226,892227,-0.3934137523174286,-0.27899065613746643,0.995513916015625,-14.720074653625488,-3.449779748916626,17.252058029174805,-0.5504724383354187,-0.850457489490509,-0.3134843111038208,0.36352959275245667,0.2845430374145508,-2.4345593452453613
336,892236,892237,-0.166624054312706,-0.15372219681739807,0.9822523593902588,-15.65576457977295,-0.9995079040527344,19.266796112060547,-0.5759711861610413,-0.836958110332489,-0.30898454785346985,0.3206445574760437,0.15483608841896057,-2.259632110595703
337,892246,892247,-0.11948801577091217,0.12981785833835602,1.033815622329712,-16.568660736083984,-0.38801318407058716,21.062623977661133,-0.5519723892211914,-0.8309584259986877,-0.28798559308052063,0.33057424426078796,0.006579024717211723,-2.062128782272339
338,892256,892257,-0.16333432495594025,0.1381387561559677,0.9947636127471924,-17.484296798706055,0.2773464322090149,20.256065368652344,-0.5594720244407654,-0.8354582190513611,-0.2954852283000946,0.33471477031707764,-0.29746124148368835,-1.854288101196289
339,892266,892267,-0.1836867481470108,-0.0758538767695427,1.0052003860473633,-15.576131820678711,-1.881261944770813,18.560020446777344,-0.5594720244407654,-0.8354582190513611,-0.2954852283000946,0.3566782474517822,-0.504525899887085,-1.6536550521850586
340,892276,892277,-0.1418876349925995,-0.19355006515979767,0.9914961457252502,-4.973015785217285,-6.496028423309326,18.98133087158203,-0.5594720244407654,-0.8354582190513611,-0.2954852283000946,0.39349275827407837,-0.6278935074806213,-1.4673247337341309
341,892286,892287,-0.22322845458984375,-0.00323260435834527,0.9746615290641785,9.690755844116211,-10.102429389953613,20.61602783203125,-0.5639718174934387,-0.8459576964378357,-0.2939853072166443,0.5153377056121826,-0.4492880702018738,-1.2688783407211304
342,892296,892297,-0.18765123188495636,0.03515332564711571,0.981873095035553,16.266010284423828,-6.548370361328125,22.55656623840332,-0.5594720244407654,-0.8474575877189636,-0.31048446893692017,0.6941776275634766,-0.32193222641944885,-1.0482984781265259
343,892306,892307,-0.1703370064496994,0.05908392369747162,1.0327867269515991,19.94485092163086,-1.8453586101531982,22.894176483154297,-0.5654717087745667,-0.8414579033851624,-0.3044847846031189,0.7425538301467896,-0.05609545484185219,-0.819839596748352
344,892316,892317,-0.056577540934085846,0.13399221003055573,1.024351716041565,16.186195373535156,2.5031211376190186,22.721126556396484,-0.5429728627204895,-0.8549572229385376,-0.3119843900203705,0.7137101292610168,0.0017687954241409898,-0.5877487063407898
345,892326,892327,-0.05466067045927048,0.09431383013725281,1.0264447927474976,9.77822494506836,2.023106813430786,23.627897262573242,-0.5474725961685181,-0.850457489490509,-0.3134843111038208,0.6483873724937439,0.12408541142940521,-0.35670092701911926
346,892336,892337,-0.0971405953168869,-0.03434513136744499,1.01621675491333,0.42754679918289185,8.641653060913086,24.54271125793457,-0.5564721822738647,-0.8594570159912109,-0.3044847846031189,0.6993147134780884,0.18833205103874207,-0.11392571032047272
347,892346,892347,-0.16460473835468292,0.013217908330261707,1.007409930229187,-5.534878730773926,9.520940780639648,23.643564224243164,-0.5504724383354187,-0.850457489490509,-0.31948402523994446,0.5051520466804504,-0.02082238160073757,0.13742049038410187
348,892356,892357,-0.13386449217796326,-0.00874676275998354,0.9918664693832397,-10.596749305725098,14.772086143493652,22.209476470947266,-0.5534723401069641,-0.844457745552063,-0.3044847846031189,0.2908615469932556,-0.09468883275985718,0.3656444847583771
349,892366,892367,-0.5195506811141968,0.04433254897594452,1.0243496894836426,-12.525980949401855,17.315509796142578,21.763818740844727,-0.5504724383354187,-0.8564571738243103,-0.29848507046699524,0.22552672028541565,0.12360918521881104,0.5726122260093689
350,892376,892377,-0.72789466381073,-0.20639722049236298,1.02937912940979,-14.183454513549805,16.67894172668457,21.833786010742188,-0.5489725470542908,-0.836958110332489,-0.3029848337173462,0.0034121156204491854,-0.12242566794157028,0.7933400869369507
351,892386,892387,-0.18814803659915924,-0.07122914493083954,0.9785756468772888,-16.421079635620117,15.1589994430542,21.732778549194336,-0.5594720244407654,-0.8414579033851624,-0.29848507046699524,-0.07537245005369186,-0.31971898674964905,1.0154439210891724
352,892396,892397,-0.0931660532951355,-0.02951067127287388,1.0173474550247192,-13.25794506072998,14.829421043395996,22.809720993041992,-0.5579720735549927,-0.836958110332489,-0.3119843900203705,-0.4639427065849304,-0.5859407186508179,1.236454963684082
353,892406,892407,-0.07789067178964615,0.07824600487947464,1.0106209516525269,-6.203790187835693,16.08500099182129,24.858652114868164,-0.554972231388092,-0.8339582681655884,-0.2939853072166443,-0.5003687739372253,-0.5386956930160522,1.468084454536438
354,892416,892417,-0.08155879378318787,-0.060038525611162186,1.0253580808639526,-1.0998737812042236,18.232343673706055,25.09314727783203,-0.56997150182724,-0.8429578542709351,-0.3119843900203705,-0.6963523626327515,-0.5287197828292847,1.7187519073486328
355,892426,892427,-0.012060589157044888,-0.03996486961841583,1.0473310947418213,-2.8411195278167725,12.64226245880127,25.248353958129883,-0.5669716596603394,-0.836958110332489,-0.2939853072166443,-0.8949704766273499,-0.573246419429779,1.9683146476745605
356,892436,892437,0.02095206268131733,-0.004192693158984184,1.0301971435546875,-5.953469276428223,3.4760100841522217,25.070354461669922,-0.5654717087745667,-0.8384580612182617,-0.31048446893692017,-0.7599925994873047,-0.583265483379364,2.215801477432251
357,892446,892447,-0.14005139470100403,-0.014250081963837147,1.0330307483673096,-5.892526149749756,-3.2674012184143066,23.425643920898438,-0.56997150182724,-0.8429578542709351,-0.2939853072166443,-0.7164197564125061,-0.7007118463516235,2.459794521331787
358,892456,892457,-0.2765204906463623,-0.014704822562634945,1.0243194103240967,-4.866015434265137,-7.585933208465576,20.2786865234375,-0.5639718174934387,-0.8249587416648865,-0.3029848337173462,-0.6482347846031189,-0.7257014513015747,2.688775062561035
359,892466,892467,-0.17979665100574493,-0.060990892350673676,0.9987632632255554,2.517500877380371,-13.817753791809082,16.69327163696289,-0.554972231388092,-0.8339582681655884,-0.2939853072166443,-0.4922657012939453,-0.761623740196228,2.8802149295806885
360,892476,892477,-0.08320073783397675,-0.03465207293629646,1.0141345262527466,5.913946628570557,-13.857900619506836,13.499239921569824,-0.5729713439941406,-0.8279585838317871,-0.28798559308052063,-0.29926371574401855,-0.6973087191581726,3.0385968685150146
361,892486,892487,-0.013308572582900524,-0.03270789235830307,0.9756535291671753,10.362975120544434,-10.771063804626465,11.005313873291016,-0.5534723401069641,-0.8354582190513611,-0.3044847846031189,-0.27292290329933167,-0.5783498883247375,3.1757309436798096
362,892496,892497,-0.0579182431101799,0.23582233488559723,0.9933798909187317,11.061433792114258,-4.8896050453186035,8.60992431640625,-0.5609719157218933,-0.8279585838317871,-0.2969851493835449,-0.2972658574581146,-0.4768167734146118,3.2896151542663574
363,892506,892507,-0.010921135544776917,0.13476727902889252,0.9988086223602295,7.501557350158691,-1.0867512226104736,5.137244701385498,-0.5579720735549927,-0.8219588994979858,-0.29998499155044556,-0.2573260962963104,-0.3967057764530182,3.3610434532165527
364,892516,892517,0.0003478834987618029,-0.005325926002115011,0.982053816318512,4.474015712738037,5.298154830932617,2.8081014156341553,-0.5639718174934387,-0.8339582681655884,-0.3029848337173462,-0.30988383293151855,-0.3289002776145935,3.4064648151397705
365,892526,892527,-0.32249367237091064,-0.49551934003829956,1.004715085029602,4.458413600921631,11.240072250366211,-0.24706003069877625,-0.5609719157218933,-0.8249587416648865,-0.28798559308052063,-0.2567945122718811,-0.40909481048583984,3.4027671813964844
366,892536,892537,-0.19296811521053314,-0.09533301740884781,1.0599855184555054,2.439423084259033,16.41206932067871,-4.268329620361328,-0.5684715509414673,-0.8264586329460144,-0.2954852283000946,-0.4345535933971405,-0.35270121693611145,3.3911538124084473
367,892546,892547,-0.06667438894510269,0.10730650275945663,1.0484317541122437,-2.0261242389678955,18.091541290283203,-7.126171112060547,-0.5729713439941406,-0.8219588994979858,-0.2969851493835449,-0.6623740196228027,-0.3491816520690918,3.342508316040039
368,892556,892557,-0.2358412742614746,-0.013487999327480793,1.0547761917114258,-6.59296178817749,14.823182106018066,-8.972002983093262,-0.5654717087745667,-0.8324583768844604,-0.2924853563308716,-0.7984715104103088,-0.5573257803916931,3.243176221847534
369,892566,892567,-0.19379261136054993,-0.4267750084400177,0.9667962789535522,-13.265998840332031,9.73480224609375,-9.057900428771973,-0.5579720735549927,-0.8309584259986877,-0.2969851493835449,-0.9349014163017273,-0.639950156211853,3.152181625366211
370,892576,892577,-0.19177024066448212,-0.35773250460624695,0.9428122639656067,-17.13274383544922,6.48512601852417,-8.577666282653809,-0.5714713931083679,-0.8324583768844604,-0.2924853563308716,-0.9309493899345398,-0.740595817565918,3.059892416000366
371,892586,892587,-0.22445067763328552,-0.07977542281150818,0.9696380496025085,-17.548919677734375,4.6467108726501465,-10.553409576416016,-0.5609719157218933,-0.8159592151641846,-0.29098543524742126,-1.0469412803649902,-0.9509692192077637,2.967264413833618
372,892596,892597,-0.14442646503448486,-0.050641875714063644,0.9968921542167664,-7.908958911895752,4.98394250869751,-11.436103820800781,-0.5684715509414673,-0.8174591064453125,-0.2864856719970703,-0.9992604851722717,-1.0864323377609253,2.849217414855957
373,892606,892607,-0.19002047181129456,0.03313973918557167,1.0299056768417358,7.343409538269043,9.187899589538574,-9.40160083770752,-0.562471866607666,-0.8204589486122131,-0.2954852283000946,-1.057104468345642,-1.0799540281295776,2.7443323135375977
374,892616,892617,-0.06069641560316086,-0.024036955088377,1.014297604560852,22.20907211303711,9.982355117797852,-6.953252792358398,-0.5744712948799133,-0.8354582190513611,-0.2864856719970703,-1.2348281145095825,-0.8130420446395874,2.6875202655792236
375,892626,892627,0.01059429906308651,-0.009454789571464062,0.995488703250885,30.430622100830078,4.367847442626953,-6.42588996887207,-0.562471866607666,-0.8234587907791138,-0.2924853563308716,-1.2745126485824585,-0.5861570239067078,2.6081128120422363
376,892636,892637,-0.010647841729223728,0.057195138186216354,0.994840681552887,32.300148010253906,-4.045738697052002,-5.844932556152344,-0.5804709792137146,-0.8324583768844604,-0.29848507046699524,-1.2746851444244385,-0.27713823318481445,2.5407345294952393
377,892646,892647,-0.33668893575668335,-0.07052837312221527,0.9948177337646484,29.18425750732422,-10.217939376831055,-3.0883021354675293,-0.56997150182724,-0.8279585838317871,-0.3029848337173462,-1.085878610610962,0.16313031315803528,2.4979703426361084
378,892656,892657,-0.1990005224943161,-0.05141020566225052,0.9831750392913818,19.231258392333984,-16.300844192504883,0.05480961501598358,-0.5669716596603394,-0.8339582681655884,-0.3029848337173462,-0.9644765257835388,0.27837663888931274,2.449719190597534
379,892666,892667,-0.08489754796028137,-0.004727966617792845,0.9535313248634338,5.928907871246338,-17.136255264282227,2.209026575088501,-0.5519723892211914,-0.8279585838317871,-0.2969851493835449,-0.6940345764160156,0.357307493686676,2.4341588020324707
380,892676,892677,-0.06850382685661316,-0.07257308065891266,0.9524388909339905,-9.64410400390625,-18.196563720703125,2.891162872314453,-0.5684715509414673,-0.8354582190513611,-0.3014849126338959,-0.5059054493904114,0.3454658091068268,2.4499831199645996
381,892686,892687,-0.0716753751039505,0.009127836674451828,0.9154378175735474,-21.793970108032227,-11.247554779052734,1.8343336582183838,-0.5594720244407654,-0.8264586329460144,-0.2954852283000946,-0.2664605677127838,0.04463879019021988,2.44299054145813
382,892696,892697,-0.11452297866344452,-0.22169585525989532,0.9224051237106323,-27.002338409423828,-4.21886682510376,0.11806245148181915,-0.5534723401069641,-0.8384580612182617,-0.30748462677001953,-0.3698708415031433,-0.26289600133895874,2.4534058570861816
383,892706,892707,-0.14323636889457703,-0.21786783635616302,0.940058708190918,-25.75861167907715,4.486958026885986,-0.9842851161956787,-0.5519723892211914,-0.8279585838317871,-0.2969851493835449,-0.3854706287384033,-0.5953490138053894,2.4402408599853516
384,892716,892717,-0.20868973433971405,-0.06063687428832054,0.9675589203834534,-16.189102172851562,14.834835052490234,-2.916595458984375,-0.5609719157218933,-0.8219588994979858,-0.2969851493835449,-0.5689557790756226,-0.6989176869392395,2.4457504749298096
385,892726,892727,-0.0872669368982315,0.033614903688430786,0.972459614276886,-0.9853067398071289,22.31121253967285,-4.937547206878662,-0.5609719157218933,-0.8219588994979858,-0.3029848337173462,-0.7470940351486206,-0.7376075387001038,2.4200103282928467
386,892736,892737,-0.38879913091659546,0.10445810854434967,0.9992853999137878,15.75389575958252,18.475265502929688,-7.319169044494629,-0.562471866607666,-0.8384580612182617,-0.28948551416397095,-1.0249806642532349,-0.5797961950302124,2.380384683609009
387,892746,892747,-0.291879266500473,0.12281884253025055,1.0378812551498413,24.458505630493164,7.54268217086792,-9.895650863647461,-0.5669716596603394,-0.8309584259986877,-0.2969851493835449,-1.2392030954360962,-0.3746499717235565,2.302783489227295
388,892756,892757,-0.06910774856805801,0.049098193645477295,1.046818733215332,30.007369995117188,-3.186718225479126,-11.853177070617676,-0.5804709792137146,-0.850457489490509,-0.2954852283000946,-1.2573955059051514,-0.19745774567127228,2.1793160438537598
389,892766,892767,-0.010729862377047539,-0.1241535022854805,0.9922424554824829,27.31401252746582,-10.798710823059082,-14.314896583557129,-0.5594720244407654,-0.850457489490509,-0.31048446893692017,-1.0513417720794678,0.2171960175037384,2.0624983310699463
390,892776,892777,-0.18420471251010895,-0.12327741086483002,0.9921182990074158,25.954647064208984,-17.667631149291992,-14.775763511657715,-0.5684715509414673,-0.844457745552063,-0.30748462677001953,-0.9025220274925232,0.45582589507102966,1.9048128128051758
391,892786,892787,-0.4043808579444885,-0.08239618688821793,0.977557897567749,20.284494400024414,-17.964982986450195,-14.206521034240723,-0.562471866607666,-0.850457489490509,-0.3164841830730438,-0.6113735437393188,0.6357637047767639,1.7418490648269653
392,892796,892797,-0.22884725034236908,-0.05741797015070915,1.0285654067993164,12.448338508605957,-17.75579261779785,-11.866717338562012,-0.5609719157218933,-0.851957380771637,-0.2939853072166443,-0.6037214994430542,0.709387481212616,1.5904418230056763
393,892806,892807,-0.8078572750091553,-0.20483706891536713,1.0403820276260376,5.413110256195068,-12.563583374023438,-9.537640571594238,-0.56997150182724,-0.8489575386047363,-0.3029848337173462,-0.3509155809879303,0.8141255974769592,1.4764231443405151
394,892816,892817,-0.5838894248008728,-0.3429395258426666,0.9316763281822205,-0.992618203163147,-3.826267957687378,-7.775373935699463,-0.5459727048873901,-0.836958110332489,-0.30898454785346985,-0.3600786328315735,0.8642722368240356,1.3875116109848022
395,892826,892827,-0.38113582134246826,-0.24718840420246124,0.931770384311676,-3.6920745372772217,2.1807329654693604,-5.382223606109619,-0.56997150182724,-0.8399580121040344,-0.29998499155044556,-0.3486490249633789,0.8437814712524414,1.3171184062957764
396,892836,892837,-0.37597763538360596,-0.07349693775177002,0.916559636592865,-6.21504020690918,0.4827353060245514,-3.560595750808716,-0.5564721822738647,-0.8414579033851624,-0.30748462677001953,-0.36726394295692444,0.7815845608711243,1.265969157218933
397,892846,892847,-0.2562292516231537,-0.11472688615322113,0.9428386688232422,-7.072005271911621,-4.422399997711182,-3.188538074493408,-0.5534723401069641,-0.8474575877189636,-0.3044847846031189,-0.39835843443870544,0.6888169646263123,1.2220652103424072
398,892856,892857,-0.3706021308898926,-0.3245128095149994,0.9615664482116699,-7.758427619934082,-5.816958427429199,-1.561570644378662,-0.5609719157218933,-0.8459576964378357,-0.3149842321872711,-0.3585822284221649,0.5919527411460876,1.1902811527252197
399,892866,892867,-1.3437697887420654,-0.7917933464050293,1.0217108726501465,-7.921268939971924,-4.631978511810303,0.6181854605674744,-0.5579720735549927,-0.8399580121040344,-0.29998499155044556,-0.2521107494831085,0.4145914316177368,1.1752139329910278
400,892876,892877,-0.6573079228401184,-0.3440009355545044,1.0152111053466797,-10.383056640625,-2.6660165786743164,2.165740489959717,-0.5564721822738647,-0.850457489490509,-0.3044847846031189,-0.19046379625797272,0.3646050691604614,1.1915783882141113
401,892886,892887,-0.31915605068206787,-0.1064632385969162,0.9977805018424988,-12.618014335632324,-1.4403153657913208,3.097693681716919,-0.5564721822738647,-0.850457489490509,-0.3014849126338959,-0.14411434531211853,0.2754252851009369,1.2185615301132202
402,892896,892897,-0.3445495069026947,-0.025237996131181717,1.0327986478805542,-8.127449989318848,-1.0034273862838745,4.918068885803223,-0.5609719157218933,-0.8459576964378357,-0.2969851493835449,-0.20054872334003448,0.39886701107025146,1.2650364637374878
403,892906,892907,-0.18232592940330505,0.04855368658900261,1.0029363632202148,-5.548499584197998,-0.31366631388664246,3.49338698387146,-0.5609719157218933,-0.8639568090438843,-0.3149842321872711,-0.17546772956848145,0.29365965723991394,1.3127901554107666
404,892916,892917,-0.08214078098535538,-0.013757987879216671,0.9565697312355042,-4.555415153503418,0.61971116065979,1.6409164667129517,-0.5654717087745667,-0.8684565424919128,-0.3014849126338959,-0.1365279257297516,0.23677006363868713,1.342907190322876
405,892926,892927,-0.559157133102417,-0.015368164516985416,0.9618229269981384,-6.181701183319092,0.6464823484420776,-0.44967007637023926,-0.5459727048873901,-0.8579570651054382,-0.2969851493835449,-0.07731398940086365,0.1550578773021698,1.3579578399658203
406,892936,892937,-0.38637369871139526,-0.18475045263767242,0.9368163347244263,-8.095210075378418,-0.5613897442817688,-2.582656145095825,-0.5459727048873901,-0.8549572229385376,-0.3059847056865692,-0.15602685511112213,0.18688316643238068,1.345956802368164
407,892946,892947,-0.09108243137598038,-0.02945435605943203,0.9528461694717407,-3.6270387172698975,-10.402311325073242,-1.194654107093811,-0.5504724383354187,-0.850457489490509,-0.3164841830730438,-0.06584175676107407,0.08634347468614578,1.3280727863311768
408,892956,892957,0.004513127729296684,0.23685680329799652,0.9975510239601135,0.16585439443588257,-14.004006385803223,0.9255407452583313,-0.5609719157218933,-0.851957380771637,-0.3059847056865692,0.001548732747323811,0.062481146305799484,1.3178603649139404
409,892966,892967,-0.20393145084381104,-0.07011151313781738,1.0328004360198975,5.693224906921387,-12.257036209106445,2.0415656566619873,-0.5474725961685181,-0.8594570159912109,-0.31948402523994446,0.16309091448783875,0.1252451241016388,1.3344382047653198
410,892976,892977,-0.24045749008655548,-0.18436704576015472,1.0404527187347412,11.721415519714355,-7.856575965881348,2.435270071029663,-0.5609719157218933,-0.8609569072723389,-0.3059847056865692,0.18181902170181274,0.19133958220481873,1.3494561910629272
411,892986,892987,-0.2361656129360199,-0.02414347417652607,1.024498462677002,12.079938888549805,-3.5961806774139404,3.076085090637207,-0.5609719157218933,-0.8609569072723389,-0.3059847056865692,0.27931973338127136,0.31436529755592346,1.3768659830093384
412,892996,892997,-0.31109559535980225,0.0504840686917305,0.9901044964790344,5.973557949066162,-0.6181120872497559,1.1715775728225708,-0.5609719157218933,-0.8609569072723389,-0.3059847056865692,0.24306339025497437,0.4049043357372284,1.3977402448654175
413,893006,893007,-1.3075422048568726,-0.2520694434642792,0.9895725846290588,-5.160305976867676,2.6532487869262695,-1.3116449117660522,-0.5474725961685181,-0.8624568581581116,-0.3254837095737457,0.23358109593391418,0.4115625023841858,1.405011773109436
414,893016,893017,-1.1564058065414429,-0.8061844706535339,1.0295133590698242,-14.237914085388184,1.4472683668136597,-2.394348382949829,-0.5459727048873901,-0.8489575386047363,-0.3119843900203705,0.2100256383419037,0.23465198278427124,1.3892343044281006
415,893026,893027,-0.5084496736526489,-0.6021940112113953,1.0358672142028809,-17.425674438476562,-4.270340442657471,-1.0253187417984009,-0.562471866607666,-0.8624568581581116,-0.31048446893692017,0.24137243628501892,0.11660914868116379,1.3696815967559814
416,893036,893037,-0.1046481728553772,-0.38013148307800293,1.0003420114517212,-17.17340087890625,-7.514468669891357,1.394924521446228,-0.5534723401069641,-0.8564571738243103,-0.3134843111038208,0.3522113263607025,-0.09144876152276993,1.3721659183502197
417,893046,893047,-0.1144629418849945,-0.018148135393857956,1.0018891096115112,-10.476716041564941,-4.024499893188477,3.4514472484588623,-0.5399730205535889,-0.836958110332489,-0.3059847056865692,0.38517263531684875,-0.17649219930171967,1.3901253938674927
418,893056,893057,-0.11989051848649979,0.21579515933990479,1.052856206893921,-1.8463859558105469,1.0358656644821167,4.5097246170043945,-0.5534723401069641,-0.8414579033851624,-0.3134843111038208,0.34519240260124207,-0.34463080763816833,1.4289498329162598
419,893066,893067,-0.0680486410856247,0.09120240807533264,1.0750069618225098,6.3837456703186035,3.9179418087005615,6.205059051513672,-0.5399730205535889,-0.8459576964378357,-0.31798410415649414,0.31127655506134033,-0.2880570590496063,1.4775974750518799
420,893076,893077,-0.05652422830462456,-0.051682982593774796,1.0497266054153442,13.879439353942871,4.605050086975098,6.197454452514648,-0.5534723401069641,-0.8354582190513611,-0.29848507046699524,0.2509514093399048,-0.11630581319332123,1.5335794687271118
421,893086,893087,-0.08609437942504883,-0.08169353008270264,1.0454877614974976,17.45663833618164,7.720001220703125,6.80958890914917,-0.5534723401069641,-0.8474575877189636,-0.3014849126338959,0.16501979529857635,0.14174844324588776,1.5915045738220215
422,893096,893097,-0.1436292827129364,0.0339345745742321,1.0632554292678833,21.665184020996094,10.327217102050781,6.78965950012207,-0.5519723892211914,-0.8459576964378357,-0.3029848337173462,0.11142794787883759,0.17490293085575104,1.6711583137512207
423,893106,893107,-0.08013248443603516,0.10434739291667938,1.0362287759780884,20.207923889160156,11.96292495727539,6.364696979522705,-0.5594720244407654,-0.8534573316574097,-0.31048446893692017,-0.055711377412080765,0.536056399345398,1.7298940420150757
424,893116,893117,-0.03473278135061264,-0.047881901264190674,1.0405577421188354,13.174821853637695,3.50193190574646,4.95989990234375,-0.5564721822738647,-0.8384580612182617,-0.3044847846031189,-0.03132809326052666,0.5919356346130371,1.80238676071167
425,893126,893127,-0.14602422714233398,0.050248388200998306,1.047752022743225,3.5234997272491455,-4.563833713531494,3.9754252433776855,-0.554972231388092,-0.8549572229385376,-0.3149842321872711,-0.09048599749803543,0.7342357039451599,1.8491737842559814
426,893136,893137,-0.03476487100124359,-0.07628452777862549,0.983826756477356,-3.9292826652526855,-14.06184196472168,5.604424953460693,-0.554972231388092,-0.8549572229385376,-0.3029848337173462,0.07584524154663086,0.5709254741668701,1.9067944288253784
427,893146,893147,-0.18404072523117065,-0.10862211883068085,0.9983416199684143,-3.5055418014526367,-15.257481575012207,6.521857261657715,-0.5534723401069641,-0.8354582190513611,-0.3014849126338959,0.25441768765449524,0.5867760181427002,1.9632954597473145
428,893156,893157,-0.15032759308815002,-0.010558822192251682,0.9940985441207886,-3.4692182540893555,-10.506794929504395,7.183847904205322,-0.5534723401069641,-0.8564571738243103,-0.30748462677001953,0.40364450216293335,0.5348168015480042,2.033111810684204
429,893166,893167,-0.47979655861854553,0.05038066580891609,0.9872443079948425,-1.7340631484985352,-9.347962379455566,8.071328163146973,-0.5609719157218933,-0.8429578542709351,-0.30898454785346985,0.3501150906085968,0.4897578954696655,2.0940098762512207
430,893176,893177,-0.2723388373851776,-0.03394331783056259,0.9882506132125854,-2.4438602924346924,-5.6217193603515625,8.781886100769043,-0.5579720735549927,-0.8339582681655884,-0.2939853072166443,0.48983830213546753,0.4643089175224304,2.1803083419799805
431,893186,893187,-0.14256691932678223,0.02619072236120701,1.0147429704666138,-2.7929883003234863,-4.24569845199585,8.14579963684082,-0.562471866607666,-0.8294585347175598,-0.3044847846031189,0.5612729787826538,0.4302457571029663,2.2684271335601807
432,893196,893197,-0.04855141416192055,0.09161149710416794,0.9974395632743835,-6.383734226226807,-0.5657173991203308,8.328288078308105,-0.5489725470542908,-0.8279585838317871,-0.30898454785346985,0.5482881665229797,0.36928415298461914,2.3487606048583984
433,893206,893207,-0.16600194573402405,-0.01207035779953003,0.9943299889564514,-8.982622146606445,-2.403322696685791,7.696889877319336,-0.56997150182724,-0.8429578542709351,-0.30898454785346985,0.5787330865859985,0.2523006498813629,2.435729503631592
434,893216,893217,-0.21406716108322144,-0.04385372996330261,0.9720234870910645,-18.28716278076172,-0.6387007832527161,4.74897575378418,-0.5489725470542908,-0.8429578542709351,-0.29998499155044556,0.5988814830780029,0.040341611951589584,2.516383647918701
435,893226,893227,-0.2530631124973297,-0.3264327943325043,0.9982465505599976,-22.319074630737305,-2.5520222187042236,2.7011945247650146,-0.5519723892211914,-0.8339582681655884,-0.3059847056865692,0.6279789209365845,-0.06964363157749176,2.547022581100464
436,893236,893237,-0.39557579159736633,-0.14215683937072754,1.0092859268188477,-18.190549850463867,-4.129203796386719,1.358082890510559,-0.5504724383354187,-0.8234587907791138,-0.2954852283000946,0.6758996844291687,-0.32879456877708435,2.5733563899993896
437,893246,893247,-0.24244120717048645,0.016857821494340897,1.0227717161178589,-9.593926429748535,-2.050363063812256,0.9939218759536743,-0.5594720244407654,-0.8384580612182617,-0.3014849126338959,0.6686643958091736,-0.5425201058387756,2.593489170074463
438,893256,893257,-0.2891913056373596,-0.010167323984205723,1.0113638639450073,2.5869903564453125,0.5284036993980408,0.05534368008375168,-0.5579720735549927,-0.8399580121040344,-0.3029848337173462,0.700695812702179,-0.3879854679107666,2.5694406032562256
439,893266,893267,-0.1693200320005417,-0.08145292103290558,1.0102757215499878,13.479589462280273,6.642699718475342,-0.09336945414543152,-0.5474725961685181,-0.844457745552063,-0.2954852283000946,0.7158938050270081,-0.25942495465278625,2.5611138343811035
440,893276,893277,-0.06906150281429291,0.04245927557349205,1.028633713722229,23.36349868774414,10.357847213745117,-0.8085018992424011,-0.5579720735549927,-0.8279585838317871,-0.30898454785346985,0.6374911069869995,-0.11155005544424057,2.5609347820281982
441,893286,893287,-0.10665056109428406,-0.07196707278490067,1.021217703819275,27.775054931640625,9.524300575256348,-1.2611865997314453,-0.5534723401069641,-0.844457745552063,-0.29848507046699524,0.46643775701522827,0.23604081571102142,2.5367722511291504
442,893296,893297,-0.08099132031202316,-0.12259078770875931,0.9475449919700623,22.03786849975586,4.587060451507568,-3.1912336349487305,-0.5534723401069641,-0.8384580612182617,-0.2954852283000946,0.48276159167289734,0.4247971773147583,2.530040979385376
443,893306,893307,-0.1271258294582367,-0.02813386358320713,0.9301460981369019,16.653377532958984,-0.16821137070655823,-3.31719708442688,-0.5519723892211914,-0.836958110332489,-0.3059847056865692,0.43952476978302,0.6085900664329529,2.503871202468872
444,893316,893317,-0.10380871593952179,-0.011415400542318821,0.9681864380836487,10.652098655700684,0.8429630398750305,-1.013535737991333,-0.5609719157218933,-0.836958110332489,-0.2969851493835449,0.5760402679443359,0.7656772136688232,2.476250410079956
445,893326,893327,-0.07206274569034576,-0.0010620563989505172,0.9616398215293884,2.0957322120666504,8.082674980163574,0.573031485080719,-0.5579720735549927,-0.8429578542709351,-0.29998499155044556,0.4941626787185669,0.8104165196418762,2.4753756523132324
446,893336,893337,-0.28990980982780457,-0.10278597474098206,0.9420512318611145,-6.708761215209961,18.41950035095215,1.2676427364349365,-0.5654717087745667,-0.8384580612182617,-0.31048446893692017,0.4148852527141571,0.780035674571991,2.490704298019409
447,893346,893347,-0.7000634074211121,-0.42092812061309814,0.9785820841789246,-11.145313262939453,26.741247177124023,0.947788655757904,-0.5609719157218933,-0.8339582681655884,-0.2969851493835449,0.034863848239183426,0.6370379328727722,2.502399444580078
448,893356,893357,-0.28799763321876526,-0.26267826557159424,0.9752858877182007,-15.769414901733398,29.89930534362793,1.079867959022522,-0.5639718174934387,-0.836958110332489,-0.29098543524742126,-0.15087923407554626,0.49382638931274414,2.5248212814331055
449,893366,893367,-0.09589563310146332,-0.1858149617910385,0.9592687487602234,-19.20722007751465,30.123477935791016,0.17875517904758453,-0.5564721822738647,-0.8534573316574097,-0.2924853563308716,-0.43483662605285645,0.2870350480079651,2.5398268699645996
450,893376,893377,-0.1523829698562622,-0.05324568599462509,1.0001882314682007,-21.8624324798584,28.205642700195312,-0.7610498666763306,-0.5669716596603394,-0.8399580121040344,-0.30898454785346985,-0.8564186096191406,-0.041457608342170715,2.545441150665283
451,893386,893387,-0.2315584421157837,-0.005542410537600517,0.9867397546768188,-19.89919090270996,20.1577091217041,-1.3979021310806274,-0.56997150182724,-0.836958110332489,-0.2939853072166443,-1.1112192869186401,-0.2264949083328247,2.5317277908325195
452,893396,893397,-0.2759239673614502,0.0630728229880333,1.0099072456359863,-15.843507766723633,10.467802047729492,-2.577214241027832,-0.5609719157218933,-0.8309584259986877,-0.2969851493835449,-1.304800033569336,-0.3773690164089203,2.5122320652008057
453,893406,893407,-0.3405562937259674,-0.12578265368938446,1.0089670419692993,-6.811212062835693,-1.1541939973831177,-3.0293972492218018,-0.5744712948799133,-0.8294585347175598,-0.29848507046699524,-1.1779543161392212,-0.4951229989528656,2.4904816150665283
454,893416,893417,-0.3149133622646332,-0.1607043445110321,0.9655632376670837,5.9063286781311035,-13.336166381835938,-3.823162794113159,-0.5744712948799133,-0.8354582190513611,-0.2924853563308716,-1.0887231826782227,-0.5067787766456604,2.4599175453186035
455,893426,893427,-0.10230378061532974,0.04043422266840935,1.0009468793869019,17.504047393798828,-23.092180252075195,-3.972532033920288,-0.562471866607666,-0.844457745552063,-0.3014849126338959,-0.806850790977478,-0.3174774646759033,2.425891399383545
456,893436,893437,-0.04235538840293884,-0.028165169060230255,0.9759555459022522,26.591657638549805,-27.182540893554688,-1.846985101699829,-0.5579720735549927,-0.8459576964378357,-0.3059847056865692,-0.5498214960098267,-0.02813946083188057,2.396791696548462
457,893446,893447,-0.06328924000263214,0.042727332562208176,0.9742345213890076,26.010955810546875,-27.871376037597656,0.14756500720977783,-0.5654717087745667,-0.8534573316574097,-0.30748462677001953,-0.32122862339019775,0.2680045962333679,2.3847649097442627
458,893456,893457,-0.08075568825006485,-0.020272886380553246,0.9941911697387695,14.00446891784668,-25.477502822875977,0.9089050889015198,-0.5594720244407654,-0.8414579033851624,-0.3134843111038208,-0.0378740169107914,0.37951433658599854,2.3834946155548096
459,893466,893467,-0.26119062304496765,0.025846509262919426,0.9966776967048645,1.922683596611023,-19.145265579223633,1.8889151811599731,-0.5504724383354187,-0.8354582190513611,-0.3164841830730438,0.3251259922981262,0.3835313320159912,2.3892648220062256
460,893476,893477,-0.13131554424762726,-0.2035428136587143,0.9958801865577698,-6.397650718688965,-7.4413347244262695,2.313051700592041,-0.5519723892211914,-0.8459576964378357,-0.30898454785346985,0.38802143931388855,0.49650365114212036,2.411630630493164
461,893486,893487,-0.11183936148881912,-0.06258047372102737,0.99929279088974,-12.47058391571045,6.150091171264648,1.817899227142334,-0.5639718174934387,-0.8429578542709351,-0.29998499155044556,0.3857180178165436,0.33481863141059875,2.431384563446045
462,893496,893497,-0.1799020767211914,-0.0007526447298005223,1.0291776657104492,-18.343259811401367,23.56891441345215,0.6737067103385925,-0.5594720244407654,-0.8354582190513611,-0.3044847846031189,0.15801186859607697,0.08700893819332123,2.44278883934021
463,893506,893507,-0.04604816436767578,-0.08250371366739273,0.9950240850448608,-16.475542068481445,41.83837127685547,-0.230503648519516,-0.5534723401069641,-0.8264586329460144,-0.29848507046699524,-0.2914452850818634,-0.11979451030492783,2.4434659481048584
464,893516,893517,-0.09054887294769287,0.009336153045296669,1.0479276180267334,-5.942628860473633,54.60670852661133,-1.3986923694610596,-0.5639718174934387,-0.8489575386047363,-0.2939853072166443,-0.7905924320220947,-0.1647975742816925,2.4384682178497314
465,893526,893527,-0.08079203963279724,-0.04492287337779999,1.030214786529541,9.27529239654541,55.362098693847656,-0.11981229484081268,-0.5759711861610413,-0.836958110332489,-0.3029848337173462,-1.3417608737945557,-0.2150997817516327,2.426386833190918
466,893536,893537,-0.2446848601102829,-0.02413373999297619,1.013346791267395,20.937658309936523,43.478302001953125,-0.10854332149028778,-0.5669716596603394,-0.8339582681655884,-0.29998499155044556,-1.9625800848007202,0.023369571194052696,2.429661512374878
467,893546,893547,-0.27658888697624207,-0.04852830618619919,0.9916730523109436,25.978174209594727,20.75920295715332,1.349266529083252,-0.5819708704948425,-0.836958110332489,-0.29998499155044556,-2.1467599868774414,0.33852580189704895,2.4397032260894775
468,893556,893557,-0.64007568359375,-0.05188419669866562,0.9841450452804565,20.77997398376465,-9.656654357910156,3.831843137741089,-0.5684715509414673,-0.850457489490509,-0.2954852283000946,-2.1338531970977783,0.4510466158390045,2.4420456886291504
469,893566,893567,-0.3628930449485779,0.001710659358650446,0.9781368374824524,10.330011367797852,-41.28762435913086,6.025996208190918,-0.5684715509414673,-0.850457489490509,-0.3134843111038208,-1.8223837614059448,0.7333626747131348,2.5016510486602783
470,893576,893577,-0.27930834889411926,-0.08030888438224792,0.9825881123542786,-2.599368095397949,-60.64265823364258,6.535544395446777,-0.5534723401069641,-0.850457489490509,-0.3164841830730438,-1.5536048412322998,0.6616330146789551,2.528130054473877
471,893586,893587,-0.2340938299894333,-0.08276350051164627,0.9711325168609619,-14.85891342163086,-66.0283203125,5.610037803649902,-0.5534723401069641,-0.850457489490509,-0.31048446893692017,-0.6449068784713745,0.5306256413459778,2.578667402267456
472,893596,893597,-0.20340943336486816,0.019620249047875404,1.000422477722168,-25.258441925048828,-60.9254035949707,2.7118170261383057,-0.5564721822738647,-0.8474575877189636,-0.3164841830730438,-0.027853064239025116,0.2980705797672272,2.6098427772521973
