,timestamp_start,timestamp_end,acc.x,acc.y,acc.z,gyro.x,gyro.y,gyro.z,mag.x,mag.y,mag.z,stabilizer.pitch,stabilizer.roll,stabilizer.yaw
0,380996,380997,-0.6082902550697327,0.06240406632423401,1.0835118293762207,-23.383373260498047,16.09737777709961,9.99458122253418,-0.577471137046814,-0.8354582190513611,-0.2654867172241211,1.4232673645019531,-0.6653016209602356,-3.285132884979248
1,381006,381007,-0.6216586232185364,-0.18386085331439972,1.0103845596313477,-14.104254722595215,10.244580268859863,13.189745903015137,-0.56997150182724,-0.8399580121040344,-0.2669866383075714,1.2910329103469849,-0.8929269313812256,-3.1683614253997803
2,381016,381017,-0.7871962785720825,-0.7175973653793335,0.9243313670158386,-11.594515800476074,16.712717056274414,15.350481033325195,-0.5684715509414673,-0.8534573316574097,-0.277486115694046,1.4408767223358154,-0.9573770761489868,-3.0371997356414795
3,381026,381027,-0.3185303807258606,-0.2606666684150696,0.8890933990478516,-6.9823689460754395,27.947895050048828,12.856332778930664,-0.5819708704948425,-0.8279585838317871,-0.2759861946105957,1.2163734436035156,-1.1340856552124023,-2.847639560699463
4,381036,381037,-0.031448692083358765,0.08673135936260223,0.9255278706550598,-1.1911237239837646,43.364418029785156,10.321474075317383,-0.5864706635475159,-0.8414579033851624,-0.2864856719970703,0.8300804495811462,-1.131428599357605,-2.769338369369507
5,381046,381047,-0.03848642855882645,0.055459730327129364,0.9780017733573914,4.573840618133545,51.95441436767578,9.567535400390625,-0.5924703478813171,-0.8474575877189636,-0.2834858298301697,0.8257805705070496,-1.126434564590454,-2.6467065811157227
6,381056,381057,-0.03516911342740059,0.1043827086687088,1.0390013456344604,8.297662734985352,55.822723388671875,8.065583229064941,-0.5909704566001892,-0.8429578542709351,-0.26998651027679443,0.1855071783065796,-1.0436680316925049,-2.588222026824951
7,381066,381067,-0.020563988015055656,0.06925804913043976,1.0417107343673706,7.237401008605957,58.97007369995117,6.4025163650512695,-0.5849707126617432,-0.851957380771637,-0.27898603677749634,-0.10054073482751846,-0.9728133082389832,-2.5030786991119385
8,381076,381077,-0.29625260829925537,0.11812078207731247,1.0440860986709595,8.237606048583984,56.505008697509766,4.999448299407959,-0.5849707126617432,-0.8609569072723389,-0.2759861946105957,-0.8324251770973206,-0.917883574962616,-2.441253900527954
9,381086,381087,-0.21872997283935547,0.16722021996974945,1.0160561800003052,5.187790393829346,49.70256042480469,4.223371505737305,-0.5999699831008911,-0.851957380771637,-0.27298635244369507,-1.4824182987213135,-0.7971475124359131,-2.4284920692443848
10,381096,381097,-0.21250677108764648,-0.27289432287216187,1.0165668725967407,11.143364906311035,35.98310470581055,2.5199873447418213,-0.6074696183204651,-0.8534573316574097,-0.27148643136024475,-1.6026127338409424,-0.6870840787887573,-2.4183590412139893
11,381106,381107,-0.44646701216697693,-0.5162764191627502,1.0462123155593872,12.427565574645996,26.65323257446289,2.2266299724578857,-0.5954701900482178,-0.850457489490509,-0.277486115694046,-2.0761523246765137,-0.5623884797096252,-2.3999156951904297
12,381116,381117,-0.4061623215675354,-0.1818874478340149,1.0202186107635498,10.276229858398438,20.7055606842041,0.6305837631225586,-0.6104694604873657,-0.8564571738243103,-0.2744862735271454,-2.0320191383361816,-0.4353485107421875,-2.3849003314971924
13,381126,381127,-0.4721631705760956,-0.05368435010313988,1.027453064918518,6.287963390350342,16.562776565551758,0.9351097345352173,-0.6029698252677917,-0.8399580121040344,-0.2759861946105957,-2.3629045486450195,-0.2875473201274872,-2.4005770683288574
14,381136,381137,-0.5575882792472839,-0.13270944356918335,0.968163251876831,2.580686330795288,20.728713989257812,-0.08280091732740402,-0.6029698252677917,-0.8399580121040344,-0.28498575091362,-2.2330713272094727,-0.33595019578933716,-2.368378162384033
15,381146,381147,-0.7076988220214844,-0.08467978239059448,0.9856811761856079,-1.7428289651870728,27.22515869140625,-0.8896104693412781,-0.6029698252677917,-0.836958110332489,-0.26998651027679443,-2.629018545150757,-0.3005983233451843,-2.382688522338867
16,381156,381157,-0.5797883868217468,-0.2684296667575836,1.0352646112442017,-8.53369426727295,33.58326721191406,-2.701453447341919,-0.6074696183204651,-0.8414579033851624,-0.2744862735271454,-3.1734554767608643,-0.35362565517425537,-2.401416540145874
17,381166,381167,-0.3703448474407196,-0.20171265304088593,1.0662777423858643,-13.27675724029541,40.42430114746094,-4.017252445220947,-0.6179690957069397,-0.8429578542709351,-0.26998651027679443,-3.053142786026001,-0.453137069940567,-2.4223172664642334
18,381176,381177,-0.24492546916007996,-0.12802639603614807,1.0531916618347168,-11.642451286315918,35.75278854370117,-4.265707492828369,-0.6059696674346924,-0.8279585838317871,-0.27298635244369507,-3.6971676349639893,-0.6429514288902283,-2.4773495197296143
19,381186,381187,-0.30071553587913513,-0.17959001660346985,1.0151170492172241,-6.144794940948486,30.03957748413086,-5.719325542449951,-0.6104694604873657,-0.8324583768844604,-0.2744862735271454,-3.8128738403320312,-0.7954294085502625,-2.520712375640869
20,381196,381197,-0.17616873979568481,0.02486790344119072,1.073901653289795,-1.9087488651275635,23.615875244140625,-7.173043251037598,-0.6254687309265137,-0.8384580612182617,-0.27148643136024475,-4.229176998138428,-0.8365579843521118,-2.594212770462036
21,381206,381207,-0.14979448914527893,0.09021415561437607,1.1441365480422974,7.803977966308594,21.76734161376953,-8.397119522094727,-0.6269686222076416,-0.8309584259986877,-0.2639867961406708,-4.505396366119385,-0.7528117299079895,-2.6601181030273438
22,381216,381217,-0.3601745367050171,0.13669992983341217,1.078778624534607,17.6224308013916,17.70738983154297,-7.633136749267578,-0.6284685730934143,-0.8414579033851624,-0.2744862735271454,-4.514442443847656,-0.5263341069221497,-2.723041534423828
23,381226,381227,-0.12213766574859619,0.15072110295295715,1.0732183456420898,24.93218231201172,14.476621627807617,-8.343254089355469,-0.6284685730934143,-0.8414579033851624,-0.27148643136024475,-4.640180587768555,-0.2791997492313385,-2.7845165729522705
24,381236,381237,-0.0612957589328289,0.09139253944158554,1.0135865211486816,20.736413955688477,10.902762413024902,-9.613550186157227,-0.6359682083129883,-0.8399580121040344,-0.2669866383075714,-4.59783935546875,-0.1617814302444458,-2.9082255363464355
25,381246,381247,-0.23177316784858704,-0.09567612409591675,1.0819090604782104,11.568788528442383,6.441416263580322,-14.414203643798828,-0.6359682083129883,-0.8399580121040344,-0.2669866383075714,-5.007350921630859,0.043904151767492294,-3.0151302814483643
26,381256,381257,-0.22799475491046906,-0.11325567960739136,1.077823519706726,0.9193820357322693,3.842618227005005,-15.171024322509766,-0.6359682083129883,-0.8399580121040344,-0.2669866383075714,-4.8810200691223145,0.1633501946926117,-3.142709732055664
27,381266,381267,-0.20625942945480347,-0.04047523811459541,1.0599334239959717,-1.6380558013916016,6.771982669830322,-16.077503204345703,-0.6329683661460876,-0.8159592151641846,-0.2549872398376465,-4.83576774597168,0.11967506259679794,-3.3020193576812744
28,381276,381277,-0.6198344230651855,-0.2011347860097885,1.018632173538208,-3.673527717590332,8.761889457702637,-14.809277534484863,-0.6299684643745422,-0.8189590573310852,-0.27298635244369507,-5.016824722290039,0.08106449246406555,-3.467927932739258
29,381286,381287,-1.0728461742401123,-0.5138415098190308,0.9616797566413879,-6.21149206161499,11.85896110534668,-15.458065032958984,-0.6509674191474915,-0.8159592151641846,-0.26098695397377014,-4.8807373046875,-0.06850721687078476,-3.645409107208252
30,381296,381297,-0.6492370367050171,-0.7383929491043091,1.0084877014160156,-5.479779243469238,15.632417678833008,-16.760669708251953,-0.6419678926467896,-0.8129593133926392,-0.2639867961406708,-5.101900100708008,-0.17850126326084137,-3.8309051990509033
31,381306,381307,-0.5803520679473877,-0.5931150913238525,1.0497760772705078,-1.0466830730438232,31.533063888549805,-20.063827514648438,-0.6389680504798889,-0.8099594712257385,-0.25198739767074585,-5.129173278808594,-0.2613022029399872,-4.005625247955322
32,381316,381317,-0.8573259115219116,-0.9565607309341431,0.9281470775604248,9.185708045959473,37.91781234741211,-18.208436965942383,-0.6404679417610168,-0.8114594221115112,-0.26848655939102173,-5.584549427032471,-0.20963405072689056,-4.193362712860107
33,381326,381327,-0.5488479137420654,-0.41350293159484863,0.8901026844978333,21.357406616210938,44.04733657836914,-19.1181697845459,-0.66896653175354,-0.8219588994979858,-0.2669866383075714,-6.156563758850098,0.004253895487636328,-4.3340163230896
34,381336,381337,-0.5758759379386902,0.051117364317178726,1.0943245887756348,29.437397003173828,28.072874069213867,-15.592639923095703,-0.6494675278663635,-0.8174591064453125,-0.2594870328903198,-6.267220497131348,0.3356595039367676,-4.445033550262451
35,381346,381347,-0.7461920380592346,-0.2107052206993103,1.050981879234314,37.288143157958984,6.88676118850708,-14.249850273132324,-0.6704664826393127,-0.8264586329460144,-0.27148643136024475,-6.495630741119385,0.7593028545379639,-4.517012119293213
36,381356,381357,-0.66387540102005,-0.2534305155277252,0.9348592758178711,36.9482307434082,-6.777258396148682,-11.044398307800293,-0.6584670543670654,-0.8234587907791138,-0.2654867172241211,-6.352761268615723,0.8645678162574768,-4.807931423187256
37,381366,381367,-0.7502577900886536,-0.2849782407283783,0.8908453583717346,20.262985229492188,-17.057960510253906,-7.805956840515137,-0.6614668965339661,-0.8294585347175598,-0.277486115694046,-6.33075475692749,1.3086574077606201,-4.8329596519470215
38,381376,381377,-0.7652095556259155,-0.47667983174324036,0.8996370434761047,-2.8560333251953125,-16.45182991027832,-5.532538890838623,-0.6734663248062134,-0.8174591064453125,-0.26848655939102173,-6.249638080596924,1.4423927068710327,-4.920502662658691
39,381386,381387,-0.5526715517044067,-0.18726442754268646,0.9316467642784119,-22.165449142456055,-13.829313278198242,-4.404010772705078,-0.6629668474197388,-0.8219588994979858,-0.26098695397377014,-6.027996063232422,1.2693274021148682,-5.031445503234863
40,381396,381397,-0.1517694741487503,-0.11936377733945847,0.9015630483627319,-38.28683090209961,-12.973026275634766,-1.6028523445129395,-0.6434678435325623,-0.8174591064453125,-0.2594870328903198,-5.986542224884033,0.8667332530021667,-5.171182155609131
41,381406,381407,-0.7555726170539856,-0.4640059471130371,0.9167324900627136,-40.26793670654297,-13.841470718383789,0.07514388859272003,-0.6509674191474915,-0.8249587416648865,-0.2759861946105957,-5.8354010581970215,0.5679157972335815,-5.107609748840332
42,381416,381417,-0.8451588749885559,-0.18037600815296173,0.9221203327178955,-34.64515686035156,-14.418740272521973,3.544285297393799,-0.6344682574272156,-0.8234587907791138,-0.26848655939102173,-5.65583610534668,0.22270889580249786,-5.068410396575928
43,381426,381427,-0.4962272047996521,-0.1897227168083191,0.9181324243545532,-25.284948348999023,-18.172021865844727,6.363456726074219,-0.6449677348136902,-0.8099594712257385,-0.2669866383075714,-5.485527038574219,-0.2713232636451721,-5.158718585968018
44,381436,381437,-0.6517190933227539,-0.2928408682346344,0.9668304324150085,-9.677361488342285,-23.010528564453125,11.284320831298828,-0.6419678926467896,-0.8189590573310852,-0.25198739767074585,-5.381339073181152,-0.23693537712097168,-4.924080848693848
45,381446,381447,-1.086646556854248,-0.26685869693756104,0.9547100067138672,2.6268632411956787,-20.940074920654297,12.641514778137207,-0.6464676856994629,-0.8204589486122131,-0.25348731875419617,-5.114959239959717,-0.25059759616851807,-4.771927833557129
46,381456,381457,-0.9105001091957092,-0.17600813508033752,0.9320809245109558,10.554155349731445,-21.165313720703125,15.044600486755371,-0.6419678926467896,-0.8279585838317871,-0.27298635244369507,-4.888519763946533,-0.16336649656295776,-4.619692802429199
47,381466,381467,-0.44507214426994324,-0.2075921893119812,1.001520037651062,13.531988143920898,-21.8939266204834,16.615520477294922,-0.6449677348136902,-0.8249587416648865,-0.26998651027679443,-4.606951713562012,0.016775643453001976,-4.418502330780029
48,381476,381477,-0.5744196772575378,-0.40028446912765503,0.9223896265029907,8.664527893066406,-14.704471588134766,15.273699760437012,-0.6344682574272156,-0.8234587907791138,-0.28048595786094666,-4.383738994598389,0.20515435934066772,-4.216212272644043
49,381486,381487,-0.2921221852302551,-0.7744922041893005,0.9970218539237976,-1.419095516204834,-10.707083702087402,14.319113731384277,-0.6419678926467896,-0.8279585838317871,-0.27898603677749634,-4.28674840927124,0.29235216975212097,-4.068219184875488
50,381496,381497,-0.21938787400722504,-0.10564206540584564,1.0857337713241577,-5.780725002288818,-9.850299835205078,11.597582817077637,-0.6344682574272156,-0.8204589486122131,-0.277486115694046,-4.24706506729126,0.23992910981178284,-3.9692091941833496
51,381506,381507,-0.43855854868888855,-0.08220284432172775,1.1544129848480225,-5.058432102203369,-14.771856307983398,12.034958839416504,-0.6299684643745422,-0.8279585838317871,-0.2759861946105957,-4.129861354827881,-0.0009156054584309459,-3.9703071117401123
52,381516,381517,-0.21713361144065857,-0.251408189535141,1.0586942434310913,-3.4296514987945557,-12.392409324645996,7.8801188468933105,-0.6314684152603149,-0.8294585347175598,-0.26848655939102173,-3.973045587539673,0.11890774220228195,-3.759589433670044
53,381526,381527,-0.1819838583469391,-0.03938828781247139,0.9402180910110474,0.3870962858200073,-12.94487476348877,3.7712972164154053,-0.6284685730934143,-0.8354582190513611,-0.27148643136024475,-3.957106113433838,0.1968519687652588,-3.643001079559326
54,381536,381537,-0.32979369163513184,-0.03455227240920067,0.9452619552612305,2.248642921447754,-24.3260498046875,2.2968668937683105,-0.6374680995941162,-0.8324583768844604,-0.2744862735271454,-3.766094446182251,0.17879706621170044,-3.616041898727417
55,381546,381547,-0.7162519693374634,-0.1502184122800827,1.0249172449111938,3.2355775833129883,-21.408496856689453,-1.7489618062973022,-0.6449677348136902,-0.8249587416648865,-0.2579870820045471,-3.4402101039886475,0.19063062965869904,-3.596411943435669
56,381556,381557,-0.6111161112785339,-0.34542515873908997,1.0195229053497314,6.003734111785889,-24.625532150268555,-3.40708327293396,-0.6254687309265137,-0.8324583768844604,-0.26248687505722046,-3.185166120529175,0.2858664095401764,-3.5834555625915527
57,381566,381567,-1.0291428565979004,-0.43834179639816284,0.8926131725311279,-2.622349500656128,-24.1348934173584,-4.503686428070068,-0.6404679417610168,-0.8294585347175598,-0.27148643136024475,-3.014272928237915,0.36663198471069336,-3.607898235321045
58,381576,381577,-0.7009883522987366,-0.5865957140922546,0.8079473972320557,-10.69697380065918,-16.01077651977539,-8.48151969909668,-0.6209689378738403,-0.8219588994979858,-0.27298635244369507,-2.7248568534851074,0.24918785691261292,-3.687412738800049
59,381586,381587,-0.4896623194217682,-0.6504263877868652,0.8538124561309814,-20.3421630859375,-10.837657928466797,-12.692925453186035,-0.6254687309265137,-0.8234587907791138,-0.2654867172241211,-2.61041522026062,-0.01023141760379076,-3.8322973251342773
60,381596,381597,-0.34959083795547485,-0.38073378801345825,1.0172436237335205,-24.37663459777832,-9.479116439819336,-13.732492446899414,-0.6059696674346924,-0.8309584259986877,-0.27898603677749634,-2.4551877975463867,-0.25656047463417053,-3.964336395263672
61,381606,381607,-0.22052718698978424,-0.2247806042432785,1.0484811067581177,-19.046693801879883,-4.783487796783447,-18.526823043823242,-0.6149692535400391,-0.8339582681655884,-0.26998651027679443,-2.455991506576538,-0.45498260855674744,-4.106657028198242
62,381616,381617,-0.14880049228668213,-0.06811867654323578,1.0259146690368652,-6.036901473999023,-18.640066146850586,-18.954174041748047,-0.6029698252677917,-0.8339582681655884,-0.27298635244369507,-2.3570542335510254,-0.6636620759963989,-4.303189754486084
63,381626,381627,-0.2309766709804535,-0.35295116901397705,1.0536015033721924,4.701813697814941,-22.756532669067383,-20.823331832885742,-0.6179690957069397,-0.8429578542709351,-0.2669866383075714,-2.22440767288208,-0.5847126245498657,-4.471738815307617
64,381636,381637,-0.9077666401863098,-0.6122106313705444,1.1004544496536255,18.12272834777832,-37.31758117675781,-17.892757415771484,-0.616469144821167,-0.8624568581581116,-0.2654867172241211,-1.9287737607955933,-0.46529290080070496,-4.661463260650635
65,381646,381647,-0.659928560256958,-0.3663448393344879,1.056778907775879,20.223308563232422,-33.55547332763672,-20.38519859313965,-0.5954701900482178,-0.8474575877189636,-0.26848655939102173,-1.599182367324829,-0.2545001804828644,-4.843283653259277
66,381656,381657,-0.174947589635849,-0.0232410728931427,0.9198523163795471,21.566566467285156,-38.811851501464844,-18.46347427368164,-0.6089695692062378,-0.8549572229385376,-0.2759861946105957,-1.1771290302276611,0.050823163241147995,-5.028407573699951
67,381666,381667,-0.2805943489074707,-0.18557539582252502,0.8941306471824646,16.20138168334961,-25.75309181213379,-16.954862594604492,-0.6134693026542664,-0.8684565424919128,-0.27148643136024475,-0.7456510066986084,0.12478389590978622,-5.220798969268799
68,381676,381677,-0.19374023377895355,-0.549397349357605,0.9507697224617004,10.85539436340332,-11.279510498046875,-15.403905868530273,-0.616469144821167,-0.8354582190513611,-0.2744862735271454,-0.664692759513855,0.2414110004901886,-5.397066116333008
69,381686,381687,-0.639838695526123,-0.4307175576686859,0.9862045049667358,-3.015346050262451,3.4606993198394775,-13.493250846862793,-0.5984700918197632,-0.844457745552063,-0.28048595786094666,-0.49979814887046814,0.3127164840698242,-5.542616367340088
70,381696,381697,-0.816216230392456,-0.511705219745636,1.0592578649520874,-6.025853157043457,11.27435302734375,-14.3524808883667,-0.6194689869880676,-0.844457745552063,-0.2654867172241211,-0.5562029480934143,0.2859448790550232,-5.678950309753418
71,381706,381707,-0.23748187720775604,-0.11883213371038437,1.1181122064590454,-11.07426643371582,15.804384231567383,-10.031668663024902,-0.6044697761535645,-0.850457489490509,-0.277486115694046,-0.7238788604736328,0.1390666514635086,-5.813573360443115
72,381716,381717,-0.4312788248062134,-0.38398972153663635,1.029688835144043,-3.0764875411987305,14.737092971801758,-9.409958839416504,-0.6029698252677917,-0.8489575386047363,-0.27298635244369507,-0.88267982006073,0.04914292320609093,-5.917291164398193
73,381726,381727,-0.3507552444934845,-0.4366648197174072,1.1178168058395386,-0.8665974140167236,5.438180446624756,-5.425919532775879,-0.6134693026542664,-0.8594570159912109,-0.28048595786094666,-0.9241788387298584,0.07238929718732834,-6.004995822906494
74,381736,381737,-0.22374798357486725,-0.4232529401779175,1.2657443284988403,9.50822925567627,0.644115149974823,-3.056790590286255,-0.6029698252677917,-0.8549572229385376,-0.28498575091362,-0.9863930344581604,0.20878398418426514,-6.073546886444092
75,381746,381747,-0.6334372162818909,-0.4396911561489105,1.2158743143081665,5.8390302658081055,4.27629280090332,-0.8293255567550659,-0.6029698252677917,-0.851957380771637,-0.2759861946105957,-0.9434436559677124,0.2982960343360901,-6.097690582275391
76,381756,381757,-0.6982116103172302,-0.6875002384185791,1.112903356552124,2.34100604057312,-12.074827194213867,2.4995741844177246,-0.5954701900482178,-0.8564571738243103,-0.27148643136024475,-0.8976500630378723,0.3294122517108917,-6.092523574829102
77,381766,381767,-0.9723914265632629,-0.5594562888145447,0.9785349369049072,-3.636432647705078,-19.651098251342773,2.353092908859253,-0.6014699339866638,-0.8474575877189636,-0.2834858298301697,-0.7211974859237671,0.2920994758605957,-6.0540771484375
78,381776,381777,-1.453613042831421,-0.4093858301639557,1.019254446029663,-8.044605255126953,-22.878393173217773,3.6301958560943604,-0.6089695692062378,-0.851957380771637,-0.2669866383075714,-0.5307037830352783,0.2570372521877289,-6.027218341827393
79,381786,381787,-0.7466306090354919,-0.9249184727668762,1.1553295850753784,-14.651095390319824,-18.32003402709961,3.3193655014038086,-0.622468888759613,-0.8414579033851624,-0.2654867172241211,-0.23936514556407928,0.27457013726234436,-6.013831615447998
80,381796,381797,-0.4697665274143219,-0.7182814478874207,1.155419945716858,-19.0513916015625,-9.105939865112305,4.158290863037109,-0.6044697761535645,-0.8324583768844604,-0.27148643136024475,-0.21985316276550293,0.11831889301538467,-5.990175724029541
81,381806,381807,-0.21989108622074127,-0.12532654404640198,1.155833125114441,-22.070436477661133,-5.518552303314209,4.577050685882568,-0.6134693026542664,-0.8294585347175598,-0.2594870328903198,-0.1212567687034607,-0.04709770902991295,-5.95520544052124
82,381816,381817,-0.0847092941403389,-0.46301978826522827,1.1362112760543823,-25.54365348815918,-4.516249656677246,8.83859634399414,-0.6059696674346924,-0.8189590573310852,-0.2759861946105957,-0.01646660454571247,-0.39686352014541626,-5.86352014541626
83,381826,381827,-0.5969698429107666,-0.8811187148094177,1.1359076499938965,-17.61009407043457,-5.611891269683838,11.496684074401855,-0.6044697761535645,-0.8294585347175598,-0.26248687505722046,0.053965743631124496,-0.402811199426651,-5.841187477111816
84,381836,381837,-0.8236057758331299,-0.6722363829612732,1.109273910522461,-10.950485229492188,0.5220358967781067,16.536771774291992,-0.616469144821167,-0.80545973777771,-0.2594870328903198,0.06332233548164368,-0.6472786664962769,-5.6923723220825195
85,381846,381847,-0.3754442036151886,0.01842546835541725,0.9807888865470886,-6.649874210357666,-5.460321426391602,20.155323028564453,-0.6149692535400391,-0.8189590573310852,-0.2579870820045471,0.06444413959980011,-0.7844862937927246,-5.50567626953125
86,381856,381857,-0.2113552987575531,-0.15706411004066467,0.9933415055274963,-13.42034912109375,-3.857994556427002,21.848527908325195,-0.6194689869880676,-0.80545973777771,-0.23548822104930878,0.08913876116275787,-0.8969781994819641,-5.284554958343506
87,381866,381867,-0.28064826130867004,-0.3822372555732727,1.040643334388733,-22.4981632232666,8.036473274230957,20.138059616088867,-0.6119694113731384,-0.8069596290588379,-0.24898754060268402,0.11051812022924423,-1.0051939487457275,-5.0855560302734375
88,381876,381877,-0.2958250641822815,-0.3544085621833801,0.9014996886253357,-25.7396183013916,18.044261932373047,18.660863876342773,-0.6089695692062378,-0.8159592151641846,-0.24898754060268402,-0.03673833981156349,-1.2881877422332764,-4.866868495941162
89,381886,381887,-0.5010631084442139,-0.2912623882293701,0.817414402961731,-22.285995483398438,25.089488983154297,13.855257987976074,-0.6059696674346924,-0.797960102558136,-0.2579870820045471,-0.34533196687698364,-1.5294655561447144,-4.693240642547607
90,381896,381897,-0.2923602759838104,-0.20624211430549622,0.8678365349769592,-17.853878021240234,19.247055053710938,11.59453296661377,-0.623968780040741,-0.8009599447250366,-0.24898754060268402,-0.5566330552101135,-1.6233201026916504,-4.60543966293335
91,381906,381907,-0.3767184019088745,-0.14829060435295105,0.9140021204948425,-14.617682456970215,11.41240119934082,6.064723014831543,-0.6134693026542664,-0.8144592642784119,-0.25348731875419617,-0.613283634185791,-1.873203158378601,-4.480100154876709
92,381916,381917,-0.30235251784324646,-0.10926513373851776,0.9717601537704468,-11.376955032348633,2.9162306785583496,2.3049638271331787,-0.6194689869880676,-0.8174591064453125,-0.26248687505722046,-0.7398417592048645,-1.9221229553222656,-4.460790634155273
93,381926,381927,-0.22722098231315613,-0.1829804629087448,0.9354662299156189,-1.9049019813537598,-2.4045042991638184,-4.220640182495117,-0.6179690957069397,-0.8009599447250366,-0.24898754060268402,-0.7132467031478882,-1.9734419584274292,-4.468591213226318
94,381936,381937,-0.781539261341095,-0.2666301131248474,1.0330482721328735,5.026337623596191,-14.317253112792969,-5.117168426513672,-0.6314684152603149,-0.8174591064453125,-0.2594870328903198,-0.5121480226516724,-2.008082628250122,-4.511335849761963
95,381946,381947,-0.968415379524231,-0.029204532504081726,1.037742018699646,16.083614349365234,-17.02292251586914,-8.414186477661133,-0.6089695692062378,-0.836958110332489,-0.26098695397377014,-0.30338916182518005,-1.9136669635772705,-4.576737403869629
96,381956,381957,-0.7277178168296814,-0.22070933878421783,0.9960700869560242,18.92629051208496,-19.385086059570312,-7.548552513122559,-0.6134693026542664,-0.8264586329460144,-0.26848655939102173,-0.12027560919523239,-1.6616398096084595,-4.682460784912109
97,381966,381967,-0.29680728912353516,-0.061597950756549835,1.0229426622390747,24.37381362915039,-15.846211433410645,-10.096787452697754,-0.5969701409339905,-0.8249587416648865,-0.2579870820045471,0.042949263006448746,-1.5688971281051636,-4.714239120483398
98,381976,381977,-0.16746637225151062,-0.18804830312728882,1.0683352947235107,28.07390594482422,-12.77547836303711,-8.735206604003906,-0.5984700918197632,-0.8414579033851624,-0.26848655939102173,0.23136408627033234,-1.243138074874878,-4.839244842529297
99,381986,381987,-0.3686656951904297,-0.17380021512508392,1.0470223426818848,25.255510330200195,-3.2307167053222656,-6.59901237487793,-0.6014699339866638,-0.8384580612182617,-0.27148643136024475,0.3501618206501007,-0.9696534872055054,-4.920088291168213
100,381996,381997,-0.3400590419769287,-0.03845714032649994,0.9498454928398132,23.60430145263672,-0.672397255897522,-4.1540446281433105,-0.5864706635475159,-0.8414579033851624,-0.277486115694046,0.3652409315109253,-0.8184282183647156,-4.945451736450195
101,382006,382007,-0.3593349754810333,-0.042366791516542435,0.9259110689163208,16.203161239624023,15.866409301757812,-3.6269891262054443,-0.6119694113731384,-0.8399580121040344,-0.2669866383075714,0.30310386419296265,-0.4881887435913086,-5.022293567657471
102,382016,382017,-0.422619491815567,-0.3477334976196289,0.9264710545539856,14.382511138916016,23.986356735229492,-5.651760578155518,-0.5924703478813171,-0.8414579033851624,-0.26848655939102173,0.027731923386454582,-0.34656625986099243,-5.037474155426025
103,382026,382027,-0.5360997915267944,-0.3149021565914154,0.9956913590431213,7.285462856292725,21.88512420654297,-3.279585838317871,-0.6059696674346924,-0.836958110332489,-0.2669866383075714,-0.17145198583602905,-0.19302719831466675,-5.105428218841553
104,382036,382037,-0.6262705326080322,-0.0357959121465683,1.0807141065597534,3.488572597503662,11.72634506225586,-3.4175939559936523,-0.5969701409339905,-0.8429578542709351,-0.27298635244369507,-0.33224061131477356,-0.17415229976177216,-5.123175144195557
105,382046,382047,-0.7730242609977722,-0.2606878876686096,1.191969871520996,-1.2343610525131226,5.812523365020752,-0.25486263632774353,-0.6119694113731384,-0.8399580121040344,-0.27898603677749634,-0.41121459007263184,-0.14728675782680511,-5.1534199714660645
106,382056,382057,-0.7535821795463562,-0.69706791639328,1.0165053606033325,-7.1757121086120605,-3.6747844219207764,1.0216774940490723,-0.5954701900482178,-0.8564571738243103,-0.28048595786094666,-0.41717132925987244,-0.2547016739845276,-5.129029750823975
107,382066,382067,-0.8190401792526245,-0.4487936496734619,0.9393472075462341,-9.653733253479004,-12.343734741210938,7.079494476318359,-0.5909704566001892,-0.8489575386047363,-0.2669866383075714,-0.29294463992118835,-0.3495095670223236,-5.109049320220947
108,382076,382077,-1.048414707183838,-0.5414690375328064,0.995627224445343,-12.3657808303833,-5.957079887390137,8.129231452941895,-0.6059696674346924,-0.8429578542709351,-0.26998651027679443,-0.0706804096698761,-0.5473158955574036,-5.010009765625
109,382086,382087,-0.389565646648407,-0.40222492814064026,1.0833003520965576,-14.023165702819824,-13.800914764404297,13.675426483154297,-0.6074696183204651,-0.8414579033851624,-0.27148643136024475,0.01291134674102068,-0.6096624135971069,-4.936917304992676
110,382096,382097,-0.3012780547142029,-0.39406803250312805,1.1554601192474365,-13.784436225891113,-7.325340270996094,14.772207260131836,-0.5984700918197632,-0.8414579033851624,-0.27148643136024475,0.14136719703674316,-0.6989083886146545,-4.81276273727417
111,382106,382107,-0.41818299889564514,-0.00048161434824578464,1.1808266639709473,-10.189613342285156,-5.879602432250977,18.33319854736328,-0.6044697761535645,-0.8384580612182617,-0.2654867172241211,0.15900103747844696,-0.849664032459259,-4.646868705749512
112,382116,382117,-0.6977871656417847,-0.02809489332139492,1.0410269498825073,-0.37957870960235596,1.6477856636047363,19.387805938720703,-0.5909704566001892,-0.8579570651054382,-0.27298635244369507,0.18648168444633484,-0.9166751503944397,-4.468306064605713
113,382126,382127,-0.21584802865982056,-0.32339176535606384,1.090123176574707,7.941688537597656,3.5413126945495605,22.701196670532227,-0.6014699339866638,-0.844457745552063,-0.27148643136024475,0.14718525111675262,-0.7571490406990051,-4.320102691650391
114,382136,382137,-0.06712918728590012,-0.1880992203950882,1.055152177810669,10.818998336791992,12.955145835876465,23.24807357788086,-0.6074696183204651,-0.8534573316574097,-0.26848655939102173,0.05247226729989052,-0.627160906791687,-4.102095127105713
115,382146,382147,-0.4598207473754883,-0.4888148903846741,1.0207431316375732,13.65369987487793,3.6804795265197754,25.75772476196289,-0.6029698252677917,-0.8399580121040344,-0.27298635244369507,-0.04258548468351364,-0.4506644904613495,-3.8836700916290283
116,382156,382157,-0.26847147941589355,-0.17609257996082306,1.0377774238586426,6.365362644195557,6.5659260749816895,28.299232482910156,-0.6029698252677917,-0.8399580121040344,-0.27298635244369507,0.040891360491514206,-0.36181512475013733,-3.616783380508423
117,382166,382167,-0.6542185544967651,0.01590326614677906,1.0079621076583862,-4.702199459075928,-0.36575427651405334,28.23989486694336,-0.6029698252677917,-0.8399580121040344,-0.27298635244369507,-0.041948430240154266,-0.3212175965309143,-3.3289670944213867
118,382176,382177,-0.823638379573822,-0.025560075417160988,1.0155279636383057,-17.7728271484375,-0.6958109140396118,25.747440338134766,-0.5924703478813171,-0.8384580612182617,-0.2654867172241211,-0.04314599186182022,-0.4714772701263428,-3.0204555988311768
119,382186,382187,-0.519695520401001,-0.20405760407447815,0.9252526760101318,-22.60357093811035,7.788317680358887,21.155813217163086,-0.5954701900482178,-0.8414579033851624,-0.2744862735271454,0.00016321614384651184,-0.6677623391151428,-2.7676987648010254
120,382196,382197,-0.1974259316921234,-0.08601702004671097,0.9937788844108582,-24.506528854370117,14.127883911132812,19.379709243774414,-0.5969701409339905,-0.8399580121040344,-0.2669866383075714,-0.22848433256149292,-0.9896138906478882,-2.517331838607788
121,382206,382207,-0.22841449081897736,-0.017678959295153618,1.0353758335113525,-20.973735809326172,16.020235061645508,17.13944435119629,-0.5849707126617432,-0.8279585838317871,-0.26998651027679443,-0.25732481479644775,-1.0949877500534058,-2.375549793243408
122,382216,382217,-0.29056811332702637,-0.03215533867478371,1.07347571849823,-10.878291130065918,13.196240425109863,16.046110153198242,-0.5909704566001892,-0.8459576964378357,-0.26998651027679443,-0.3815701901912689,-1.3451818227767944,-2.193300724029541
123,382226,382227,-0.1472475379705429,-0.19896326959133148,1.0347793102264404,-1.9984102249145508,10.19563102722168,16.29314422607422,-0.6014699339866638,-0.8384580612182617,-0.2654867172241211,-0.5934680104255676,-1.4115076065063477,-2.0368900299072266
124,382236,382237,-0.12003260105848312,-0.11046291887760162,1.0231560468673706,4.787655830383301,0.9063947796821594,14.335461616516113,-0.5969701409339905,-0.8459576964378357,-0.27298635244369507,-0.6513484120368958,-1.335566759109497,-1.8998174667358398
125,382246,382247,-0.06822425127029419,-0.16557790338993073,0.9970514178276062,2.710527181625366,-11.3806734085083,15.376642227172852,-0.5924703478813171,-0.844457745552063,-0.2744862735271454,-0.5639656186103821,-1.2011739015579224,-1.7804747819900513
126,382256,382257,-0.19387349486351013,-0.13465887308120728,1.0115083456039429,2.1969103813171387,-15.005256652832031,11.311366081237793,-0.5954701900482178,-0.8474575877189636,-0.26848655939102173,-0.38092973828315735,-1.1902704238891602,-1.6348378658294678
127,382266,382267,-0.8034749031066895,0.049469202756881714,1.0748379230499268,-0.6395583748817444,-24.193021774291992,8.178038597106934,-0.5864706635475159,-0.8414579033851624,-0.2744862735271454,-0.11218772083520889,-1.1774771213531494,-1.5343955755233765
128,382276,382277,-0.3872385323047638,-0.04736609011888504,1.0768051147460938,-12.270779609680176,-20.103805541992188,3.878729820251465,-0.5954701900482178,-0.844457745552063,-0.27148643136024475,0.2555895447731018,-1.250921368598938,-1.4583133459091187
129,382286,382287,-0.2340456247329712,-0.23762626945972443,1.0385723114013672,-19.538423538208008,-14.789590835571289,-1.3352205753326416,-0.5864706635475159,-0.8474575877189636,-0.26848655939102173,0.45528513193130493,-1.3554389476776123,-1.4298228025436401
130,382296,382297,-0.4760988652706146,-0.2944565713405609,1.0516756772994995,-21.5642147064209,-1.7492579221725464,-4.640083312988281,-0.5879706144332886,-0.8279585838317871,-0.2549872398376465,0.453339159488678,-1.5715022087097168,-1.4324952363967896
131,382306,382307,-0.15560606122016907,-0.15293358266353607,1.021250605583191,-19.127408981323242,27.158994674682617,-12.224356651306152,-0.5804709792137146,-0.8294585347175598,-0.2654867172241211,0.39946481585502625,-1.7065268754959106,-1.5186817646026611
132,382316,382317,-0.06553314626216888,0.004729120992124081,1.022735834121704,-11.77214527130127,32.159156799316406,-16.13067054748535,-0.6014699339866638,-0.8294585347175598,-0.27148643136024475,0.044517844915390015,-1.993152141571045,-1.6161726713180542
133,382326,382327,-0.26608389616012573,-0.05688928812742233,1.070425033569336,-1.4220540523529053,46.889862060546875,-19.757410049438477,-0.5864706635475159,-0.8174591064453125,-0.27148643136024475,-0.16455726325511932,-2.1287946701049805,-1.8045334815979004
134,382336,382337,-0.22915230691432953,-0.06959220767021179,1.1195588111877441,10.84242057800293,50.7547607421875,-20.953102111816406,-0.6044697761535645,-0.8174591064453125,-0.27148643136024475,-0.7760447859764099,-2.0798099040985107,-2.016631603240967
135,382346,382347,-0.17335258424282074,0.001905432902276516,1.1202040910720825,26.886566162109375,50.88996887207031,-23.899826049804688,-0.6029698252677917,-0.8189590573310852,-0.2639867961406708,-1.179926872253418,-1.8143675327301025,-2.295076370239258
136,382356,382357,-0.03253408148884773,0.04837949573993683,1.1643545627593994,33.244754791259766,39.29464340209961,-22.039024353027344,-0.6104694604873657,-0.8384580612182617,-0.277486115694046,-1.554697036743164,-1.4792228937149048,-2.576140880584717
137,382366,382367,-0.03255199268460274,-0.08606423437595367,1.0776923894882202,32.3397216796875,23.846651077270508,-23.508056640625,-0.622468888759613,-0.8324583768844604,-0.26248687505722046,-2.0176877975463867,-1.0709922313690186,-2.8092949390411377
138,382376,382377,-0.2914431095123291,-0.5513859391212463,1.0927441120147705,22.624427795410156,14.109837532043457,-22.163667678833008,-0.6134693026542664,-0.8234587907791138,-0.2594870328903198,-2.037874221801758,-0.8754038214683533,-3.0653891563415527
139,382386,382387,-0.29348620772361755,-0.5936009883880615,1.0566169023513794,23.041208267211914,-7.723552703857422,-18.87704086303711,-0.6359682083129883,-0.8189590573310852,-0.25198739767074585,-2.1627488136291504,-0.6338542699813843,-3.2868309020996094
140,382396,382397,-0.5273298025131226,-0.17897067964076996,0.9199236035346985,14.546902656555176,-8.432329177856445,-20.10960578918457,-0.6179690957069397,-0.8189590573310852,-0.2639867961406708,-2.0772342681884766,-0.5217821002006531,-3.4685375690460205
141,382406,382407,-0.7172081470489502,-0.30877774953842163,0.9381293654441833,6.022764205932617,-14.761871337890625,-18.255346298217773,-0.6314684152603149,-0.8204589486122131,-0.2654867172241211,-1.9405875205993652,-0.4543336033821106,-3.663505792617798
142,382416,382417,-1.1027929782867432,-0.39748096466064453,0.958075761795044,2.669955015182495,-13.434122085571289,-17.40081787109375,-0.6194689869880676,-0.8174591064453125,-0.25348731875419617,-1.7435836791992188,-0.4338957369327545,-3.8497154712677
143,382426,382427,-1.0142229795455933,-0.062039025127887726,1.0686699151992798,-3.3208601474761963,-8.469328880310059,-16.728193283081055,-0.6284685730934143,-0.8264586329460144,-0.2654867172241211,-1.6219998598098755,-0.5457869172096252,-4.017728328704834
144,382436,382437,-0.32260602712631226,0.1994781792163849,1.1234660148620605,-1.3210846185684204,-16.484203338623047,-13.895405769348145,-0.6299684643745422,-0.8249587416648865,-0.24898754060268402,-1.5610759258270264,-0.5562810301780701,-4.179914951324463
145,382446,382447,-0.2306942194700241,-0.25520429015159607,1.1266851425170898,2.0642716884613037,-18.205142974853516,-13.18687915802002,-0.6149692535400391,-0.8219588994979858,-0.2579870820045471,-1.3494051694869995,-0.5205337405204773,-4.32227087020874
146,382456,382457,-1.3942546844482422,-0.47262099385261536,1.0013879537582397,10.054173469543457,-20.6704044342041,-7.623893737792969,-0.6119694113731384,-0.8159592151641846,-0.2669866383075714,-1.21963369846344,-0.5418227910995483,-4.43616247177124
147,382466,382467,-0.8312700390815735,-0.6248073577880859,0.8938699960708618,12.680254936218262,-14.5425443649292,-5.853933811187744,-0.6344682574272156,-0.8294585347175598,-0.27148643136024475,-0.9741342067718506,-0.4791296422481537,-4.511105060577393
148,382476,382477,-0.2040601521730423,-0.3715668320655823,1.0149997472763062,1.419373631477356,-12.419987678527832,-0.6048632860183716,-0.616469144821167,-0.8144592642784119,-0.26248687505722046,-0.7904813885688782,-0.28435975313186646,-4.555870056152344
149,382486,382487,-0.6513699293136597,-0.3210825026035309,1.1231536865234375,1.2534477710723877,-5.577226638793945,-0.15814225375652313,-0.6209689378738403,-0.8009599447250366,-0.2639867961406708,-0.6393080949783325,-0.2397478222846985,-4.563976287841797
150,382496,382497,-0.6694473028182983,-0.4967215955257416,1.0491797924041748,-2.3836843967437744,-0.16633014380931854,4.861032009124756,-0.6074696183204651,-0.8084595799446106,-0.2654867172241211,-0.6345764994621277,-0.22660186886787415,-4.5568413734436035
151,382506,382507,-0.7183631658554077,-0.4867344796657562,1.0661238431930542,1.7168452739715576,12.803315162658691,4.326753616333008,-0.6119694113731384,-0.8129593133926392,-0.2639867961406708,-0.7453151345252991,-0.34356966614723206,-4.507259368896484
152,382516,382517,-0.7555026412010193,-0.3477528691291809,1.0583034753799438,4.555123329162598,16.699785232543945,7.509490489959717,-0.6179690957069397,-0.8069596290588379,-0.2459876984357834,-1.0078973770141602,-0.2745184004306793,-4.455386161804199
153,382526,382527,-0.5639416575431824,-0.3863254189491272,1.0063514709472656,6.918115615844727,36.17095184326172,5.442352771759033,-0.6284685730934143,-0.8084595799446106,-0.25348731875419617,-1.2194008827209473,-0.24454514682292938,-4.381773948669434
154,382536,382537,-1.057983636856079,-0.19246000051498413,0.9135951995849609,11.150135040283203,27.033071517944336,6.7875542640686035,-0.623968780040741,-0.8219588994979858,-0.2579870820045471,-1.608276128768921,-0.14444686472415924,-4.320718765258789
155,382546,382547,-1.4708813428878784,-0.330562025308609,0.9524122476577759,17.131591796875,23.467269897460938,6.228516101837158,-0.623968780040741,-0.8189590573310852,-0.2549872398376465,-1.757633090019226,-0.03200662508606911,-4.254152297973633
156,382556,382557,-0.8457869291305542,-0.1272769719362259,0.9055608510971069,25.104766845703125,-3.64516282081604,9.041945457458496,-0.6329683661460876,-0.8249587416648865,-0.2639867961406708,-1.9112706184387207,0.2634766101837158,-4.185616493225098
157,382566,382567,-0.8528755307197571,-0.1879214346408844,0.787580132484436,31.43840217590332,-7.984821796417236,7.549275875091553,-0.6389680504798889,-0.836958110332489,-0.24898754060268402,-1.826555609703064,0.5080675482749939,-4.094231605529785
158,382576,382577,-0.5670000910758972,-0.2122451514005661,0.8792828321456909,21.740612030029297,-25.54602813720703,10.606353759765625,-0.6344682574272156,-0.8294585347175598,-0.27148643136024475,-1.6510370969772339,0.8521834015846252,-4.0068583488464355
159,382586,382587,-0.3223664164543152,-0.6381896138191223,1.0255985260009766,4.612042427062988,-32.531341552734375,7.930108547210693,-0.6089695692062378,-0.8429578542709351,-0.28198590874671936,-1.3256981372833252,0.8851238489151001,-3.9232177734375
160,382596,382597,-0.4971301555633545,-0.3090541362762451,0.9742044806480408,-7.068827152252197,-43.06914138793945,3.8038136959075928,-0.6074696183204651,-0.8324583768844604,-0.2834858298301697,-1.1114041805267334,0.8082990646362305,-3.8751511573791504
161,382606,382607,-0.7909100651741028,-0.3565676212310791,0.8957385420799255,-16.32941436767578,-34.08035659790039,0.7949348092079163,-0.6014699339866638,-0.844457745552063,-0.28048595786094666,-0.542179524898529,0.6665738821029663,-3.8383748531341553
162,382616,382617,-1.1364308595657349,-1.0151668787002563,0.9404866099357605,-20.30069923400879,-17.656736373901367,-1.8339265584945679,-0.6014699339866638,-0.8414579033851624,-0.2654867172241211,-0.2877001464366913,0.4220263361930847,-3.84614896774292
163,382626,382627,-0.6875651478767395,-0.6968067288398743,0.932280957698822,-17.442049026489258,-9.414175987243652,-1.848193645477295,-0.5909704566001892,-0.8309584259986877,-0.27298635244369507,-0.32737505435943604,0.3543410301208496,-3.884810209274292
164,382636,382637,-0.21271032094955444,-0.3638153672218323,0.9007696509361267,-11.969635963439941,4.370115280151367,-3.3672544956207275,-0.5999699831008911,-0.8459576964378357,-0.28498575091362,-0.22810512781143188,0.20312893390655518,-3.899151086807251
165,382646,382647,-0.2258099913597107,-0.39922523498535156,0.9213654398918152,2.267518997192383,0.15769006311893463,-1.2110155820846558,-0.6059696674346924,-0.8279585838317871,-0.27298635244369507,-0.26426786184310913,0.1808214783668518,-3.92606258392334
166,382656,382657,-0.6943108439445496,-0.4950158894062042,0.9147926568984985,5.956570625305176,11.007431030273438,-0.753187358379364,-0.5969701409339905,-0.8399580121040344,-0.2759861946105957,-0.2195897251367569,0.2639634907245636,-3.928389549255371
167,382666,382667,-0.3802732825279236,-0.477596640586853,0.9131940603256226,15.202435493469238,7.443340301513672,1.216068148612976,-0.6044697761535645,-0.8534573316574097,-0.27148643136024475,-0.42860719561576843,0.4436866044998169,-3.946039915084839
168,382676,382677,-0.910780131816864,-0.13970474898815155,0.9890959858894348,12.057310104370117,17.609113693237305,2.918217420578003,-0.6089695692062378,-0.851957380771637,-0.27298635244369507,-0.5771220326423645,0.552643358707428,-3.9344778060913086
169,382686,382687,-0.4128127694129944,-0.1252780258655548,0.9609168767929077,14.677188873291016,19.181108474731445,3.3183043003082275,-0.6119694113731384,-0.8489575386047363,-0.27298635244369507,-0.7100071310997009,0.7046766877174377,-3.899345874786377
170,382696,382697,-0.17255033552646637,-0.5063426494598389,1.0354673862457275,12.16868782043457,17.40772819519043,4.358898162841797,-0.5879706144332886,-0.8549572229385376,-0.26998651027679443,-0.8850369453430176,0.8101926445960999,-3.8605613708496094
171,382706,382707,-0.36595451831817627,-0.3753451108932495,1.0452375411987305,8.138811111450195,2.788910388946533,5.343272686004639,-0.616469144821167,-0.8594570159912109,-0.27148643136024475,-0.9872029423713684,1.022479772567749,-3.8102383613586426
172,382716,382717,-0.25283530354499817,-0.25741076469421387,1.0170910358428955,1.0363924503326416,-1.7878652811050415,5.820764064788818,-0.6059696674346924,-0.8609569072723389,-0.28198590874671936,-0.9952538013458252,1.0557175874710083,-3.747584104537964
173,382726,382727,-0.3218787610530853,-0.03669796511530876,1.1051284074783325,-3.546858310699463,-16.106679916381836,8.657423973083496,-0.6074696183204651,-0.8594570159912109,-0.28048595786094666,-0.9761375784873962,0.9896302223205566,-3.6881682872772217
174,382736,382737,-0.730665922164917,-0.006580141372978687,1.1214758157730103,-4.269003391265869,-11.860383033752441,5.6031599044799805,-0.6074696183204651,-0.8654567003250122,-0.27148643136024475,-0.7215971946716309,0.9376206994056702,-3.5914459228515625
175,382746,382747,-0.7385912537574768,-0.17528165876865387,1.046526312828064,-6.255402088165283,-16.57639503479004,7.530228137969971,-0.5969701409339905,-0.8399580121040344,-0.27898603677749634,-0.578629195690155,0.8825932145118713,-3.532944679260254
176,382756,382757,-0.6548067927360535,-0.26392626762390137,0.999430775642395,-7.237177848815918,-5.302793979644775,5.086467266082764,-0.6014699339866638,-0.8654567003250122,-0.28048595786094666,-0.37377065420150757,0.8465383052825928,-3.4549849033355713
177,382766,382767,-0.3489895462989807,-0.24085618555545807,1.0537596940994263,-13.28374195098877,2.291855573654175,6.93975830078125,-0.6044697761535645,-0.8474575877189636,-0.2744862735271454,-0.39139559864997864,0.7621999979019165,-3.413557291030884
178,382776,382777,-0.08970914781093597,0.005626519676297903,1.0093783140182495,-4.844670295715332,11.173158645629883,5.419918060302734,-0.6089695692062378,-0.8549572229385376,-0.26998651027679443,-0.5663707852363586,0.6508744359016418,-3.374075174331665
179,382786,382787,-0.44702988862991333,0.027650609612464905,1.1183918714523315,-3.0958895683288574,13.080957412719727,7.670880317687988,-0.6074696183204651,-0.8624568581581116,-0.2744862735271454,-0.760651707649231,0.6096238493919373,-3.325813055038452
180,382796,382797,-0.9948136210441589,-0.18670471012592316,1.0227304697036743,7.984240531921387,8.725010871887207,7.259304046630859,-0.5999699831008911,-0.8399580121040344,-0.26998651027679443,-0.9113109111785889,0.7516763806343079,-3.2588820457458496
181,382806,382807,-1.292134165763855,-0.17903992533683777,1.0781102180480957,7.655994415283203,8.337797164916992,6.246609210968018,-0.6104694604873657,-0.8474575877189636,-0.2864856719970703,-1.037072777748108,0.8783708810806274,-3.1921215057373047
182,382816,382817,-0.3878650665283203,-0.40607351064682007,1.0042448043823242,8.561379432678223,-7.703103542327881,5.872583866119385,-0.6059696674346924,-0.8399580121040344,-0.27898603677749634,-1.0950353145599365,0.9158515930175781,-3.1288082599639893
183,382826,382827,0.01619698293507099,-0.2464846968650818,0.9907840490341187,-2.0106828212738037,-9.059678077697754,3.1209444999694824,-0.6119694113731384,-0.8549572229385376,-0.27898603677749634,-0.9365153312683105,0.9868720769882202,-3.060621976852417
184,382836,382837,-0.2753026485443115,-0.04501032456755638,1.0521677732467651,-9.543533325195312,-13.70722770690918,1.4217647314071655,-0.6059696674346924,-0.8399580121040344,-0.2759861946105957,-0.7238031625747681,0.9230479598045349,-3.010652780532837
185,382846,382847,-0.5036280155181885,-0.268958181142807,0.9807352423667908,-16.452281951904297,-12.279007911682129,-1.0804270505905151,-0.6074696183204651,-0.844457745552063,-0.28048595786094666,-0.6724080443382263,0.7116193175315857,-3.0198476314544678
186,382856,382857,-0.3586741089820862,-0.42279690504074097,1.0020556449890137,-22.294523239135742,-16.84444236755371,1.636190414428711,-0.6059696674346924,-0.8579570651054382,-0.27298635244369507,-0.5406680703163147,0.5550487041473389,-3.029524564743042
187,382866,382867,-0.911697506904602,-0.29906678199768066,0.9302628040313721,-23.80587387084961,-7.3586578369140625,1.392583966255188,-0.5969701409339905,-0.8459576964378357,-0.2639867961406708,-0.4018481969833374,0.3792007565498352,-3.0181212425231934
188,382876,382877,-0.5559752583503723,-0.17637912929058075,0.9119861721992493,-24.155725479125977,-7.589440822601318,4.563868522644043,-0.5984700918197632,-0.844457745552063,-0.2564871609210968,-0.2925114929676056,0.13550929725170135,-2.9907217025756836
189,382886,382887,-0.5246663689613342,-0.10791044682264328,0.8927956223487854,-24.69044303894043,-0.6102024912834167,2.514833927154541,-0.5999699831008911,-0.836958110332489,-0.2759861946105957,-0.23554028570652008,-0.06431364268064499,-2.9489376544952393
190,382896,382897,-0.20656515657901764,0.006886736024171114,0.9841727018356323,-29.37473487854004,4.294231414794922,1.7739216089248657,-0.5969701409339905,-0.8399580121040344,-0.2669866383075714,-0.2035069763660431,-0.43542465567588806,-2.9091522693634033
191,382906,382907,-0.14394839107990265,-0.08270411193370819,0.9526782631874084,-24.842632293701172,5.843199253082275,-1.6296254396438599,-0.6059696674346924,-0.8399580121040344,-0.26998651027679443,-0.2550777196884155,-0.7824367880821228,-2.894874095916748
192,382916,382917,-0.16856913268566132,-0.02467457950115204,0.9226967692375183,-19.830224990844727,6.320371150970459,-5.154856204986572,-0.5969701409339905,-0.8489575386047363,-0.26998651027679443,-0.3124874532222748,-0.8364002704620361,-2.931142568588257
193,382926,382927,-0.17037823796272278,-0.005078127142041922,0.9612204432487488,-5.4483795166015625,1.8506858348846436,-5.972754955291748,-0.6104694604873657,-0.844457745552063,-0.2564871609210968,-0.3626053035259247,-1.0884134769439697,-2.9818572998046875
194,382936,382937,-0.24922364950180054,-0.10681846737861633,0.9770222902297974,8.187090873718262,2.286360502243042,-9.794160842895508,-0.6134693026542664,-0.8264586329460144,-0.277486115694046,-0.37981829047203064,-0.9801470041275024,-3.0568768978118896
195,382946,382947,-0.4833507239818573,-0.3029097020626068,0.997048020362854,13.260658264160156,-0.6215043663978577,-9.4086332321167,-0.5924703478813171,-0.8264586329460144,-0.28048595786094666,-0.37921807169914246,-0.7429114580154419,-3.1605749130249023
196,382956,382957,-0.6982810497283936,-0.6793614029884338,1.009494423866272,14.721217155456543,-4.7675652503967285,-13.672630310058594,-0.5999699831008911,-0.8549572229385376,-0.28498575091362,-0.33337438106536865,-0.7013386487960815,-3.256624937057495
197,382966,382967,-0.5746370553970337,-0.6268689632415771,1.0065640211105347,11.42652416229248,-5.944231986999512,-18.692869186401367,-0.6044697761535645,-0.8414579033851624,-0.277486115694046,-0.22195777297019958,-0.5211170315742493,-3.4031660556793213
198,382976,382977,-0.7571180462837219,-0.23205141723155975,0.9821254014968872,12.079996109008789,-8.072466850280762,-21.203336715698242,-0.5984700918197632,-0.8294585347175598,-0.2594870328903198,-0.07799386978149414,-0.4767386317253113,-3.5850276947021484
199,382986,382987,-0.20345881581306458,-0.2528919279575348,0.8589211106300354,17.552961349487305,-9.170446395874023,-24.159059524536133,-0.6044697761535645,-0.844457745552063,-0.2654867172241211,-0.06720981746912003,-0.3520905673503876,-3.8040895462036133
200,382996,382997,-0.0638284757733345,-0.15058636665344238,0.9147487282752991,15.229251861572266,-5.067224502563477,-23.40597152709961,-0.5984700918197632,-0.8474575877189636,-0.28048595786094666,-0.013044816441833973,-0.09422466158866882,-4.052683353424072
201,383006,383007,-0.30011722445487976,-0.1707240641117096,0.9800480008125305,17.765857696533203,-8.59555721282959,-22.948406219482422,-0.6029698252677917,-0.8399580121040344,-0.2759861946105957,0.06501013040542603,0.012464998289942741,-4.282310962677002
202,383016,383017,-1.2321875095367432,-0.2751231789588928,1.0232847929000854,9.668668746948242,-9.777189254760742,-21.79751205444336,-0.6074696183204651,-0.850457489490509,-0.2654867172241211,0.24874837696552277,0.1191408783197403,-4.504992961883545
203,383026,383027,-0.9339683651924133,-0.3404172360897064,1.1344044208526611,3.151329517364502,-9.627900123596191,-17.212543487548828,-0.6074696183204651,-0.8474575877189636,-0.277486115694046,0.32600006461143494,0.24862933158874512,-4.724973201751709
204,383036,383037,-0.6533990502357483,-0.46619099378585815,0.9960950613021851,-4.188328266143799,10.896320343017578,-17.1209716796875,-0.6074696183204651,-0.8264586329460144,-0.28048595786094666,0.3865521550178528,0.2054324895143509,-4.893193244934082
205,383046,383047,-0.8598955869674683,-0.4048667252063751,0.8935158252716064,-26.352928161621094,32.85337448120117,-15.11500358581543,-0.6209689378738403,-0.8249587416648865,-0.2669866383075714,0.16921105980873108,-0.004028865601867437,-5.04097318649292
206,383056,383057,-1.0282692909240723,-0.377617210149765,0.9376316666603088,-36.040443420410156,36.36933898925781,-12.629499435424805,-0.6104694604873657,-0.8264586329460144,-0.26248687505722046,-0.14512985944747925,-0.4809054434299469,-5.15945291519165
207,383066,383067,-1.2114249467849731,-0.4536655843257904,1.008213996887207,-33.49138259887695,30.406265258789062,-12.122966766357422,-0.6104694604873657,-0.8264586329460144,-0.26248687505722046,-0.5204177498817444,-0.4867437481880188,-5.340379238128662
208,383076,383077,-1.1559882164001465,-0.4778536260128021,1.1462090015411377,-18.390159606933594,24.245243072509766,-11.062978744506836,-0.6104694604873657,-0.8264586329460144,-0.26248687505722046,-0.9157384634017944,-0.9001209139823914,-5.447437763214111
209,383086,383087,-1.2688499689102173,-0.33956900238990784,1.1257832050323486,-2.5352439880371094,10.000621795654297,-7.113921642303467,-0.6194689869880676,-0.8174591064453125,-0.26248687505722046,-1.1054404973983765,-1.0489685535430908,-5.547939300537109
210,383096,383097,-0.6093117594718933,-0.11271683871746063,1.1716089248657227,8.737344741821289,-11.885842323303223,-4.09576416015625,-0.6299684643745422,-0.836958110332489,-0.2639867961406708,-1.10271418094635,-1.0154074430465698,-5.612666130065918
211,383106,383107,-0.6066696047782898,-0.21990825235843658,1.086163878440857,22.66205406188965,-35.300254821777344,-1.2667498588562012,-0.6179690957069397,-0.8249587416648865,-0.2639867961406708,-0.8716760873794556,-0.7994182109832764,-5.656839370727539
212,383116,383117,-0.444699764251709,-0.138401061296463,0.9838411808013916,27.311725616455078,-40.909706115722656,-0.1177774965763092,-0.6134693026542664,-0.8234587907791138,-0.2564871609210968,-0.3189603090286255,-0.49230271577835083,-5.673685073852539
213,383126,383127,-0.4135349988937378,-0.537321150302887,1.082818865776062,26.548442840576172,-36.97956466674805,2.423866033554077,-0.6149692535400391,-0.8339582681655884,-0.2639867961406708,0.3054908514022827,-0.6203176975250244,-5.635436534881592
214,383136,383137,-0.1270636022090912,-0.2491297870874405,1.0610668659210205,24.86576271057129,-37.74653244018555,7.896462917327881,-0.6254687309265137,-0.8354582190513611,-0.26848655939102173,0.5042138695716858,-0.16340599954128265,-5.606045722961426
215,383146,383147,-0.030966702848672867,-0.42450183629989624,1.0598024129867554,14.274301528930664,-24.322460174560547,9.310154914855957,-0.6194689869880676,-0.8324583768844604,-0.24448777735233307,0.9097159504890442,0.141490176320076,-5.533907413482666
216,383156,383157,-0.7487046718597412,-0.44789397716522217,1.0337185859680176,12.467891693115234,-10.453478813171387,12.167520523071289,-0.622468888759613,-0.8174591064453125,-0.2594870328903198,0.7223963141441345,0.22621171176433563,-5.413212776184082
217,383166,383167,-0.7295512557029724,-0.40708407759666443,0.9351004958152771,4.357539176940918,23.235652923583984,12.085381507873535,-0.6299684643745422,-0.8099594712257385,-0.2549872398376465,0.7091681361198425,0.3591330349445343,-5.292308807373047
218,383176,383177,-0.7613569498062134,-0.5749191641807556,0.9655070900917053,-4.294343948364258,26.964229583740234,15.729981422424316,-0.622468888759613,-0.8144592642784119,-0.25048747658729553,0.3714829683303833,0.37111803889274597,-5.154537200927734
219,383186,383187,-0.42058005928993225,-0.2703539729118347,1.1294434070587158,-11.674336433410645,28.1096134185791,17.88759994506836,-0.6269686222076416,-0.8129593133926392,-0.2579870820045471,0.1650627851486206,0.2834855318069458,-4.987870693206787
220,383196,383197,-0.6662237048149109,-0.28770771622657776,1.1381783485412598,-2.8678789138793945,16.808124542236328,21.33197593688965,-0.6194689869880676,-0.7994599938392639,-0.25348731875419617,-0.1809617429971695,0.15386749804019928,-4.7966437339782715
221,383206,383207,-0.9797912240028381,-0.30029207468032837,0.9510314464569092,-0.01417172234505415,17.70383071899414,19.72783088684082,-0.6284685730934143,-0.8084595799446106,-0.2564871609210968,-0.2500368654727936,0.11252348124980927,-4.580691337585449
222,383216,383217,-0.6889050602912903,-0.38346168398857117,0.9849363565444946,-1.5029631853103638,-7.112192153930664,23.94400978088379,-0.6209689378738403,-0.8069596290588379,-0.24298784136772156,-0.35622772574424744,0.11361537128686905,-4.369287490844727
223,383226,383227,-0.6233041882514954,-0.1787259429693222,1.0716525316238403,-6.8270769119262695,-19.91126823425293,22.876039505004883,-0.6254687309265137,-0.7994599938392639,-0.25348731875419617,-0.15753938257694244,0.0823431983590126,-4.131056785583496
224,383236,383237,-0.4235379099845886,-0.19956077635288239,1.0367393493652344,-7.081433296203613,-28.677085876464844,23.0043888092041,-0.6284685730934143,-0.80545973777771,-0.2384880781173706,0.15631526708602905,-0.020810309797525406,-3.897911787033081
225,383246,383247,-0.23714616894721985,-0.4353657364845276,0.9601596593856812,-13.424227714538574,-18.5672607421875,19.159927368164062,-0.616469144821167,-0.8024598360061646,-0.2564871609210968,0.556739866733551,-0.16511090099811554,-3.664775848388672
226,383256,383257,-0.4772700071334839,-0.6775832176208496,0.8682625889778137,-13.70752239227295,-18.653276443481445,16.745084762573242,-0.6194689869880676,-0.8264586329460144,-0.24448777735233307,0.4704867899417877,-0.3042673170566559,-3.4781789779663086
227,383266,383267,-0.605471670627594,-0.9924402832984924,0.9048864841461182,-9.259505271911621,-10.371322631835938,15.074117660522461,-0.6119694113731384,-0.797960102558136,-0.24298784136772156,0.6966027617454529,-0.3595336675643921,-3.322230815887451
228,383276,383277,-0.1877557635307312,-0.3839034140110016,0.8928354382514954,-4.29522180557251,-3.2054972648620605,13.448083877563477,-0.6074696183204651,-0.80545973777771,-0.24148792028427124,0.7946540117263794,-0.40600791573524475,-3.1808078289031982
229,383286,383287,-0.01628541387617588,0.2031610906124115,1.0250755548477173,12.884303092956543,-4.758367538452148,14.38897705078125,-0.6194689869880676,-0.7994599938392639,-0.2594870328903198,0.8621638417243958,-0.3862587809562683,-3.0485053062438965
230,383296,383297,-0.28081509470939636,0.12487038969993591,1.0430821180343628,26.93360710144043,-1.8841195106506348,15.150547981262207,-0.6254687309265137,-0.8234587907791138,-0.25048747658729553,0.9108084440231323,-0.09822336584329605,-2.9267940521240234
231,383306,383307,-0.6612987518310547,-0.09877163171768188,0.9376295208930969,39.019325256347656,0.7661768794059753,13.555254936218262,-0.6074696183204651,-0.8174591064453125,-0.2594870328903198,0.8656200766563416,-0.016520390287041664,-2.7392072677612305
232,383316,383317,-0.8736535310745239,-0.7331234812736511,0.8600777387619019,41.422481536865234,-4.467146396636963,12.289056777954102,-0.6209689378738403,-0.8219588994979858,-0.2549872398376465,0.8257220387458801,0.48972535133361816,-2.6272904872894287
233,383326,383327,-1.4699459075927734,-0.5779233574867249,0.8003317713737488,32.015113830566406,1.271047830581665,10.47446346282959,-0.622468888759613,-0.8084595799446106,-0.2384880781173706,0.9894404411315918,0.6233128309249878,-2.458292245864868
234,383336,383337,-0.5538790225982666,-0.5124219655990601,0.8701034784317017,15.255599975585938,-2.562326192855835,7.969939231872559,-0.622468888759613,-0.8234587907791138,-0.2594870328903198,0.9411301016807556,1.1503525972366333,-2.4080774784088135
235,383346,383347,-0.4891667366027832,-0.1583666205406189,1.044363260269165,0.8831139802932739,4.594913959503174,5.81568717956543,-0.6074696183204651,-0.8144592642784119,-0.2474876195192337,0.8841118216514587,1.1372634172439575,-2.3001294136047363
236,383356,383357,-0.3313101828098297,-0.2882620394229889,1.0219975709915161,-13.067680358886719,6.868562698364258,5.513062477111816,-0.6089695692062378,-0.8249587416648865,-0.2639867961406708,0.7683377265930176,1.0227411985397339,-2.2211780548095703
237,383366,383367,-0.6147682070732117,-0.5639589428901672,0.8613712191581726,-27.3397159576416,21.29740333557129,4.146859169006348,-0.6044697761535645,-0.8204589486122131,-0.26848655939102173,0.6092948913574219,0.741810142993927,-2.143625020980835
238,383376,383377,-0.8913868069648743,-0.427765816450119,0.949675977230072,-34.89115524291992,23.767902374267578,2.659846544265747,-0.6074696183204651,-0.8174591064453125,-0.2654867172241211,0.33552953600883484,0.42955124378204346,-2.1006224155426025
239,383386,383387,-1.0999679565429688,-1.1130656003952026,1.029866337776184,-33.438568115234375,22.351856231689453,0.7244772911071777,-0.6104694604873657,-0.8234587907791138,-0.26248687505722046,0.1186671108007431,0.11113391816616058,-2.0789220333099365
240,383396,383397,-0.3561093211174011,-0.8112425208091736,1.0566637516021729,-29.26744270324707,17.89845848083496,0.6816315054893494,-0.5969701409339905,-0.8219588994979858,-0.2639867961406708,-0.13612444698810577,-0.37426048517227173,-2.0438504219055176
241,383406,383407,-0.03355209529399872,-0.03631692752242088,1.003345251083374,-13.67991828918457,18.519092559814453,-0.8328612446784973,-0.6044697761535645,-0.8234587907791138,-0.25348731875419617,-0.3405393362045288,-0.4656541645526886,-2.0790598392486572
242,383416,383417,-0.4972669780254364,-0.11305180191993713,0.9677262306213379,-2.4488577842712402,10.051973342895508,0.9935473799705505,-0.6119694113731384,-0.8159592151641846,-0.2639867961406708,-0.591023862361908,-0.6051303148269653,-2.0840871334075928
243,383426,383427,-1.1237339973449707,-0.2214221954345703,0.8166347742080688,15.861594200134277,12.240227699279785,-2.796853542327881,-0.6074696183204651,-0.80545973777771,-0.2654867172241211,-0.7408615350723267,-0.543444812297821,-2.093627452850342
244,383436,383437,-0.5726239085197449,-0.3109619617462158,0.9125737547874451,22.147972106933594,6.010606288909912,-0.4263046085834503,-0.622468888759613,-0.8204589486122131,-0.277486115694046,-0.6026495099067688,-0.22738954424858093,-2.12593150138855
245,383446,383447,-0.3446919918060303,-0.3544428050518036,0.98851478099823,27.655248641967773,-15.52695369720459,-0.044780392199754715,-0.6179690957069397,-0.8249587416648865,-0.27298635244369507,-0.5713801980018616,0.05838938429951668,-2.132827043533325
246,383456,383457,-0.4547940194606781,-0.18062937259674072,1.0576211214065552,20.787296295166016,-29.65147590637207,1.3591690063476562,-0.6149692535400391,-0.836958110332489,-0.26998651027679443,-0.464592844247818,0.29703810811042786,-2.129239320755005
247,383466,383467,-0.7106330990791321,-0.17314356565475464,0.9763456583023071,18.280912399291992,-25.97956657409668,-0.34435322880744934,-0.5909704566001892,-0.8459576964378357,-0.2759861946105957,0.029876500368118286,0.5687694549560547,-2.1259114742279053
248,383476,383477,-1.1834559440612793,-0.20618674159049988,0.9748671054840088,7.030054092407227,-26.201807022094727,0.49459898471832275,-0.6134693026542664,-0.8414579033851624,-0.27148643136024475,0.06657268106937408,0.613868236541748,-2.1235504150390625
249,383486,383487,-0.833375871181488,-1.0783977508544922,0.9774031639099121,-0.2646840214729309,-20.866823196411133,1.0551369190216064,-0.6074696183204651,-0.8474575877189636,-0.27148643136024475,0.27627336978912354,0.6480870842933655,-2.1197986602783203
250,383496,383497,-0.9957010746002197,-0.7832089066505432,1.0816670656204224,-5.461644649505615,-17.41301918029785,1.7691032886505127,-0.5924703478813171,-0.8324583768844604,-0.2564871609210968,0.46788835525512695,0.6300026178359985,-2.1131179332733154
251,383506,383507,-0.6487378478050232,-0.2610393762588501,1.1099658012390137,-10.619661331176758,-8.065818786621094,0.8853671550750732,-0.5954701900482178,-0.8354582190513611,-0.2744862735271454,0.6513239741325378,0.541075587272644,-2.096834897994995
252,383516,383517,-0.17364540696144104,-0.5890649557113647,0.9826778173446655,-12.860626220703125,-12.099812507629395,-2.531355381011963,-0.5864706635475159,-0.8414579033851624,-0.2744862735271454,0.6549614667892456,0.37068507075309753,-2.0960898399353027
253,383526,383527,-0.06077887490391731,-0.37731119990348816,0.9139124155044556,-9.657289505004883,-6.603392601013184,-3.841264247894287,-0.5969701409339905,-0.8489575386047363,-0.2669866383075714,0.6926920413970947,0.18834827840328217,-2.122750759124756
254,383536,383537,-0.2187628448009491,-0.19857075810432434,0.9698873162269592,5.078488826751709,-5.575730800628662,-5.851569652557373,-0.5939702987670898,-0.836958110332489,-0.26998651027679443,0.8102460503578186,0.1768139749765396,-2.1698098182678223
255,383546,383547,-0.43293285369873047,-0.224683478474617,0.8968262672424316,12.637101173400879,-7.871677398681641,-5.924895763397217,-0.5879706144332886,-0.8429578542709351,-0.2759861946105957,0.6851235032081604,0.26108041405677795,-2.242860794067383
256,383556,383557,-0.34643983840942383,-0.21842408180236816,0.8417064547538757,25.156633377075195,-9.506820678710938,-8.006659507751465,-0.6059696674346924,-0.8399580121040344,-0.26998651027679443,0.7213679552078247,0.4176647961139679,-2.307349920272827
257,383566,383567,-0.28332075476646423,-0.381540447473526,0.8948562145233154,27.834135055541992,-11.350613594055176,-6.475253582000732,-0.5849707126617432,-0.8639568090438843,-0.2759861946105957,0.8272827863693237,0.8739955425262451,-2.4105961322784424
258,383576,383577,-0.26862919330596924,-0.26927897334098816,0.9567360877990723,26.651674270629883,-18.86175537109375,-5.997685432434082,-0.5939702987670898,-0.8699564933776855,-0.28198590874671936,0.9766702651977539,0.9847549796104431,-2.452725887298584
259,383586,383587,-0.4037165343761444,-0.19702093303203583,1.0136271715164185,16.691232681274414,-18.865964889526367,-7.1453423500061035,-0.5879706144332886,-0.8699564933776855,-0.27298635244369507,1.3235907554626465,1.1791772842407227,-2.503005027770996
260,383596,383597,-0.24941210448741913,-0.38309842348098755,1.0244576930999756,9.577202796936035,-17.378337860107422,-7.108261585235596,-0.5804709792137146,-0.8684565424919128,-0.28948551416397095,1.2872464656829834,1.4360426664352417,-2.612166404724121
261,383606,383607,-0.2013702392578125,-0.964074969291687,1.1284518241882324,0.5898833274841309,-18.801279067993164,-4.442013740539551,-0.5759711861610413,-0.8609569072723389,-0.28498575091362,1.5251771211624146,1.4131293296813965,-2.66422176361084
262,383616,383617,-0.4048530161380768,-0.21144452691078186,1.075033187866211,-8.826645851135254,-8.480793952941895,-6.718665599822998,-0.5804709792137146,-0.8654567003250122,-0.28948551416397095,1.6085642576217651,1.3121761083602905,-2.7158689498901367
263,383626,383627,-0.36522579193115234,0.04609009250998497,1.103538990020752,-21.12672996520996,-5.643731117248535,-5.0772528648376465,-0.5564721822738647,-0.8684565424919128,-0.2834858298301697,1.6816400289535522,1.123523473739624,-2.769876480102539
264,383636,383637,-0.6018931865692139,-0.07626792788505554,1.110514760017395,-29.11937141418457,13.969640731811523,-7.287736892700195,-0.5789710283279419,-0.8819558620452881,-0.3029848337173462,1.6011619567871094,0.7234813570976257,-2.802485466003418
265,383646,383647,-0.4023638069629669,-0.22358684241771698,1.1944540739059448,-30.46575355529785,22.735443115234375,-4.253112316131592,-0.5729713439941406,-0.8669566512107849,-0.27898603677749634,1.3324304819107056,0.5459226965904236,-2.9081013202667236
266,383656,383657,-0.3491196036338806,-0.03946930170059204,1.091172218322754,-21.205909729003906,28.68988037109375,-3.5626096725463867,-0.5654717087745667,-0.8684565424919128,-0.28948551416397095,0.9306756258010864,0.2657284438610077,-2.9675230979919434
267,383666,383667,-0.19103920459747314,0.2046644687652588,1.0598827600479126,-20.279443740844727,29.237533569335938,-8.355480194091797,-0.5819708704948425,-0.8759561777114868,-0.27898603677749634,0.6065929532051086,0.23623789846897125,-3.064171075820923
268,383676,383677,-0.18567945063114166,0.038133807480335236,1.2494291067123413,-10.428995132446289,17.59646987915039,-9.716635704040527,-0.5849707126617432,-0.8459576964378357,-0.28198590874671936,0.5335596203804016,0.005262952297925949,-3.1113219261169434
269,383686,383687,-0.04072592779994011,0.0003076543507631868,1.3076725006103516,-1.5153508186340332,5.098693370819092,-10.834970474243164,-0.5834708213806152,-0.8594570159912109,-0.2864856719970703,0.41093289852142334,-0.01258810143917799,-3.2281785011291504
270,383696,383697,-0.14676012098789215,-0.03279733285307884,1.1286487579345703,5.322787284851074,-4.4897966384887695,-12.97976016998291,-0.5744712948799133,-0.8744562864303589,-0.2864856719970703,0.43197378516197205,0.01869742013514042,-3.343986988067627
271,383706,383707,-0.27031317353248596,-0.07123349606990814,1.1274456977844238,8.308829307556152,-8.843358039855957,-14.004379272460938,-0.5879706144332886,-0.8579570651054382,-0.29098543524742126,0.5809767246246338,0.13004162907600403,-3.479245901107788
272,383716,383717,-0.12242009490728378,-0.011973627842962742,1.2300587892532349,9.287603378295898,-17.98973274230957,-12.150927543640137,-0.5864706635475159,-0.850457489490509,-0.2744862735271454,0.53810715675354,0.29107245802879333,-3.6505672931671143
273,383726,383727,-0.23160812258720398,0.07648129761219025,1.2201811075210571,17.577857971191406,-26.198959350585938,-10.449885368347168,-0.5939702987670898,-0.8639568090438843,-0.29098543524742126,0.6200612783432007,0.4916398227214813,-3.797969102859497
274,383736,383737,-1.0231599807739258,0.18989965319633484,1.1188591718673706,22.391080856323242,-21.70504379272461,-10.603118896484375,-0.5834708213806152,-0.8654567003250122,-0.2744862735271454,1.0687230825424194,0.7916994094848633,-3.9075305461883545
275,383746,383747,-1.3545135259628296,-0.0034509163815528154,1.1629133224487305,20.607023239135742,-16.879915237426758,-9.391522407531738,-0.5984700918197632,-0.8654567003250122,-0.2834858298301697,1.264675498008728,0.7956821918487549,-3.9726319313049316
276,383756,383757,-0.4296691119670868,-0.5325261354446411,1.0286675691604614,26.342639923095703,-19.126291275024414,-8.426092147827148,-0.5834708213806152,-0.8474575877189636,-0.26848655939102173,1.5370652675628662,1.08497953414917,-4.079967975616455
277,383766,383767,-0.33675646781921387,-0.5369002819061279,1.0338513851165771,23.224863052368164,-9.610584259033203,-10.264792442321777,-0.5894705057144165,-0.844457745552063,-0.277486115694046,1.8110544681549072,1.2750385999679565,-4.147345066070557
278,383776,383777,-0.3388655185699463,-0.2957933843135834,1.015487551689148,13.074905395507812,-1.6096484661102295,-10.676133155822754,-0.5849707126617432,-0.8459576964378357,-0.2759861946105957,1.6575446128845215,1.6694077253341675,-4.31134557723999
279,383786,383787,-0.37419894337654114,-0.1612415611743927,0.9319483637809753,7.3190741539001465,7.363202095031738,-12.182750701904297,-0.5984700918197632,-0.8414579033851624,-0.2654867172241211,1.6517376899719238,1.8038383722305298,-4.4244513511657715
280,383796,383797,-0.37051981687545776,-0.3321613669395447,1.0107783079147339,-13.469372749328613,16.863361358642578,-10.345555305480957,-0.5939702987670898,-0.8669566512107849,-0.27298635244369507,1.396454930305481,1.776955008506775,-4.552696704864502
281,383806,383807,-0.35391005873680115,-0.33928900957107544,1.0432580709457397,-26.051921844482422,15.072888374328613,-12.18579387664795,-0.5924703478813171,-0.850457489490509,-0.277486115694046,1.512253999710083,1.3804433345794678,-4.570206165313721
282,383816,383817,-0.577193021774292,0.06562246382236481,1.0846785306930542,-37.751399993896484,13.892208099365234,-14.457582473754883,-0.5834708213806152,-0.8354582190513611,-0.2834858298301697,1.1236920356750488,1.034593939781189,-4.719403266906738
283,383826,383827,-1.235984206199646,-0.06377130001783371,1.1484825611114502,-31.199800491333008,6.816120624542236,-13.1914701461792,-0.5744712948799133,-0.844457745552063,-0.277486115694046,0.9135027527809143,0.5226817727088928,-4.837182998657227
284,383836,383837,-0.7574625015258789,-0.4644804298877716,0.9785102009773254,-16.838308334350586,10.506025314331055,-13.80925464630127,-0.5984700918197632,-0.8624568581581116,-0.27148643136024475,0.9324872493743896,0.48167771100997925,-5.011542797088623
285,383846,383847,-0.7084729075431824,-0.8426312208175659,0.8726823925971985,-3.812699317932129,15.832723617553711,-12.83450698852539,-0.5894705057144165,-0.8534573316574097,-0.2654867172241211,0.8630352020263672,0.468783974647522,-5.162991523742676
286,383856,383857,-0.9149600267410278,-0.43649616837501526,1.0309480428695679,11.453534126281738,8.221481323242188,-10.960935592651367,-0.5849707126617432,-0.8339582681655884,-0.2759861946105957,0.7652524709701538,0.48794934153556824,-5.279638767242432
287,383866,383867,-0.4576108753681183,-0.5488866567611694,1.1271580457687378,29.642229080200195,-3.8209948539733887,-10.53514289855957,-0.5999699831008911,-0.8699564933776855,-0.28798559308052063,0.723556399345398,0.7749965190887451,-5.40730619430542
288,383876,383877,-0.15449728071689606,-0.4603835642337799,1.0766619443893433,36.37614059448242,-3.113396644592285,-10.479081153869629,-0.5999699831008911,-0.8609569072723389,-0.28498575091362,0.8059018850326538,1.1878358125686646,-5.527355194091797
289,383886,383887,-0.5520304441452026,-0.7213535308837891,1.0271186828613281,30.61882209777832,-4.822717189788818,-10.033598899841309,-0.5969701409339905,-0.8789560198783875,-0.28198590874671936,0.8788025975227356,1.4980559349060059,-5.621707916259766
290,383896,383897,-0.8056285977363586,-0.23153020441532135,0.9754933714866638,19.590335845947266,-6.5783209800720215,-10.337630271911621,-0.6044697761535645,-0.8774561285972595,-0.2834858298301697,0.9230623245239258,1.7984753847122192,-5.734796524047852
291,383906,383907,-0.5998456478118896,-0.12192349135875702,1.0874269008636475,-5.024277210235596,-8.906250953674316,-7.698962211608887,-0.5939702987670898,-0.8699564933776855,-0.28798559308052063,0.9819873571395874,1.940247893333435,-5.836968421936035
292,383916,383917,-0.9960823655128479,-0.2707531750202179,1.075011968612671,-9.138463020324707,-1.7554863691329956,-4.002610206604004,-0.5879706144332886,-0.8669566512107849,-0.28198590874671936,0.9717355370521545,1.7516515254974365,-5.892864227294922
293,383926,383927,-0.6084478497505188,-0.06942611187696457,1.0026592016220093,-20.826034545898438,18.162336349487305,-3.020866870880127,-0.5819708704948425,-0.8639568090438843,-0.2969851493835449,0.8423581719398499,1.523357629776001,-5.927680969238281
294,383936,383937,-0.4369737207889557,-0.07314446568489075,1.1912651062011719,-36.70311737060547,16.067174911499023,0.41060715913772583,-0.5939702987670898,-0.8759561777114868,-0.28498575091362,0.5780717730522156,1.3320460319519043,-5.972681999206543
295,383946,383947,-0.4811982214450836,-0.10557983815670013,1.0493360757827759,-33.97401809692383,9.521355628967285,-0.21034221351146698,-0.5849707126617432,-0.8609569072723389,-0.2939853072166443,0.3097333610057831,0.9754843711853027,-5.984163284301758
296,383956,383957,-0.37993377447128296,-0.26393038034439087,0.8298965096473694,-33.59974670410156,14.822051048278809,-1.2638956308364868,-0.5939702987670898,-0.8759561777114868,-0.28198590874671936,0.2937436103820801,0.49741873145103455,-5.942910671234131
297,383966,383967,-0.7471557259559631,-0.2885432541370392,0.9006837606430054,-34.673423767089844,8.639945983886719,0.9093687534332275,-0.5849707126617432,-0.8549572229385376,-0.28798559308052063,0.15991957485675812,0.24660278856754303,-5.965854644775391
298,383976,383977,-0.21458327770233154,-0.17463475465774536,1.0610451698303223,-32.0741081237793,-2.705744981765747,2.2447729110717773,-0.5849707126617432,-0.8549572229385376,-0.28798559308052063,0.27922022342681885,-0.06976110488176346,-5.92896842956543
299,383986,383987,0.0696067288517952,0.06084771081805229,1.0467888116836548,-25.270559310913086,-10.073127746582031,2.039177656173706,-0.5849707126617432,-0.8549572229385376,-0.28798559308052063,0.2922310531139374,-0.18622371554374695,-5.933416843414307
300,383996,383997,-0.18688610196113586,0.0894518792629242,1.1861180067062378,-19.281179428100586,-7.946969509124756,3.068174362182617,-0.5894705057144165,-0.8684565424919128,-0.28948551416397095,0.4239993095397949,-0.48964065313339233,-5.8885698318481445
301,384006,384007,-0.4958154857158661,-0.20198698341846466,1.145418405532837,-13.803009033203125,-2.337979555130005,4.096224308013916,-0.5924703478813171,-0.8744562864303589,-0.28948551416397095,0.5036004781723022,-0.5337745547294617,-5.865198612213135
302,384016,384017,-0.2605256736278534,-0.2444801777601242,1.085534930229187,-8.40692138671875,7.9153289794921875,3.628098249435425,-0.5954701900482178,-0.8624568581581116,-0.2924853563308716,0.47196337580680847,-0.6560989022254944,-5.829082012176514
303,384026,384027,-0.33424806594848633,-0.3606265187263489,0.9528884291648865,-5.537989616394043,8.698287010192871,2.7017979621887207,-0.6029698252677917,-0.8579570651054382,-0.29098543524742126,0.2675953507423401,-0.8587934970855713,-5.795227527618408
304,384036,384037,-0.26128020882606506,-0.5058063864707947,0.8864530324935913,-7.642521381378174,11.123995780944824,1.3194656372070312,-0.5954701900482178,-0.8564571738243103,-0.2834858298301697,0.1394726186990738,-0.7490819692611694,-5.779285430908203
305,384046,384047,-0.265869140625,-0.336309552192688,1.0593348741531372,-4.9481282234191895,13.833938598632812,1.7311407327651978,-0.5984700918197632,-0.8654567003250122,-0.2924853563308716,-0.022878410294651985,-0.7807029485702515,-5.766718864440918
306,384056,384057,-0.18045221269130707,-0.4702431261539459,1.0510544776916504,-3.476579189300537,11.710572242736816,0.8349151015281677,-0.6029698252677917,-0.8489575386047363,-0.28498575091362,-0.07377497851848602,-0.8523156046867371,-5.755997657775879
307,384066,384067,-0.9138257503509521,-0.618480920791626,1.0109864473342896,-1.966323971748352,9.279247283935547,-1.2850120067596436,-0.6029698252677917,-0.8609569072723389,-0.27298635244369507,-0.22873322665691376,-0.9161059260368347,-5.753478050231934
308,384076,384077,-0.5093736052513123,-0.44103026390075684,1.0343862771987915,-4.0458083152771,-2.627190589904785,-1.7134255170822144,-0.6014699339866638,-0.8474575877189636,-0.2744862735271454,-0.24460189044475555,-0.9351325631141663,-5.768895626068115
309,384086,384087,-0.4259131848812103,-0.14324775338172913,1.1787434816360474,-3.7560548782348633,-18.946002960205078,-1.3684730529785156,-0.5954701900482178,-0.8474575877189636,-0.2744862735271454,-0.07615576684474945,-0.9565549492835999,-5.791819095611572
310,384096,384097,-0.4392736852169037,-0.09365677088499069,1.2195597887039185,-1.1366584300994873,-28.070207595825195,-1.710664987564087,-0.5909704566001892,-0.8549572229385376,-0.28498575091362,0.12928521633148193,-1.0700443983078003,-5.80717134475708
311,384106,384107,-0.42339277267456055,-0.7587314248085022,1.122308373451233,-5.224381923675537,-21.507789611816406,-1.3183976411819458,-0.5909704566001892,-0.8399580121040344,-0.28198590874671936,0.27780044078826904,-1.0894798040390015,-5.807223320007324
312,384116,384117,-1.1120963096618652,-0.772830069065094,1.113608956336975,-9.358335494995117,-18.66896629333496,0.35626453161239624,-0.5909704566001892,-0.8399580121040344,-0.27898603677749634,0.5665405988693237,-1.0894125699996948,-5.820653438568115
313,384126,384127,-0.4957369863986969,-0.5176417827606201,1.0460894107818604,-9.313385009765625,-12.886035919189453,1.7076876163482666,-0.5984700918197632,-0.8294585347175598,-0.27148643136024475,0.8173242211341858,-1.1748371124267578,-5.828915596008301
314,384136,384137,-0.14728333055973053,-0.35957878828048706,0.9874909520149231,-12.252822875976562,-1.7804906368255615,1.2072765827178955,-0.5909704566001892,-0.8399580121040344,-0.27298635244369507,0.7923709154129028,-1.282522201538086,-5.7936272621154785
315,384146,384147,-0.23877599835395813,-0.37013399600982666,0.98382967710495,-17.59571075439453,13.721254348754883,2.9533629417419434,-0.6029698252677917,-0.8489575386047363,-0.2639867961406708,0.725253701210022,-1.5706801414489746,-5.76945686340332
316,384156,384157,-0.2076534926891327,-0.6214508414268494,1.1270174980163574,-16.66975975036621,20.244247436523438,3.4788818359375,-0.6044697761535645,-0.8114594221115112,-0.26248687505722046,0.44933000206947327,-1.6193369626998901,-5.727117538452148
317,384166,384167,-0.25513800978660583,-0.6925637125968933,1.0042657852172852,-10.709287643432617,23.506574630737305,1.5404492616653442,-0.5954701900482178,-0.8144592642784119,-0.25048747658729553,0.17749837040901184,-1.9141136407852173,-5.692347526550293
318,384176,384177,-0.4890008866786957,-0.32135194540023804,0.8937540650367737,-7.939162254333496,22.171751022338867,-0.1462852656841278,-0.6149692535400391,-0.8399580121040344,-0.2759861946105957,-0.022450974211096764,-1.8442378044128418,-5.686427593231201
319,384186,384187,-0.31691601872444153,-0.17793700098991394,0.9962841272354126,3.5191924571990967,16.420957565307617,-0.04340101405978203,-0.6134693026542664,-0.8144592642784119,-0.26248687505722046,-0.2899993062019348,-1.9471824169158936,-5.671886920928955
320,384196,384197,-0.2982980012893677,-0.27526840567588806,1.02483069896698,20.120195388793945,6.9771904945373535,-0.03953281417489052,-0.6119694113731384,-0.8309584259986877,-0.2549872398376465,-0.29663652181625366,-1.8211981058120728,-5.705672264099121
321,384206,384207,-0.6271712183952332,-0.3843773603439331,1.0210189819335938,35.36568069458008,-5.299837112426758,-0.6277042627334595,-0.5954701900482178,-0.8324583768844604,-0.277486115694046,-0.32817232608795166,-1.510888934135437,-5.709646224975586
322,384216,384217,-0.3824051320552826,-0.07786304503679276,1.1197328567504883,40.37424850463867,-13.752028465270996,-0.5459170341491699,-0.6104694604873657,-0.8324583768844604,-0.2744862735271454,-0.18530365824699402,-1.0031946897506714,-5.731228828430176
323,384226,384227,-0.3876180350780487,0.060546912252902985,1.0496916770935059,43.60755920410156,-18.10173797607422,0.6980921030044556,-0.6119694113731384,-0.8309584259986877,-0.28198590874671936,-0.0034148143604397774,-0.706824004650116,-5.747838020324707
324,384236,384237,-1.6287389993667603,-0.5701628923416138,0.8266874551773071,43.52454376220703,-17.244970321655273,1.0161726474761963,-0.6149692535400391,-0.8489575386047363,-0.27898603677749634,0.10799235850572586,-0.28619059920310974,-5.711646556854248
325,384246,384247,-1.580294132232666,-0.5689905881881714,0.9462266564369202,25.504074096679688,-14.48878002166748,2.3555192947387695,-0.6044697761535645,-0.8384580612182617,-0.277486115694046,0.44126057624816895,0.21071182191371918,-5.729057312011719
326,384256,384257,-0.8909639120101929,-0.39860156178474426,1.2129775285720825,11.337711334228516,-31.744930267333984,3.859529733657837,-0.6059696674346924,-0.836958110332489,-0.26098695397377014,0.5418895483016968,0.307325541973114,-5.688385009765625
327,384266,384267,-0.796195387840271,-0.37011849880218506,1.198096513748169,-8.729671478271484,-28.47534942626953,4.246855735778809,-0.6014699339866638,-0.844457745552063,-0.2654867172241211,0.8902913928031921,0.20817193388938904,-5.6651530265808105
328,384276,384277,-1.1807852983474731,-0.4664838910102844,1.0477867126464844,-22.169538497924805,-25.177099227905273,5.810428142547607,-0.6029698252677917,-0.8489575386047363,-0.2669866383075714,1.2100067138671875,-0.005393060855567455,-5.6283650398254395
329,384286,384287,-0.7291784882545471,-0.4349702000617981,1.0311434268951416,-44.450687408447266,-5.384082794189453,6.303321838378906,-0.5939702987670898,-0.8429578542709351,-0.27898603677749634,1.4151251316070557,-0.40264421701431274,-5.566051006317139
330,384296,384297,-0.3375542461872101,-0.228495255112648,1.074654459953308,-47.5766487121582,4.074043273925781,9.333597183227539,-0.5864706635475159,-0.8204589486122131,-0.26848655939102173,1.2635853290557861,-0.9715700149536133,-5.460625171661377
331,384306,384307,-0.04694806784391403,-0.0905093103647232,0.9575544595718384,-44.48374557495117,21.787363052368164,10.136387825012207,-0.5864706635475159,-0.8204589486122131,-0.2654867172241211,1.039785623550415,-1.18973970413208,-5.346879005432129
332,384316,384317,-0.010925378650426865,-0.2444401979446411,0.9627129435539246,-34.34620666503906,33.00410842895508,11.45796012878418,-0.5999699831008911,-0.8159592151641846,-0.2459876984357834,0.619437575340271,-1.743542194366455,-5.21902322769165
333,384326,384327,-0.09577277302742004,-0.25856202840805054,1.0178732872009277,-24.50102424621582,37.637271881103516,8.929791450500488,-0.6059696674346924,-0.8189590573310852,-0.26098695397377014,0.3151431679725647,-1.8619848489761353,-5.132288932800293
334,384336,384337,-0.12528091669082642,-0.3670605719089508,0.9551377296447754,-9.966699600219727,35.14442443847656,6.147204875946045,-0.6104694604873657,-0.8114594221115112,-0.24448777735233307,-0.17774935066699982,-2.001295566558838,-5.037191867828369
335,384346,384347,-0.4248625636100769,-0.11990534514188766,1.0555226802825928,4.142252445220947,23.10038185119629,2.7100830078125,-0.6059696674346924,-0.8129593133926392,-0.2549872398376465,-0.37451574206352234,-2.0631721019744873,-5.0186872482299805
336,384356,384357,-0.5243281722068787,-0.02010495401918888,0.9606245756149292,21.413333892822266,9.904197692871094,-0.846524715423584,-0.6254687309265137,-0.8024598360061646,-0.26248687505722046,-0.5785543918609619,-1.8754979372024536,-5.005054950714111
337,384366,384367,-0.1885605752468109,0.031223993748426437,0.955072283744812,29.7861328125,-13.358769416809082,-2.16930890083313,-0.6134693026542664,-0.8234587907791138,-0.2594870328903198,-0.5551525950431824,-1.500938057899475,-5.026364326477051
338,384376,384377,-0.1511482149362564,-0.1079990342259407,0.9492656588554382,33.7856559753418,-22.841896057128906,-3.1784310340881348,-0.623968780040741,-0.8159592151641846,-0.26998651027679443,-0.3403213620185852,-1.2381917238235474,-5.065812587738037
339,384386,384387,-0.8059381246566772,-0.7858449816703796,0.9231188297271729,32.53047180175781,-30.555036544799805,-3.352987766265869,-0.6089695692062378,-0.8099594712257385,-0.2669866383075714,0.030931133776903152,-0.9437668919563293,-5.127688884735107
340,384396,384397,-0.6984356641769409,-0.7633330821990967,0.9502020478248596,22.70781707763672,-37.63136672973633,-1.5426785945892334,-0.5999699831008911,-0.8129593133926392,-0.26098695397377014,0.3102632164955139,-0.7585329413414001,-5.138772010803223
341,384406,384407,-0.2679591476917267,-0.5068842768669128,0.9442521333694458,11.657449722290039,-38.92227554321289,-1.5254185199737549,-0.6014699339866638,-0.8114594221115112,-0.2594870328903198,0.731995701789856,-0.45556867122650146,-5.155860424041748
342,384416,384417,-0.1947479397058487,-0.18020491302013397,0.949658989906311,2.957106351852417,-30.918603897094727,-1.2555303573608398,-0.6134693026542664,-0.8174591064453125,-0.25048747658729553,1.2690881490707397,-0.5518182516098022,-5.220178604125977
343,384426,384427,-0.46496984362602234,-0.18540850281715393,0.9342948198318481,-3.525534152984619,-17.121768951416016,0.01800651289522648,-0.5924703478813171,-0.8264586329460144,-0.26248687505722046,1.438852071762085,-0.5663078427314758,-5.20093297958374
344,384436,384437,-0.3407306969165802,-0.338654488325119,0.8450435400009155,-4.579357624053955,-9.448969841003418,2.1972815990448,-0.5939702987670898,-0.8279585838317871,-0.2669866383075714,1.4715123176574707,-0.6474899649620056,-5.166066646575928
345,384446,384447,-0.3763800263404846,-0.32259392738342285,0.8390932083129883,-1.3628933429718018,0.6302880644798279,3.6067657470703125,-0.5939702987670898,-0.8249587416648865,-0.2669866383075714,1.495507836341858,-0.642288327217102,-5.132492542266846
346,384456,384457,-0.7749361991882324,-0.3444526493549347,1.0132657289505005,9.883932113647461,8.846357345581055,6.6877760887146,-0.5999699831008911,-0.836958110332489,-0.26998651027679443,1.4446278810501099,-0.6245802044868469,-5.089295387268066
347,384466,384467,-0.868884801864624,-0.09456047415733337,1.0449061393737793,17.51698875427246,13.175223350524902,9.564493179321289,-0.5999699831008911,-0.8339582681655884,-0.2669866383075714,1.225364089012146,-0.43879103660583496,-4.998963832855225
348,384476,384477,-0.17636406421661377,-0.49428343772888184,0.9385823011398315,20.7349796295166,9.476360321044922,11.635915756225586,-0.5894705057144165,-0.8264586329460144,-0.2834858298301697,1.170745611190796,-0.2776932120323181,-4.906375885009766
349,384486,384487,-0.7546897530555725,-0.5049726963043213,0.9635000228881836,21.75900650024414,6.7334747314453125,14.986715316772461,-0.5969701409339905,-0.8489575386047363,-0.2759861946105957,1.034078598022461,0.06880880147218704,-4.7848310470581055
350,384496,384497,-0.8504491448402405,-0.45560839772224426,1.0253444910049438,18.950960159301758,3.3477914333343506,18.311185836791992,-0.5924703478813171,-0.8414579033851624,-0.26848655939102173,0.9590481519699097,0.1320662945508957,-4.613389015197754
351,384506,384507,-0.305193692445755,-0.1717006266117096,1.0436384677886963,10.533594131469727,2.7050156593322754,19.370498657226562,-0.5849707126617432,-0.8639568090438843,-0.2759861946105957,0.9255823493003845,0.3238542973995209,-4.427433013916016
352,384516,384517,-0.9145826697349548,-0.20316259562969208,0.9920142292976379,-6.414356708526611,7.970573425292969,22.456676483154297,-0.5894705057144165,-0.850457489490509,-0.277486115694046,0.8686199188232422,0.32948654890060425,-4.212273597717285
353,384526,384527,-0.8005957007408142,-0.642254114151001,0.9257665872573853,-18.38780975341797,17.470687866210938,23.19922637939453,-0.5879706144332886,-0.8609569072723389,-0.26998651027679443,0.7419024705886841,0.21570739150047302,-3.975994110107422
354,384536,384537,-0.4902805685997009,-0.290106862783432,0.8882063627243042,-33.872432708740234,22.92584991455078,24.551809310913086,-0.5804709792137146,-0.8594570159912109,-0.2834858298301697,0.5297214388847351,-0.18665599822998047,-3.715996265411377
355,384546,384547,-0.10999755561351776,-0.08653699606657028,0.9932364821434021,-41.087120056152344,30.500783920288086,23.47515296936035,-0.5864706635475159,-0.8564571738243103,-0.277486115694046,0.33622702956199646,-0.5026955008506775,-3.4834139347076416
356,384556,384557,-0.34782013297080994,0.004683355800807476,1.0435703992843628,-41.7169075012207,35.48174285888672,22.16066551208496,-0.5729713439941406,-0.8399580121040344,-0.2669866383075714,-0.18876725435256958,-0.9055912494659424,-3.2467610836029053
357,384566,384567,-0.20326603949069977,0.0021769553422927856,1.0790295600891113,-33.56572341918945,32.521854400634766,20.663969039916992,-0.5834708213806152,-0.8534573316574097,-0.2744862735271454,-0.2504323422908783,-1.2559720277786255,-3.053743600845337
358,384576,384577,-0.16264070570468903,-0.09002359956502914,1.0613607168197632,-18.87802505493164,26.156444549560547,20.93230438232422,-0.5804709792137146,-0.8384580612182617,-0.2744862735271454,-0.7574363350868225,-1.586013913154602,-2.842352867126465
359,384586,384587,-0.5127562880516052,-0.04513638839125633,1.1301058530807495,-5.00154447555542,19.795360565185547,20.647123336791992,-0.5864706635475159,-0.8534573316574097,-0.27148643136024475,-0.8689489960670471,-1.6697907447814941,-2.652012825012207
360,384596,384597,-0.2922513484954834,-0.16696250438690186,1.083235740661621,11.429790496826172,9.42928695678711,21.5817928314209,-0.5804709792137146,-0.8594570159912109,-0.26248687505722046,-1.0059996843338013,-1.6151161193847656,-2.4517734050750732
361,384606,384607,-0.22135204076766968,-0.07677867263555527,1.0358973741531372,26.01767349243164,1.3606618642807007,21.647310256958008,-0.5939702987670898,-0.851957380771637,-0.26998651027679443,-1.1087230443954468,-1.3470059633255005,-2.2300820350646973
362,384616,384617,-0.24140428006649017,-0.13774052262306213,1.0224570035934448,31.725000381469727,-9.017888069152832,20.071006774902344,-0.5864706635475159,-0.8534573316574097,-0.28048595786094666,-0.988350510597229,-0.9990012645721436,-2.026172637939453
363,384626,384627,-0.16708523035049438,-0.0915854200720787,1.0351885557174683,30.447227478027344,-16.274341583251953,18.439006805419922,-0.5864706635475159,-0.8594570159912109,-0.2864856719970703,-0.8169534206390381,-0.7029110789299011,-1.8361201286315918
364,384636,384637,-0.4627140462398529,-0.0179145447909832,1.0514668226242065,22.077035903930664,-21.156530380249023,18.086103439331055,-0.5954701900482178,-0.8654567003250122,-0.2864856719970703,-0.5397089719772339,-0.31312671303749084,-1.6547938585281372
365,384646,384647,-0.2636996805667877,-0.09413395822048187,1.0642476081848145,11.5798978805542,-21.179405212402344,16.47868537902832,-0.5879706144332886,-0.8429578542709351,-0.27298635244369507,-0.48337292671203613,-0.29952287673950195,-1.477194905281067
366,384656,384657,-0.38965335488319397,-0.6005067825317383,1.0918374061584473,-4.520996570587158,-18.424179077148438,15.853130340576172,-0.5834708213806152,-0.8594570159912109,-0.277486115694046,-0.2981850802898407,-0.28271180391311646,-1.3163864612579346
367,384666,384667,-0.04799438267946243,-0.36320894956588745,1.0094763040542603,-16.144542694091797,-14.46506118774414,14.812480926513672,-0.5759711861610413,-0.8579570651054382,-0.28198590874671936,-0.16019265353679657,-0.4243725538253784,-1.1658250093460083
368,384676,384677,-0.08773843944072723,-0.03284723311662674,1.0327990055084229,-19.697242736816406,-11.723347663879395,12.044466972351074,-0.5834708213806152,-0.844457745552063,-0.2744862735271454,0.057339366525411606,-0.6266220808029175,-1.0336474180221558
369,384686,384687,-0.28232505917549133,-0.3168666660785675,1.0529230833053589,-15.961400032043457,-7.360584259033203,8.63066291809082,-0.5864706635475159,-0.8294585347175598,-0.25348731875419617,0.2183363288640976,-0.8527557849884033,-0.9280051589012146
370,384696,384697,-0.33472827076911926,-0.3310944139957428,1.0204538106918335,-6.5604634284973145,-1.0045210123062134,4.904872417449951,-0.5804709792137146,-0.8384580612182617,-0.26848655939102173,0.16195285320281982,-0.9117260575294495,-0.8334934711456299
371,384706,384707,-0.13116206228733063,-0.2081126570701599,1.0105488300323486,6.3132643699646,6.615707874298096,1.7357450723648071,-0.5894705057144165,-0.8324583768844604,-0.2474876195192337,0.13921073079109192,-0.8829726576805115,-0.7836999297142029
372,384716,384717,-0.23504845798015594,-0.06407865881919861,1.0449198484420776,18.8234920501709,12.25696849822998,-0.8341467380523682,-0.5804709792137146,-0.8354582190513611,-0.27148643136024475,0.008045303635299206,-0.7018070220947266,-0.7603246569633484
373,384726,384727,-0.1482757031917572,-0.059311170130968094,0.9964656829833984,27.23537826538086,14.208612442016602,-2.7077999114990234,-0.6029698252677917,-0.8279585838317871,-0.27298635244369507,-0.25251394510269165,-0.5606281757354736,-0.773503839969635
374,384736,384737,-0.3095206916332245,-0.06703197211027145,0.960059642791748,28.44829750061035,11.96532154083252,-3.7920241355895996,-0.5969701409339905,-0.8339582681655884,-0.27298635244369507,-0.31444865465164185,-0.2950361371040344,-0.8092932105064392
375,384746,384747,-0.9581523537635803,-0.2766146957874298,0.9770018458366394,25.079774856567383,1.6333471536636353,-3.759394645690918,-0.5969701409339905,-0.8429578542709351,-0.27298635244369507,-0.4365536570549011,0.02132543921470642,-0.8406590819358826
376,384756,384757,-0.5858757495880127,-0.17024435102939606,1.0200132131576538,21.491291046142578,-9.976325035095215,-2.2689592838287354,-0.5954701900482178,-0.8384580612182617,-0.26848655939102173,-0.3008907437324524,0.346488893032074,-0.8715426921844482
377,384766,384767,-0.5420793294906616,-0.7389398813247681,1.0215160846710205,15.531498908996582,-13.929932594299316,-0.09308549016714096,-0.5954701900482178,-0.850457489490509,-0.2744862735271454,-0.10417603701353073,0.39004072546958923,-0.9127411842346191
378,384776,384777,-0.4745815396308899,-0.5557787418365479,1.025467038154602,5.3453593254089355,-12.813596725463867,2.496652364730835,-0.5999699831008911,-0.8459576964378357,-0.26998651027679443,0.13257494568824768,0.560330331325531,-0.9094652533531189
379,384786,384787,-0.8364686369895935,-0.6197494864463806,1.0178602933883667,-1.141883373260498,-8.089005470275879,5.745235919952393,-0.5804709792137146,-0.8294585347175598,-0.2654867172241211,0.17072242498397827,0.6231361627578735,-0.8755086660385132
380,384796,384797,-0.5144541263580322,-0.6190480589866638,1.0790833234786987,-8.536886215209961,0.37435999512672424,10.632857322692871,-0.5909704566001892,-0.8339582681655884,-0.2579870820045471,0.24421235918998718,0.5084514617919922,-0.8154425621032715
381,384806,384807,-0.48410752415657043,-0.32215607166290283,1.0147366523742676,-10.915343284606934,3.002056837081909,14.305773735046387,-0.5924703478813171,-0.8414579033851624,-0.277486115694046,0.15606951713562012,0.3695172667503357,-0.7098961472511292
382,384816,384817,-0.5388346910476685,-0.08153869211673737,1.0053067207336426,-12.166580200195312,4.856828212738037,17.869068145751953,-0.5804709792137146,-0.8264586329460144,-0.26848655939102173,0.0996786504983902,0.20550622045993805,-0.5628976821899414
383,384826,384827,-0.3960207402706146,-0.033761657774448395,1.0188294649124146,-11.957887649536133,5.095620155334473,20.109411239624023,-0.5969701409339905,-0.8309584259986877,-0.26998651027679443,-0.04380973055958748,0.16105739772319794,-0.37608063220977783
384,384836,384837,-0.09645278006792068,-0.04264112934470177,1.009442687034607,-12.71842098236084,4.532721996307373,20.58818817138672,-0.5969701409339905,-0.8159592151641846,-0.26098695397377014,-0.11677352339029312,-0.015346328727900982,-0.17910780012607574
385,384846,384847,-0.1338711827993393,-0.14632867276668549,1.0271114110946655,-17.48790168762207,2.0650877952575684,19.77381706237793,-0.5924703478813171,-0.8234587907791138,-0.2654867172241211,-0.10181789845228195,-0.16704224050045013,0.03066938929259777
386,384856,384857,-0.30823320150375366,-0.042394258081912994,0.9952412843704224,-18.335561752319336,0.11745679378509521,16.926164627075195,-0.5849707126617432,-0.8279585838317871,-0.2639867961406708,-0.11567714810371399,-0.3728744685649872,0.21922512352466583
387,384866,384867,-0.3730432093143463,-0.13003596663475037,1.030847430229187,-13.416746139526367,-2.7791523933410645,15.052794456481934,-0.5894705057144165,-0.8354582190513611,-0.25048747658729553,-0.09471674263477325,-0.48053601384162903,0.3915190100669861
388,384876,384877,-0.24178147315979004,-0.07647240906953812,1.002205491065979,-6.513296127319336,-6.646575927734375,12.570072174072266,-0.5909704566001892,-0.8159592151641846,-0.26098695397377014,-0.03170531988143921,-0.5828448534011841,0.5409289598464966
389,384886,384887,-0.06718023121356964,-0.024171099066734314,0.9919375777244568,4.728096961975098,-12.917638778686523,8.887868881225586,-0.5924703478813171,-0.8204589486122131,-0.26848655939102173,0.03818608447909355,-0.5519270300865173,0.6609705686569214
390,384896,384897,-0.30045580863952637,-0.06914430111646652,1.00074303150177,18.220779418945312,-15.8809814453125,6.391704559326172,-0.5924703478813171,-0.8204589486122131,-0.26848655939102173,0.26407450437545776,-0.3938731849193573,0.7577201128005981
391,384906,384907,-0.5504012107849121,0.07966428995132446,1.0102522373199463,26.93299102783203,-9.629638671875,3.254650354385376,-0.5924703478813171,-0.8204589486122131,-0.26848655939102173,0.490179181098938,-0.1814669519662857,0.8232538104057312
392,384916,384917,-0.273808091878891,-0.11805066466331482,1.0266900062561035,31.762277603149414,-7.473524570465088,0.9905734062194824,-0.5864706635475159,-0.8354582190513611,-0.26848655939102173,0.5652660131454468,0.09657497704029083,0.8488478064537048
393,384926,384927,-0.16618996858596802,-0.2033248245716095,0.9879825711250305,35.184181213378906,0.23489996790885925,-3.1104798316955566,-0.5819708704948425,-0.8489575386047363,-0.27298635244369507,0.5806601047515869,0.5093496441841125,0.8486087322235107
394,384936,384937,-0.3064078390598297,-0.11833874881267548,0.9367213845252991,33.278526306152344,7.4681220054626465,-5.398402214050293,-0.5879706144332886,-0.8399580121040344,-0.2669866383075714,0.5526487231254578,0.8789523243904114,0.8132384419441223
395,384946,384947,-0.33167505264282227,-0.045229051262140274,0.9373476505279541,19.33660888671875,21.192180633544922,-6.242133140563965,-0.5909704566001892,-0.8429578542709351,-0.27298635244369507,0.3714803457260132,1.1811225414276123,0.7529428005218506
396,384956,384957,-0.30114445090293884,-0.1270020306110382,1.0101509094238281,2.906937837600708,33.026031494140625,-5.41141414642334,-0.5849707126617432,-0.8399580121040344,-0.27298635244369507,0.05088198184967041,1.1165668964385986,0.681647002696991
397,384966,384967,-1.0774060487747192,-0.2877541184425354,1.0306702852249146,-9.243002891540527,30.110885620117188,-5.379345893859863,-0.5909704566001892,-0.836958110332489,-0.26998651027679443,-0.4671897292137146,1.0975717306137085,0.6118160486221313
398,384976,384977,-0.6310404539108276,-0.09116745740175247,1.0437825918197632,-18.963029861450195,23.16282844543457,-1.8052732944488525,-0.5909704566001892,-0.8339582681655884,-0.2759861946105957,-0.7906356453895569,0.915883481502533,0.5640684962272644
399,384986,384987,-0.4401174485683441,-0.12680543959140778,1.0174567699432373,-20.397300720214844,14.48581314086914,-0.6325907111167908,-0.5864706635475159,-0.8264586329460144,-0.2744862735271454,-0.7604417204856873,0.6640260815620422,0.5827860832214355
400,384996,384997,-1.1038802862167358,-0.2195587158203125,0.9954503178596497,-22.117307662963867,-0.2525860071182251,3.1374905109405518,-0.5954701900482178,-0.8324583768844604,-0.27148643136024475,-0.903250515460968,0.4153937101364136,0.5796715617179871
401,385006,385007,-0.772774875164032,-0.5013895630836487,0.9946293234825134,-22.132925033569336,-6.50498104095459,4.877701282501221,-0.5819708704948425,-0.8249587416648865,-0.2669866383075714,-0.8128566145896912,0.21175840497016907,0.6248714923858643
402,385016,385017,-1.059074878692627,-0.25589698553085327,0.9517701268196106,-18.753177642822266,-23.844385147094727,7.630234241485596,-0.5744712948799133,-0.8234587907791138,-0.26248687505722046,-0.4899921417236328,0.03038935363292694,0.71568763256073
403,385026,385027,-1.579657793045044,-0.024614837020635605,1.0592167377471924,-18.79666519165039,-31.39680290222168,10.552899360656738,-0.5864706635475159,-0.8384580612182617,-0.26848655939102173,-0.24863050878047943,-0.11625102907419205,0.801030695438385
404,385036,385037,-1.389538288116455,0.23343797028064728,1.2105703353881836,-11.147507667541504,-37.475341796875,9.035002708435059,-0.5849707126617432,-0.8399580121040344,-0.2579870820045471,0.027561387047171593,-0.292129784822464,0.893773078918457
405,385046,385047,-1.2504240274429321,0.10437917709350586,1.1592963933944702,-4.039822101593018,-32.39254379272461,11.63071060180664,-0.5759711861610413,-0.8309584259986877,-0.26098695397377014,0.42234906554222107,-0.3432527184486389,0.9995630979537964
406,385056,385057,-0.6235759854316711,0.09330891817808151,1.095542550086975,5.524881362915039,-23.6106014251709,9.640649795532227,-0.5849707126617432,-0.8459576964378357,-0.26998651027679443,0.7770594954490662,-0.3302415907382965,1.1197065114974976
407,385066,385067,-0.15748515725135803,0.14361339807510376,0.9950088262557983,17.67861557006836,-21.68292808532715,10.842674255371094,-0.5864706635475159,-0.8234587907791138,-0.2594870328903198,1.0836361646652222,-0.20982658863067627,1.2338863611221313
408,385076,385077,-0.0360930934548378,-0.012785571627318859,0.9548059701919556,23.065853118896484,-10.12894344329834,13.058917999267578,-0.5864706635475159,-0.8264586329460144,-0.25348731875419617,1.158098816871643,0.12459111213684082,1.3453701734542847
409,385086,385087,-0.10032476484775543,-0.1967971920967102,0.9524942636489868,26.451480865478516,7.580483436584473,12.21622371673584,-0.56997150182724,-0.8309584259986877,-0.2579870820045471,1.1851626634597778,0.3166942596435547,1.4712330102920532
410,385096,385097,-0.057178616523742676,-0.14261966943740845,0.922916829586029,23.418649673461914,20.40018081665039,10.719915390014648,-0.5879706144332886,-0.8279585838317871,-0.2639867961406708,1.0072412490844727,0.5881572365760803,1.587951421737671
411,385106,385107,-0.055854156613349915,-0.06917466968297958,0.9294318556785583,16.893856048583984,32.0966682434082,8.915196418762207,-0.5924703478813171,-0.8264586329460144,-0.26848655939102173,0.905055820941925,0.7821105122566223,1.7095575332641602
412,385116,385117,-0.19840125739574432,-0.3665998876094818,0.9814801812171936,9.921392440795898,36.20878601074219,8.736368179321289,-0.5894705057144165,-0.8204589486122131,-0.26248687505722046,0.43071892857551575,1.0183022022247314,1.787160038948059
413,385126,385127,-0.1665705293416977,-0.14538218080997467,0.9787367582321167,1.6538596153259277,43.63290786743164,6.309793472290039,-0.5954701900482178,-0.8144592642784119,-0.2744862735271454,-0.042252376675605774,0.924757182598114,1.8702583312988281
414,385136,385137,-0.3207267224788666,-0.10731837153434753,0.9452425837516785,-8.889543533325195,36.56196212768555,6.593965530395508,-0.5939702987670898,-0.8399580121040344,-0.2579870820045471,-0.43213745951652527,0.8316794037818909,1.9465688467025757
415,385146,385147,-0.4348927438259125,0.08143866807222366,0.9919738173484802,-19.83308219909668,26.349689483642578,7.315408229827881,-0.5849707126617432,-0.8459576964378357,-0.2639867961406708,-0.7039589285850525,0.6402480006217957,2.0287110805511475
416,385156,385157,-0.4473373591899872,-0.15571221709251404,1.031657099723816,-31.5924015045166,11.683614730834961,7.922190189361572,-0.5894705057144165,-0.8384580612182617,-0.2564871609210968,-0.9360331892967224,0.4888632297515869,2.102935552597046
417,385166,385167,-0.7069651484489441,-0.8146049976348877,1.0270406007766724,-36.80057144165039,-2.8109865188598633,7.049060344696045,-0.5879706144332886,-0.836958110332489,-0.2669866383075714,-0.9789718389511108,-0.06035785749554634,2.182849407196045
418,385176,385177,-0.373833566904068,-0.7573592066764832,0.9703834056854248,-36.59830093383789,-20.52744483947754,6.974228858947754,-0.5759711861610413,-0.8249587416648865,-0.2639867961406708,-0.8383370637893677,-0.29550451040267944,2.265500068664551
419,385186,385187,-0.5365467071533203,-0.7088350653648376,1.012725830078125,-27.921051025390625,-20.562583923339844,4.327943801879883,-0.5684715509414673,-0.8294585347175598,-0.277486115694046,-0.49970898032188416,-0.6295753717422485,2.3459765911102295
420,385196,385197,-0.5752691030502319,-0.5006202459335327,0.9714019894599915,-9.657899856567383,-21.278148651123047,2.1054677963256836,-0.5849707126617432,-0.8339582681655884,-0.27298635244369507,-0.19099220633506775,-0.8237361311912537,2.39967679977417
421,385206,385207,-0.19242799282073975,-0.05249801278114319,0.9842239618301392,5.636960029602051,-15.37008285522461,1.4737354516983032,-0.577471137046814,-0.8264586329460144,-0.2654867172241211,0.020077204331755638,-0.799491286277771,2.423436403274536
422,385216,385217,-0.39315998554229736,0.06471926718950272,1.0038659572601318,19.95870590209961,-3.8870885372161865,-3.0864059925079346,-0.5849707126617432,-0.8309584259986877,-0.2579870820045471,0.11209686845541,-0.6056900024414062,2.426253318786621
423,385226,385227,-0.21691282093524933,0.18717171251773834,1.0571428537368774,30.275146484375,3.1734108924865723,-4.537503719329834,-0.5954701900482178,-0.8384580612182617,-0.26848655939102173,0.09904322773218155,-0.2674664556980133,2.393000364303589
424,385236,385237,-0.034368887543678284,0.12964202463626862,1.035787582397461,30.737062454223633,11.690669059753418,-5.258988380432129,-0.5894705057144165,-0.8414579033851624,-0.27148643136024475,-0.03506063297390938,-0.03359261155128479,2.3329415321350098
425,385246,385247,0.009227076545357704,0.04521298035979271,1.0290133953094482,26.87205696105957,18.17326545715332,-6.293049335479736,-0.5864706635475159,-0.8474575877189636,-0.2744862735271454,-0.20326082408428192,0.17313365638256073,2.2689390182495117
426,385256,385257,0.022159690037369728,0.10167910158634186,1.0380995273590088,19.06844139099121,13.245473861694336,-4.940432548522949,-0.5894705057144165,-0.8294585347175598,-0.26848655939102173,-0.40701207518577576,0.5048567056655884,2.211949110031128
427,385266,385267,0.01009493786841631,0.030117793008685112,1.0373421907424927,2.7122180461883545,9.597281455993652,-2.3431174755096436,-0.5864706635475159,-0.844457745552063,-0.26248687505722046,-0.4013309180736542,0.5970355868339539,2.169320583343506
428,385276,385277,-0.21611778438091278,0.014280041679739952,1.045735478401184,-13.111082077026367,6.595069885253906,-2.7913930416107178,-0.5894705057144165,-0.8354582190513611,-0.26848655939102173,-0.5520142316818237,0.4790525734424591,2.134782314300537
429,385286,385287,-0.22168977558612823,0.09063129872083664,1.0066262483596802,-24.788843154907227,-5.079487323760986,-1.1077187061309814,-0.5864706635475159,-0.8294585347175598,-0.2654867172241211,-0.5514501929283142,0.19391608238220215,2.1056625843048096
430,385296,385297,-0.19434413313865662,0.0013624574057757854,1.0265052318572998,-37.2537841796875,1.4960566759109497,-4.389268398284912,-0.5804709792137146,-0.8204589486122131,-0.2594870328903198,-0.4470762610435486,-0.12015911191701889,2.0870144367218018
431,385306,385307,-0.465261846780777,-0.47158733010292053,0.9318694472312927,-38.18925094604492,-5.091033935546875,-6.169219970703125,-0.5759711861610413,-0.8249587416648865,-0.26098695397377014,-0.4248944818973541,-0.5760326981544495,2.0325350761413574
432,385316,385317,-0.5665785670280457,-0.2453557401895523,1.0070103406906128,-41.80417251586914,-3.9310615062713623,-7.3794331550598145,-0.5684715509414673,-0.8234587907791138,-0.2594870328903198,-0.3929039537906647,-1.0595571994781494,1.958116054534912
433,385326,385327,-0.21135517954826355,-0.05896073579788208,1.0587489604949951,-29.133098602294922,-5.096670627593994,-10.310527801513672,-0.5804709792137146,-0.8144592642784119,-0.26248687505722046,-0.36495429277420044,-1.382630705833435,1.8772052526474
434,385336,385337,-0.4363739490509033,0.04575912281870842,1.0745457410812378,-16.817920684814453,-0.6951380968093872,-11.765071868896484,-0.5744712948799133,-0.8204589486122131,-0.27148643136024475,-0.32142072916030884,-1.6772453784942627,1.7620210647583008
435,385346,385347,-0.3559124171733856,0.11344020068645477,1.0730479955673218,2.8480660915374756,-0.9309338331222534,-14.787397384643555,-0.5999699831008911,-0.8249587416648865,-0.2639867961406708,-0.334407776594162,-1.591943383216858,1.647412896156311
436,385356,385357,-0.3307492136955261,0.06933039426803589,0.937055230140686,18.33299446105957,1.291454792022705,-16.55584716796875,-0.5879706144332886,-0.8219588994979858,-0.2669866383075714,-0.3459792733192444,-1.4306639432907104,1.502089262008667
437,385366,385367,-0.9204711318016052,-0.15778857469558716,0.9426133632659912,30.55641746520996,8.900415420532227,-19.984041213989258,-0.5924703478813171,-0.8204589486122131,-0.26248687505722046,-0.4916236102581024,-1.1167457103729248,1.337649941444397
438,385376,385377,-0.7349271774291992,-0.0038442350924015045,0.9139500856399536,30.862756729125977,21.366941452026367,-24.11425018310547,-0.6029698252677917,-0.8279585838317871,-0.25198739767074585,-0.6086414456367493,-0.8058670163154602,1.1227538585662842
439,385386,385387,-0.7588930726051331,-0.12117927521467209,1.1126604080200195,33.44076156616211,18.385982513427734,-25.98540496826172,-0.5954701900482178,-0.8294585347175598,-0.25048747658729553,-0.8856329321861267,-0.5325584411621094,0.8712268471717834
440,385396,385397,-1.0426381826400757,-0.15732735395431519,1.002983570098877,29.95549201965332,13.159049987792969,-26.777441024780273,-0.5924703478813171,-0.8354582190513611,-0.2654867172241211,-0.9617719054222107,-0.3319518566131592,0.5862929224967957
441,385406,385407,-0.32822898030281067,-0.41850656270980835,0.9632087349891663,23.456064224243164,-4.422357082366943,-25.502763748168945,-0.6029698252677917,-0.8339582681655884,-0.2669866383075714,-1.088082194328308,0.026835592463612556,0.3194018304347992
442,385416,385417,-0.31357404589653015,-0.25260475277900696,0.8083564043045044,22.575891494750977,-5.596548080444336,-29.766700744628906,-0.5954701900482178,-0.8294585347175598,-0.28048595786094666,-0.9036265015602112,0.1825493425130844,0.0273338221013546
443,385426,385427,-0.8644543886184692,-0.2569229304790497,0.8464246392250061,17.205507278442383,-15.759099960327148,-25.34893226623535,-0.5864706635475159,-0.8354582190513611,-0.26248687505722046,-0.878669798374176,0.46458566188812256,-0.2399950921535492
444,385436,385437,-0.5385637283325195,-0.2452206313610077,0.9895973801612854,17.681095123291016,-23.755762100219727,-24.422386169433594,-0.6044697761535645,-0.8414579033851624,-0.26848655939102173,-0.4968653917312622,0.6233503222465515,-0.5065474510192871
445,385446,385447,-0.8662915825843811,-0.4106971025466919,0.9541342258453369,14.275744438171387,-36.268409729003906,-20.373159408569336,-0.5849707126617432,-0.8339582681655884,-0.2669866383075714,-0.2708868086338043,0.6368309259414673,-0.7652082443237305
446,385456,385457,-0.9509301781654358,-0.4354003667831421,0.8797668814659119,11.97484302520752,-45.64628601074219,-19.240129470825195,-0.5849707126617432,-0.8489575386047363,-0.28198590874671936,0.10635317116975784,0.8189024329185486,-0.9651582837104797
447,385466,385467,-1.3630480766296387,-0.48321253061294556,0.959168553352356,4.445747375488281,-31.9201602935791,-16.28367805480957,-0.5864706635475159,-0.8624568581581116,-0.26848655939102173,0.46419206261634827,0.7887120246887207,-1.1681358814239502
448,385476,385477,-0.8798937201499939,-0.4497414827346802,0.8210651278495789,3.454101324081421,-12.889666557312012,-15.753008842468262,-0.5894705057144165,-0.8684565424919128,-0.28048595786094666,0.7576578259468079,0.855720579624176,-1.3285143375396729
449,385486,385487,-0.832980215549469,-0.34805354475975037,1.0180222988128662,-6.30076265335083,4.056722164154053,-11.45495891571045,-0.5669716596603394,-0.8639568090438843,-0.28798559308052063,0.8530740737915039,0.8896012902259827,-1.4737498760223389
450,385496,385497,-0.14513540267944336,-0.34256666898727417,1.0908540487289429,-0.8350805044174194,20.891368865966797,-9.857110023498535,-0.577471137046814,-0.8624568581581116,-0.277486115694046,0.7306318879127502,0.8514419198036194,-1.5809088945388794
451,385506,385507,-0.5726959109306335,-0.3735247254371643,1.023512840270996,5.551449298858643,33.38146209716797,-7.24683141708374,-0.5864706635475159,-0.8654567003250122,-0.29848507046699524,0.3230820596218109,0.820446789264679,-1.6788567304611206
452,385516,385517,-1.0884194374084473,-0.3105607330799103,1.0257859230041504,15.41286849975586,33.32740783691406,-7.494299411773682,-0.5879706144332886,-0.8699564933776855,-0.28498575091362,-0.055468641221523285,0.9317367076873779,-1.7483190298080444
453,385526,385527,-1.4251114130020142,-0.38377314805984497,1.0355501174926758,25.767484664916992,31.6021728515625,-8.052469253540039,-0.5879706144332886,-0.8669566512107849,-0.2759861946105957,-0.4490118622779846,1.136711597442627,-1.8193119764328003
454,385536,385537,-0.651457667350769,-0.547710120677948,0.9519035220146179,38.116912841796875,19.522680282592773,-6.3531999588012695,-0.5939702987670898,-0.8819558620452881,-0.28798559308052063,-0.7219271659851074,1.6378687620162964,-1.8766509294509888
455,385546,385547,-0.28860795497894287,-0.43296095728874207,0.9749864339828491,27.353500366210938,2.3120620250701904,-2.9087090492248535,-0.5939702987670898,-0.8819558620452881,-0.2939853072166443,-0.8908414244651794,1.9166449308395386,-1.934989094734192
456,385556,385557,-0.044501710683107376,-0.12558020651340485,1.217342495918274,10.08210277557373,-17.51886558532715,1.2082116603851318,-0.5909704566001892,-0.8639568090438843,-0.29098543524742126,-0.6885009407997131,2.046837568283081,-1.9477715492248535
457,385566,385567,-0.12224942445755005,-0.09229695051908493,1.0744097232818604,-8.390247344970703,-31.313840866088867,0.6672820448875427,-0.577471137046814,-0.8804559707641602,-0.28948551416397095,-0.3815106153488159,2.0830576419830322,-1.9337414503097534
458,385576,385577,-0.5500174164772034,-0.2954942286014557,0.9777984619140625,-32.212745666503906,-29.326250076293945,2.1187822818756104,-0.5804709792137146,-0.8804559707641602,-0.2954852283000946,-0.007467704359441996,1.8448623418807983,-1.9189434051513672
459,385586,385587,-0.3803115785121918,-0.5019433498382568,0.9866825938224792,-50.91431427001953,-23.517484664916992,0.40465283393859863,-0.5804709792137146,-0.8684565424919128,-0.2864856719970703,0.12988555431365967,1.3936591148376465,-1.938062071800232
460,385596,385597,-0.5599788427352905,-0.4537428915500641,1.0070868730545044,-59.56169509887695,-10.152913093566895,-2.8390953540802,-0.5579720735549927,-0.8699564933776855,-0.28798559308052063,0.32929369807243347,0.8291732668876648,-1.949476718902588
461,385606,385607,-0.7131158113479614,-0.2944488525390625,0.9375463128089905,-54.29011535644531,-4.0703253746032715,-5.270334720611572,-0.5729713439941406,-0.8759561777114868,-0.28798559308052063,0.4874957203865051,0.19722385704517365,-1.9706155061721802
462,385616,385617,-0.4777251183986664,-0.31865453720092773,0.9546721577644348,-43.24874496459961,10.369437217712402,-8.466019630432129,-0.5684715509414673,-0.850457489490509,-0.2834858298301697,0.3381206691265106,-0.051145415753126144,-2.056506633758545
463,385626,385627,-0.5001848936080933,-0.2885942757129669,1.0928230285644531,-24.0562744140625,12.513457298278809,-6.576913356781006,-0.5864706635475159,-0.8474575877189636,-0.26848655939102173,0.14417754113674164,-0.5007450580596924,-2.153343439102173
464,385636,385637,-0.5055691599845886,-0.25191813707351685,1.050086498260498,2.40777325630188,17.53969955444336,-7.359992980957031,-0.5984700918197632,-0.8384580612182617,-0.277486115694046,-0.05713567137718201,-0.4668332636356354,-2.2297019958496094
465,385646,385647,-0.3545137941837311,-0.17370541393756866,0.9749338030815125,18.030729293823242,22.430583953857422,-8.578511238098145,-0.5834708213806152,-0.844457745552063,-0.2744862735271454,-0.3166903257369995,-0.3538803458213806,-2.316787004470825
466,385656,385657,-0.2321656048297882,-0.15582744777202606,1.106222152709961,27.671247482299805,13.057609558105469,-8.08867073059082,-0.577471137046814,-0.8654567003250122,-0.2864856719970703,-0.518343985080719,-0.06102224811911583,-2.399620771408081
467,385666,385667,-0.6629442572593689,-0.4039963483810425,1.087559461593628,36.78607940673828,3.8142218589782715,-8.552424430847168,-0.5939702987670898,-0.8579570651054382,-0.2759861946105957,-0.6624691486358643,0.2029290646314621,-2.488629102706909
468,385676,385677,-0.6568635106086731,-0.5385469198226929,1.0010117292404175,26.127098083496094,2.5865721702575684,-7.361576557159424,-0.5954701900482178,-0.8684565424919128,-0.277486115694046,-0.5961058139801025,0.6598124504089355,-2.5552639961242676
469,385686,385687,-0.6665006875991821,-0.6564366817474365,1.0739006996154785,15.105670928955078,-5.180701732635498,-6.058871746063232,-0.6014699339866638,-0.8474575877189636,-0.28048595786094666,-0.5759111642837524,0.8096712231636047,-2.6278085708618164
470,385696,385697,-0.3783881962299347,-0.25284385681152344,0.9271994233131409,7.371569633483887,-10.734977722167969,-4.847723007202148,-0.5894705057144165,-0.8624568581581116,-0.277486115694046,-0.48368680477142334,0.8430842161178589,-2.686344623565674
471,385706,385707,-0.41971147060394287,0.0653829425573349,1.0597686767578125,-9.755553245544434,-5.4485321044921875,-4.362308025360107,-0.5864706635475159,-0.850457489490509,-0.28048595786094666,-0.26238498091697693,0.8579354882240295,-2.721665620803833
472,385716,385717,-0.1043153703212738,-0.3728047013282776,1.1482011079788208,-20.71673583984375,-7.308444499969482,-2.548447847366333,-0.5864706635475159,-0.8594570159912109,-0.2834858298301697,-0.260811984539032,0.6531693935394287,-2.778108835220337
