,timestamp_start,timestamp_end,acc.x,acc.y,acc.z,gyro.x,gyro.y,gyro.z,mag.x,mag.y,mag.z,stabilizer.pitch,stabilizer.roll,stabilizer.yaw
0,77526,77528,-0.7676665186882019,-0.28169190883636475,1.0230039358139038,46.38272476196289,4.188538074493408,-7.896915912628174,-0.6074696183204651,-0.8264586329460144,-0.26248687505722046,-1.3928489685058594,-0.4622320234775543,-5.259558200836182
1,77536,77538,-0.873729944229126,-0.5408965945243835,0.9032765626907349,39.43190383911133,-13.443312644958496,-8.872108459472656,-0.6104694604873657,-0.8264586329460144,-0.277486115694046,-1.3002492189407349,-0.2795372009277344,-5.358913421630859
2,77546,77548,-0.7252041101455688,-0.725304901599884,0.8765828609466553,27.385316848754883,-24.579805374145508,-9.431172370910645,-0.6119694113731384,-0.8339582681655884,-0.27298635244369507,-1.171447992324829,0.2595977485179901,-5.453614234924316
3,77556,77558,-0.359081506729126,-0.6669772863388062,1.0439969301223755,15.865944862365723,-29.403223037719727,-10.692663192749023,-0.6074696183204651,-0.844457745552063,-0.2654867172241211,-0.8319897055625916,0.5580782890319824,-5.5709028244018555
4,77566,77568,-0.11940822005271912,-0.24653424322605133,1.0844889879226685,6.9652838706970215,-28.320770263671875,-12.687315940856934,-0.5864706635475159,-0.8474575877189636,-0.2834858298301697,-0.4873946011066437,0.551433265209198,-5.696085453033447
5,77576,77578,-0.11972358077764511,-0.17646995186805725,1.106345772743225,3.901082992553711,-24.858781814575195,-15.412294387817383,-0.5939702987670898,-0.8309584259986877,-0.2639867961406708,-0.07324640452861786,0.689903974533081,-5.830009937286377
6,77586,77588,-0.11106891930103302,-0.07919574528932571,1.0947120189666748,8.731483459472656,-11.53909969329834,-17.06430435180664,-0.5894705057144165,-0.8384580612182617,-0.2654867172241211,0.13897570967674255,0.6605793833732605,-5.98530912399292
7,77596,77598,-0.3344515860080719,-0.4256717264652252,1.145059585571289,18.110767364501953,-3.482135534286499,-16.84568214416504,-0.6059696674346924,-0.8429578542709351,-0.2759861946105957,0.2561299502849579,0.8567057251930237,-6.153059482574463
8,77606,77608,-0.26324811577796936,-0.6665555238723755,1.0475013256072998,31.765792846679688,3.0597431659698486,-15.266883850097656,-0.6134693026542664,-0.8294585347175598,-0.2654867172241211,0.23449257016181946,1.2192953824996948,-6.319240570068359
9,77616,77618,-0.36274558305740356,-0.6172395944595337,0.9950737357139587,40.66722869873047,6.749338626861572,-12.908889770507812,-0.6149692535400391,-0.8339582681655884,-0.27298635244369507,0.08602127432823181,1.3231488466262817,-6.481810092926025
10,77626,77628,-0.22613871097564697,-0.32187581062316895,1.0483921766281128,43.0736198425293,9.826831817626953,-12.025261878967285,-0.6029698252677917,-0.8399580121040344,-0.2669866383075714,0.02734469808638096,2.016508102416992,-6.607344627380371
11,77636,77638,-0.47515034675598145,-0.21199573576450348,1.061342716217041,37.99522018432617,8.42955207824707,-10.599114418029785,-0.6104694604873657,-0.8384580612182617,-0.25348731875419617,0.0718684196472168,2.1415371894836426,-6.703099250793457
12,77646,77648,-0.20228853821754456,-0.21125055849552155,1.0709093809127808,22.865787506103516,6.880896091461182,-9.88120174407959,-0.5909704566001892,-0.8309584259986877,-0.2669866383075714,-0.07087916880846024,2.7197234630584717,-6.815788269042969
13,77656,77658,-0.13588222861289978,-0.2589121460914612,1.0239415168762207,8.343191146850586,8.465259552001953,-9.339973449707031,-0.6104694604873657,-0.8354582190513611,-0.27148643136024475,-0.18144452571868896,2.8934943675994873,-6.916511058807373
14,77666,77668,-0.08525857329368591,-0.1884308159351349,1.0043623447418213,2.0120413303375244,8.01993179321289,-7.81728982925415,-0.6149692535400391,-0.8489575386047363,-0.26998651027679443,-0.24743860960006714,2.87261962890625,-6.996527194976807
15,77676,77678,-0.34679844975471497,-0.13341540098190308,0.9936414957046509,2.48677134513855,6.604863166809082,-4.4375810623168945,-0.6089695692062378,-0.836958110332489,-0.26098695397377014,-0.3185971677303314,3.038688898086548,-7.064484596252441
16,77686,77688,-0.9804282784461975,-0.1926504522562027,1.018139123916626,1.0850547552108765,3.302629232406616,0.39581596851348877,-0.5984700918197632,-0.8474575877189636,-0.2654867172241211,-0.21555842459201813,2.852616310119629,-7.043460845947266
17,77696,77698,-0.7238315343856812,-0.026681281626224518,1.0462548732757568,-6.012861251831055,3.48117733001709,1.037513256072998,-0.6299684643745422,-0.8309584259986877,-0.26098695397377014,-0.284858763217926,2.985161542892456,-7.054049491882324
18,77706,77708,-0.35542216897010803,-0.024502333253622055,1.012283444404602,-14.738073348999023,10.920106887817383,1.0834975242614746,-0.6029698252677917,-0.8279585838317871,-0.2669866383075714,-0.2461540549993515,2.9644267559051514,-7.01163387298584
19,77716,77718,-0.21215756237506866,-0.4467799663543701,0.9650304317474365,-17.99592399597168,17.36893081665039,0.2603034973144531,-0.616469144821167,-0.8264586329460144,-0.28048595786094666,-0.5216516256332397,2.828031063079834,-7.068450927734375
20,77726,77728,-0.18770429491996765,-0.3398330807685852,1.0154155492782593,-15.104544639587402,17.924503326416016,0.35342979431152344,-0.6194689869880676,-0.8144592642784119,-0.2594870328903198,-0.8107818365097046,2.7137608528137207,-7.10823917388916
21,77736,77738,-0.43522411584854126,-0.621191143989563,1.044227123260498,-11.781743049621582,12.268876075744629,1.6462517976760864,-0.6299684643745422,-0.8279585838317871,-0.2639867961406708,-0.9344246983528137,2.6214609146118164,-7.067058563232422
22,77746,77748,-0.9024010300636292,-1.0127739906311035,0.9819228649139404,-7.199593544006348,5.582528591156006,3.1373953819274902,-0.6344682574272156,-0.8174591064453125,-0.26248687505722046,-0.8833271265029907,2.629176139831543,-6.96142053604126
23,77756,77758,-0.5429748892784119,-0.6306583285331726,1.0528675317764282,-7.270772457122803,0.2847793400287628,2.9048712253570557,-0.6254687309265137,-0.8204589486122131,-0.2594870328903198,-0.811119794845581,2.548321485519409,-6.876328468322754
24,77766,77768,-0.4461003243923187,-0.1926155388355255,1.0317938327789307,-12.509779930114746,-3.1617491245269775,1.6620073318481445,-0.6149692535400391,-0.8129593133926392,-0.2369881421327591,-0.7660679221153259,2.5075721740722656,-6.8282856941223145
25,77776,77778,-0.3964501917362213,-0.6026354432106018,0.9838221669197083,-9.544336318969727,-2.0016229152679443,-0.9637882113456726,-0.6194689869880676,-0.8024598360061646,-0.25048747658729553,-0.8304339647293091,2.3461973667144775,-6.860836505889893
26,77786,77788,-0.21150870621204376,-0.42613399028778076,0.9970439672470093,-7.062541484832764,2.41392183303833,-3.085644483566284,-0.623968780040741,-0.8219588994979858,-0.2669866383075714,-0.760650098323822,2.4113242626190186,-6.834551811218262
27,77796,77798,-0.23728491365909576,-0.2760762870311737,1.0080642700195312,0.5863341689109802,3.9212939739227295,-4.353960990905762,-0.6344682574272156,-0.8144592642784119,-0.2564871609210968,-0.8066447377204895,2.314607858657837,-6.880552291870117
28,77806,77808,-0.1988726109266281,-0.6496335864067078,0.9798051118850708,2.880275249481201,0.8810164928436279,-3.5707144737243652,-0.6344682574272156,-0.8114594221115112,-0.2594870328903198,-0.8468430638313293,2.3400228023529053,-6.926666259765625
29,77816,77818,-0.6750692129135132,-0.6958263516426086,0.8769979476928711,-1.9837156534194946,-2.124885320663452,-0.14016561210155487,-0.622468888759613,-0.8144592642784119,-0.2564871609210968,-0.8511397242546082,2.4123313426971436,-6.960667610168457
30,77826,77828,-1.220269799232483,-0.5701212286949158,0.9121193885803223,-12.747367858886719,-5.177398204803467,1.8814383745193481,-0.6329683661460876,-0.8159592151641846,-0.2549872398376465,-0.813335120677948,2.4091765880584717,-6.957699298858643
31,77836,77838,-1.2266900539398193,-0.5394050478935242,0.9523874521255493,-24.825178146362305,-6.079419136047363,2.0819075107574463,-0.6284685730934143,-0.8084595799446106,-0.2654867172241211,-0.6607792973518372,2.1504507064819336,-6.909564971923828
32,77846,77848,-1.1740976572036743,-0.7833127975463867,0.942346453666687,-41.02838897705078,-2.46720814704895,0.9329438805580139,-0.6179690957069397,-0.8069596290588379,-0.2549872398376465,-0.4932055175304413,1.812388300895691,-6.857822418212891
33,77856,77858,-0.41373223066329956,-0.40550923347473145,0.9528986811637878,-48.59720230102539,9.787365913391113,-0.9563600420951843,-0.6194689869880676,-0.8114594221115112,-0.2474876195192337,-0.5545287132263184,1.6566270589828491,-6.866708278656006
34,77866,77868,-0.08198447525501251,-0.310720831155777,1.0086777210235596,-48.93359375,18.69394874572754,-1.9678691625595093,-0.6269686222076416,-0.7919603586196899,-0.2369881421327591,-0.7575423121452332,1.0442615747451782,-6.929019451141357
35,77876,77878,-0.6090269684791565,-0.4463198781013489,1.0495593547821045,-42.53239440917969,24.533065795898438,-1.6621639728546143,-0.6209689378738403,-0.8039597868919373,-0.2579870820045471,-0.8893515467643738,0.7826159596443176,-6.898896217346191
36,77886,77888,-0.6309659481048584,-0.5067108273506165,0.94146728515625,-32.03142166137695,25.211210250854492,-1.0868878364562988,-0.6194689869880676,-0.7964601516723633,-0.2474876195192337,-1.2138806581497192,0.274413526058197,-6.9519362449646
37,77896,77898,-0.1858610212802887,-0.040331922471523285,0.9325056672096252,-23.367820739746094,20.783309936523438,-1.3832924365997314,-0.6299684643745422,-0.7799609899520874,-0.23998799920082092,-1.587965488433838,-0.13644850254058838,-7.019577980041504
38,77906,77908,-0.1564495712518692,-0.47279489040374756,0.9637311697006226,-11.513829231262207,12.934362411499023,-0.868671178817749,-0.6299684643745422,-0.7919603586196899,-0.24298784136772156,-1.5961657762527466,-0.11625529825687408,-6.942809104919434
39,77916,77918,-0.4423676133155823,-0.38893750309944153,0.9263132810592651,-1.9322445392608643,1.6561182737350464,-1.6128870248794556,-0.6389680504798889,-0.7919603586196899,-0.23998799920082092,-1.834389328956604,-0.3407765030860901,-7.001798152923584
40,77926,77928,-0.6232581734657288,-0.18708811700344086,0.9351386427879333,2.1581008434295654,-4.658674240112305,-1.2921171188354492,-0.6329683661460876,-0.7859606742858887,-0.24298784136772156,-1.9081575870513916,-0.14231835305690765,-6.995312213897705
41,77936,77938,-0.6493157744407654,-0.10097430646419525,0.9344482421875,-0.46390199661254883,-8.721651077270508,-0.8312767744064331,-0.6389680504798889,-0.7889605164527893,-0.24898754060268402,-1.8638736009597778,-0.267819344997406,-7.0289177894592285
42,77946,77948,-0.28006428480148315,-0.4248412847518921,0.9101405739784241,-4.157580375671387,-18.491247177124023,-1.576340913772583,-0.6344682574272156,-0.7844607830047607,-0.2474876195192337,-1.716625690460205,-0.2714659869670868,-7.030982494354248
43,77956,77958,-0.5010706782341003,-0.5326157808303833,0.9170653820037842,-8.315584182739258,-18.217754364013672,-3.1937649250030518,-0.6419678926467896,-0.7919603586196899,-0.23998799920082092,-1.4620637893676758,-0.206442192196846,-7.02131986618042
44,77966,77968,-0.24608129262924194,-0.32134491205215454,0.9431120157241821,-11.166685104370117,-14.09273624420166,-5.736789703369141,-0.6419678926467896,-0.7919603586196899,-0.23998799920082092,-1.22199547290802,-0.36321714520454407,-7.059571266174316
45,77976,77978,-0.12307131290435791,-0.13556155562400818,0.9700838923454285,-11.347925186157227,-6.578825950622559,-8.258893013000488,-0.6419678926467896,-0.7919603586196899,-0.23998799920082092,-1.1305900812149048,-0.4794450104236603,-7.121255874633789
46,77986,77988,-0.021984269842505455,-0.5488379001617432,1.0232731103897095,-10.46831226348877,-1.66184663772583,-8.055139541625977,-0.6419678926467896,-0.7919603586196899,-0.23998799920082092,-1.0444786548614502,-0.6623571515083313,-7.214638710021973
47,77996,77998,-0.04313964769244194,-0.4395911991596222,0.9318774342536926,-5.935812473297119,3.5678224563598633,-9.701842308044434,-0.6344682574272156,-0.7784610390663147,-0.25348731875419617,-1.0645511150360107,-0.820280134677887,-7.3117547035217285
48,78006,78008,-0.1345493048429489,-0.6470713019371033,0.9719489812850952,0.47486692667007446,6.944394111633301,-9.061408042907715,-0.6314684152603149,-0.7814609408378601,-0.23548822104930878,-0.9532224535942078,-0.833536684513092,-7.395822525024414
49,78016,78018,-0.15969984233379364,-0.7769726514816284,0.9886354804039001,7.897724151611328,7.649177074432373,-6.588045597076416,-0.6299684643745422,-0.782960832118988,-0.22498874366283417,-0.9671199321746826,-0.8599721789360046,-7.489551544189453
50,78026,78028,-0.1824060082435608,-0.28166383504867554,0.9176516532897949,14.014379501342773,12.853826522827148,-3.7375905513763428,-0.6389680504798889,-0.7919603586196899,-0.2369881421327591,-1.162119746208191,-0.765406608581543,-7.549458980560303
51,78036,78038,-0.3031099736690521,0.03741670772433281,0.8989416360855103,19.919355392456055,10.868088722229004,-0.23075035214424133,-0.6314684152603149,-0.790460467338562,-0.24148792028427124,-1.3485989570617676,-0.5921119451522827,-7.5781779289245605
52,78046,78048,-0.5146766901016235,-0.2761004865169525,0.9077280163764954,21.208208084106445,-1.2707639932632446,2.864936590194702,-0.6404679417610168,-0.7874606251716614,-0.2384880781173706,-1.4417933225631714,-0.3922736346721649,-7.579532146453857
53,78056,78058,-0.07969681173563004,-0.4132951498031616,0.8833615779876709,16.49908447265625,-9.197786331176758,5.7051615715026855,-0.6509674191474915,-0.7949602603912354,-0.25198739767074585,-1.2939467430114746,-0.10178375244140625,-7.549516201019287
54,78066,78068,-0.12301331758499146,-0.08177834749221802,0.9006552696228027,1.1948678493499756,-14.719660758972168,8.980480194091797,-0.6404679417610168,-0.7994599938392639,-0.2384880781173706,-1.1570298671722412,0.001495886011980474,-7.50452995300293
55,78076,78078,-0.3677558898925781,-0.10754459351301193,0.9021713137626648,-15.10037899017334,-14.642871856689453,10.402130126953125,-0.6344682574272156,-0.7994599938392639,-0.23248836398124695,-1.0310349464416504,-0.06171137094497681,-7.426031589508057
56,78086,78088,-0.19848719239234924,-0.2179803103208542,0.8746464848518372,-32.119258880615234,-11.742423057556152,11.302956581115723,-0.6434678435325623,-0.7814609408378601,-0.2474876195192337,-0.8380253314971924,-0.3962986171245575,-7.354132652282715
57,78096,78098,-0.11318815499544144,-0.02531498856842518,0.9360028505325317,-43.786521911621094,-10.910124778747559,9.85146427154541,-0.623968780040741,-0.782960832118988,-0.24298784136772156,-0.6851714253425598,-0.5611763000488281,-7.21908712387085
58,78106,78108,-0.8039173483848572,-0.27066153287887573,0.970759391784668,-43.99867630004883,-4.5580596923828125,8.22580337524414,-0.6254687309265137,-0.7814609408378601,-0.24148792028427124,-0.5765210390090942,-1.0086625814437866,-7.124185085296631
59,78116,78118,-0.3453512489795685,-0.5630232691764832,0.9504312872886658,-33.61957550048828,3.4351277351379395,5.217477798461914,-0.6104694604873657,-0.7844607830047607,-0.2384880781173706,-0.49362504482269287,-1.5936338901519775,-7.066540718078613
60,78126,78128,-0.20674799382686615,-0.28849005699157715,0.9670845866203308,-13.445853233337402,8.319121360778809,2.9801406860351562,-0.623968780040741,-0.7799609899520874,-0.2369881421327591,-0.6114814877510071,-1.6987626552581787,-6.978527069091797
61,78136,78138,-1.194866418838501,-0.41340893507003784,1.0683666467666626,10.38626766204834,9.472150802612305,1.6719387769699097,-0.6314684152603149,-0.7784610390663147,-0.24148792028427124,-0.7534276843070984,-1.8427767753601074,-6.940249919891357
62,78146,78148,-0.8485670685768127,-0.3004644513130188,1.0543174743652344,34.41018295288086,6.288890361785889,0.39720091223716736,-0.6314684152603149,-0.7874606251716614,-0.23248836398124695,-0.6482635736465454,-1.646254062652588,-6.948875904083252
63,78156,78158,-0.3574642837047577,-0.7155324220657349,0.957439124584198,55.14418411254883,0.4763057827949524,-0.4036460816860199,-0.6344682574272156,-0.7964601516723633,-0.23248836398124695,-0.7839246988296509,-1.1398776769638062,-6.9188995361328125
64,78166,78168,-1.048980474472046,-0.456046998500824,0.9598438739776611,62.447940826416016,-5.967645645141602,-2.937046766281128,-0.6374680995941162,-0.7994599938392639,-0.24148792028427124,-0.808610737323761,-0.48721620440483093,-6.910851955413818
65,78176,78178,-0.4929544925689697,-0.19849024713039398,0.962571918964386,54.59022903442383,-10.690581321716309,-4.540700912475586,-0.6449677348136902,-0.8009599447250366,-0.24898754060268402,-0.7305943369865417,0.033196933567523956,-6.948615550994873
66,78186,78188,-0.31436803936958313,-0.17777113616466522,0.981288492679596,40.66810607910156,-10.345793724060059,-5.2652130126953125,-0.6419678926467896,-0.8189590573310852,-0.24898754060268402,-0.5916194319725037,0.5636168122291565,-7.003973007202148
67,78196,78198,-0.277511864900589,-0.11684828251600266,0.9336103796958923,21.668100357055664,-3.2833681106567383,-4.732344150543213,-0.6374680995941162,-0.8084595799446106,-0.2474876195192337,-0.4760832190513611,0.7709739804267883,-7.076798915863037
68,78206,78208,-0.17839315533638,-0.27037689089775085,0.9380210638046265,2.6950204372406006,0.6791356801986694,-3.5804309844970703,-0.6389680504798889,-0.8099594712257385,-0.25198739767074585,-0.4636093080043793,0.9704482555389404,-7.121034145355225
69,78216,78218,-0.11474078893661499,-0.37271225452423096,0.939272403717041,-13.379803657531738,7.15358304977417,-2.4439423084259033,-0.6299684643745422,-0.8009599447250366,-0.2549872398376465,-0.39460209012031555,0.942466676235199,-7.173503875732422
70,78226,78228,-0.1029127761721611,-0.08688803017139435,0.9256793260574341,-27.074331283569336,8.015992164611816,-0.13362626731395721,-0.6344682574272156,-0.7994599938392639,-0.25048747658729553,-0.41812223196029663,0.7340259552001953,-7.2065815925598145
71,78236,78238,-0.24850250780582428,-0.14340588450431824,0.9332051277160645,-35.27670669555664,1.7205657958984375,3.2316789627075195,-0.6299684643745422,-0.8009599447250366,-0.24298784136772156,-0.57439124584198,0.39469388127326965,-7.201138019561768
72,78246,78248,-0.1864410936832428,-0.24627414345741272,0.965294361114502,-39.118839263916016,1.246119499206543,6.162219524383545,-0.6134693026542664,-0.7934603095054626,-0.24148792028427124,-0.656751275062561,0.0674736499786377,-7.161401748657227
73,78256,78258,-0.22789761424064636,-0.13201777637004852,0.9396216869354248,-37.71564865112305,-0.04314427450299263,6.122567653656006,-0.6044697761535645,-0.7964601516723633,-0.24448777735233307,-0.5554463863372803,-0.31232720613479614,-7.108344554901123
74,78266,78268,-0.23927603662014008,-0.2612374722957611,0.9176396727561951,-29.449310302734375,2.4604902267456055,5.302148818969727,-0.623968780040741,-0.7919603586196899,-0.2459876984357834,-0.5445860028266907,-0.6429972052574158,-7.048931121826172
75,78276,78278,-0.7388591766357422,-0.7213805913925171,0.9947286248207092,-12.512261390686035,8.540616989135742,5.974318981170654,-0.6329683661460876,-0.7949602603912354,-0.25198739767074585,-0.5825784206390381,-0.9627759456634521,-6.996738910675049
76,78286,78288,-0.2778076231479645,-0.27519690990448,1.0176997184753418,3.2865025997161865,10.722976684570312,6.256692409515381,-0.6179690957069397,-0.8069596290588379,-0.24898754060268402,-0.6303245425224304,-1.0752313137054443,-6.9412713050842285
77,78296,78298,-0.2270345240831375,-0.3354564309120178,1.0220032930374146,15.312685012817383,4.485905170440674,7.257998943328857,-0.6254687309265137,-0.8144592642784119,-0.24448777735233307,-0.6881395578384399,-0.941489040851593,-6.8774733543396
78,78306,78308,-0.501533031463623,-0.3382328450679779,1.0012322664260864,22.00609588623047,-2.103445529937744,8.12288761138916,-0.6359682083129883,-0.8039597868919373,-0.24898754060268402,-0.797010064125061,-0.6953923106193542,-6.797983169555664
79,78316,78318,-0.901238739490509,-0.6098324656486511,0.9960864782333374,22.562999725341797,-8.309539794921875,8.505609512329102,-0.6314684152603149,-0.8234587907791138,-0.2474876195192337,-0.7240960001945496,-0.421878457069397,-6.723681449890137
80,78326,78328,-0.34456494450569153,-0.16439783573150635,0.9724284410476685,17.123943328857422,-14.534432411193848,10.207244873046875,-0.616469144821167,-0.7964601516723633,-0.2474876195192337,-0.6670761704444885,-0.32130464911460876,-6.634944438934326
81,78336,78338,-1.1063172817230225,-0.3619176149368286,1.0006617307662964,11.023454666137695,-15.726703643798828,10.984146118164062,-0.623968780040741,-0.8189590573310852,-0.2459876984357834,-0.47013938426971436,-0.08798620104789734,-6.537514686584473
82,78346,78348,-1.0264543294906616,-0.3390064537525177,0.9837548136711121,10.350398063659668,-21.215600967407227,12.217960357666016,-0.6209689378738403,-0.8249587416648865,-0.26098695397377014,-0.24591940641403198,-0.005949370563030243,-6.43654727935791
83,78356,78358,-0.4483644366264343,-0.7052841186523438,1.0691845417022705,6.489376068115234,-20.845138549804688,11.379703521728516,-0.622468888759613,-0.8234587907791138,-0.25348731875419617,0.03614982217550278,0.1251731961965561,-6.3272881507873535
84,78366,78368,-0.2262960970401764,-0.23844057321548462,1.0273118019104004,-1.8759044408798218,-14.515543937683105,10.192684173583984,-0.6104694604873657,-0.8324583768844604,-0.26248687505722046,0.3115769326686859,0.16923414170742035,-6.222139835357666
85,78376,78378,-0.1717107892036438,-0.26754915714263916,1.008529782295227,-7.061957836151123,1.9317303895950317,8.222042083740234,-0.5984700918197632,-0.8294585347175598,-0.25348731875419617,0.38088110089302063,0.09331316500902176,-6.114161014556885
86,78386,78388,-0.38092899322509766,-0.19087781012058258,0.9629967212677002,-8.521568298339844,20.89604377746582,5.6527204513549805,-0.6119694113731384,-0.8249587416648865,-0.2669866383075714,0.3173387944698334,0.08147347718477249,-6.031388759613037
87,78396,78398,-0.9049587845802307,-0.2482723444700241,0.9472784996032715,-4.790230751037598,32.01319885253906,4.9050679206848145,-0.6074696183204651,-0.8264586329460144,-0.2594870328903198,0.10672860592603683,-0.07955921441316605,-5.970059871673584
88,78406,78408,-0.9937201142311096,-0.09654510021209717,1.0987967252731323,-3.326749801635742,33.84049987792969,3.0949952602386475,-0.6194689869880676,-0.8234587907791138,-0.25048747658729553,-0.4621517062187195,-0.10094574838876724,-5.903964519500732
89,78416,78418,-0.5676066875457764,-0.5182636380195618,1.0457448959350586,-4.300511837005615,31.53607177734375,0.7993282675743103,-0.6104694604873657,-0.8204589486122131,-0.25048747658729553,-0.6944822072982788,-0.16526515781879425,-5.880732536315918
90,78426,78428,-0.23063643276691437,-0.6067337393760681,1.0073254108428955,-8.261728286743164,24.563739776611328,-1.1739070415496826,-0.616469144821167,-0.8264586329460144,-0.2474876195192337,-1.0209777355194092,-0.127609983086586,-5.878727436065674
91,78436,78438,-0.5917719602584839,-0.12805789709091187,0.9814081192016602,-11.783791542053223,16.109981536865234,-1.9488266706466675,-0.616469144821167,-0.8234587907791138,-0.2474876195192337,-1.0845600366592407,-0.14669166505336761,-5.908450603485107
92,78446,78448,-0.5880498290061951,-0.07863818854093552,0.9956783056259155,-17.98027992248535,14.925125122070312,-1.8813903331756592,-0.6209689378738403,-0.8249587416648865,-0.2549872398376465,-1.2594412565231323,-0.3913518190383911,-5.9258856773376465
93,78456,78458,-1.497826337814331,-1.000455617904663,0.9902384877204895,-17.567724227905273,17.085281372070312,-0.9321214556694031,-0.6194689869880676,-0.8264586329460144,-0.2654867172241211,-1.4852601289749146,-0.6345708966255188,-5.940746307373047
94,78466,78468,-0.6677451729774475,-0.5511500835418701,1.0523806810379028,-18.32202911376953,14.099100112915039,3.0128018856048584,-0.6149692535400391,-0.8159592151641846,-0.2639867961406708,-1.639999270439148,-0.6658480167388916,-5.947386264801025
95,78476,78478,-0.15274783968925476,-0.6532915830612183,1.061071515083313,-16.80104637145996,4.065864086151123,8.344490051269531,-0.6134693026542664,-0.8174591064453125,-0.25048747658729553,-1.7299253940582275,-0.8451172709465027,-5.9156317710876465
96,78486,78488,-0.13518373668193817,-0.6100335717201233,0.9983379244804382,-15.915416717529297,-6.872002601623535,12.749183654785156,-0.6149692535400391,-0.8129593133926392,-0.2549872398376465,-1.66995370388031,-0.9982931613922119,-5.835691452026367
97,78496,78498,-0.19067837297916412,-0.6318032741546631,1.124192476272583,-17.626785278320312,-12.004711151123047,14.953096389770508,-0.616469144821167,-0.8234587907791138,-0.26248687505722046,-1.6024032831192017,-1.141459345817566,-5.707165718078613
98,78506,78508,-0.18840639293193817,-0.43368616700172424,1.0399465560913086,-17.23362922668457,-10.257125854492188,14.774335861206055,-0.6194689869880676,-0.8084595799446106,-0.25348731875419617,-1.4665534496307373,-1.3748011589050293,-5.566307544708252
99,78516,78518,-0.2002859115600586,-0.27895623445510864,1.0422217845916748,-18.120603561401367,-6.9684295654296875,12.68156909942627,-0.6104694604873657,-0.8174591064453125,-0.26248687505722046,-1.4352195262908936,-1.4006927013397217,-5.399749279022217
100,78526,78528,-0.11833959817886353,-0.027547162026166916,1.081071376800537,-9.950773239135742,-5.802743434906006,9.024943351745605,-0.6179690957069397,-0.8159592151641846,-0.24898754060268402,-1.3739010095596313,-1.6264909505844116,-5.277446746826172
101,78536,78538,-0.08401351422071457,-0.06502354145050049,1.03615140914917,-1.0669989585876465,-2.181084156036377,6.776158809661865,-0.6134693026542664,-0.8114594221115112,-0.2654867172241211,-1.342228889465332,-1.651109218597412,-5.178926944732666
102,78546,78548,-0.6096521019935608,-0.2568153142929077,1.1284081935882568,5.708334445953369,-1.6322671175003052,5.087567329406738,-0.6194689869880676,-0.8114594221115112,-0.25348731875419617,-1.3466875553131104,-1.6770156621932983,-5.112066745758057
103,78556,78558,-0.3286549746990204,-0.03636777773499489,1.1505991220474243,12.030990600585938,-0.335184782743454,4.191686630249023,-0.6194689869880676,-0.8144592642784119,-0.2564871609210968,-1.221145510673523,-1.5831630229949951,-5.076220512390137
104,78566,78568,-0.2082417607307434,-0.031920284032821655,1.0920403003692627,21.67388343811035,5.039445400238037,2.921847343444824,-0.6149692535400391,-0.8129593133926392,-0.24298784136772156,-1.2812182903289795,-1.3916852474212646,-5.021475315093994
105,78576,78578,-0.11803746968507767,-0.1277574747800827,1.075729250907898,29.25914764404297,8.196080207824707,1.9703052043914795,-0.6254687309265137,-0.8144592642784119,-0.2474876195192337,-1.3659018278121948,-1.2034263610839844,-4.992476463317871
106,78586,78588,-0.9149941802024841,-0.1680956929922104,1.040403127670288,32.113670349121094,10.484678268432617,-0.6540929675102234,-0.623968780040741,-0.8219588994979858,-0.2549872398376465,-1.4761431217193604,-0.9461911916732788,-4.980554580688477
107,78596,78598,-0.5724725723266602,-0.19840086996555328,1.0486446619033813,26.0249080657959,8.720392227172852,-1.8659591674804688,-0.6269686222076416,-0.8069596290588379,-0.26098695397377014,-1.5917537212371826,-0.6757639646530151,-4.990018844604492
108,78606,78608,-0.00532852066680789,-0.09921145439147949,1.1392879486083984,18.88467788696289,1.7997242212295532,-0.49010205268859863,-0.616469144821167,-0.8204589486122131,-0.24148792028427124,-1.580215334892273,-0.5027939081192017,-5.029099464416504
109,78616,78618,-0.034329138696193695,0.11246328800916672,0.964082658290863,5.752123832702637,-7.5910964012146,0.7546975612640381,-0.623968780040741,-0.8129593133926392,-0.25198739767074585,-1.448362112045288,-0.22911889851093292,-5.045779228210449
110,78626,78628,-0.26739344000816345,-0.20721618831157684,1.0383068323135376,-8.944313049316406,-10.93975830078125,0.971014142036438,-0.6179690957069397,-0.8129593133926392,-0.2459876984357834,-1.4071930646896362,-0.18328750133514404,-5.034514427185059
111,78636,78638,-0.16199570894241333,-0.25867027044296265,0.9258867502212524,-20.564498901367188,-10.726882934570312,0.3541797697544098,-0.616469144821167,-0.8024598360061646,-0.26248687505722046,-1.1639658212661743,-0.33103495836257935,-5.05824613571167
112,78646,78648,-0.1814771443605423,-0.2809835374355316,1.0367159843444824,-29.576810836791992,-6.3437652587890625,0.3938460946083069,-0.6149692535400391,-0.7919603586196899,-0.2549872398376465,-1.155824899673462,-0.6661146879196167,-5.061560153961182
113,78656,78658,-0.28321194648742676,-0.8261683583259583,1.0856478214263916,-33.897422790527344,-1.261680245399475,-0.9342758059501648,-0.6194689869880676,-0.8084595799446106,-0.2594870328903198,-1.1432576179504395,-0.8738606572151184,-5.041701793670654
114,78666,78668,-0.04988618567585945,-0.31122827529907227,0.9379180073738098,-25.57536506652832,5.276744365692139,-2.725334882736206,-0.6134693026542664,-0.80545973777771,-0.2564871609210968,-1.1938649415969849,-1.3449726104736328,-5.062893867492676
115,78676,78678,-0.22364363074302673,-0.572135329246521,1.114664077758789,-8.009153366088867,6.759078025817871,-2.520479202270508,-0.6179690957069397,-0.8099594712257385,-0.2549872398376465,-1.235357642173767,-1.5343856811523438,-5.081369400024414
116,78686,78688,-0.15650726854801178,-0.46353840827941895,1.2074933052062988,10.935202598571777,3.688748359680176,-1.3118176460266113,-0.623968780040741,-0.8009599447250366,-0.25198739767074585,-1.1950398683547974,-1.6424016952514648,-5.116793632507324
117,78696,78698,-0.05821693688631058,-0.2700583040714264,1.045215368270874,27.9284610748291,1.5140056610107422,-0.23528921604156494,-0.6269686222076416,-0.8069596290588379,-0.25198739767074585,-1.2402212619781494,-1.4008389711380005,-5.107547283172607
118,78706,78708,-0.16128303110599518,-0.12166696786880493,0.9903551936149597,36.73170471191406,-1.0841730833053589,-2.504034996032715,-0.6359682083129883,-0.8069596290588379,-0.25198739767074585,-1.1811182498931885,-1.1453697681427002,-5.122231960296631
119,78716,78718,-0.2923106253147125,-0.13776719570159912,1.071463942527771,40.4304084777832,-4.288355350494385,-2.956768274307251,-0.6284685730934143,-0.8114594221115112,-0.2564871609210968,-1.1036560535430908,-0.7988196015357971,-5.157172679901123
120,78726,78728,-0.5421531796455383,-0.23864121735095978,0.9967944025993347,38.53310012817383,-8.524961471557617,-3.8672449588775635,-0.6254687309265137,-0.8204589486122131,-0.24448777735233307,-0.9185695648193359,-0.36645209789276123,-5.2120361328125
121,78736,78738,-1.1274815797805786,-0.3422744572162628,1.0562970638275146,28.29928207397461,-9.982465744018555,-4.317069053649902,-0.622468888759613,-0.8174591064453125,-0.2564871609210968,-0.8394107222557068,0.022973481565713882,-5.250329971313477
122,78746,78748,-1.388855218887329,-0.4789651036262512,1.1229264736175537,17.062339782714844,-12.38370132446289,-6.354248523712158,-0.622468888759613,-0.8084595799446106,-0.25048747658729553,-0.7126247882843018,0.38472798466682434,-5.2888689041137695
123,78756,78758,-0.951088011264801,-0.7521492838859558,1.171619176864624,5.958179950714111,-9.62009334564209,-9.237442016601562,-0.6254687309265137,-0.80545973777771,-0.26248687505722046,-0.537452757358551,0.420624315738678,-5.370421409606934
124,78766,78768,-0.4961961805820465,-0.6674153208732605,0.9615004658699036,-4.712770938873291,-5.321460723876953,-10.473956108093262,-0.6104694604873657,-0.8204589486122131,-0.2474876195192337,-0.390929251909256,0.31221264600753784,-5.476775646209717
125,78776,78778,-0.4872722029685974,-0.5282774567604065,0.870826780796051,-6.7964768409729,1.921083927154541,-12.145427703857422,-0.622468888759613,-0.7994599938392639,-0.2474876195192337,-0.3925033509731293,0.36455032229423523,-5.576352596282959
126,78786,78788,-0.3537655174732208,-0.20886504650115967,0.947526216506958,-2.5215697288513184,3.9983110427856445,-13.241207122802734,-0.623968780040741,-0.8009599447250366,-0.2459876984357834,-0.4144778847694397,0.29012930393218994,-5.704189300537109
127,78796,78798,-0.27564123272895813,0.019429747015237808,0.9756266474723816,3.5760228633880615,6.4706854820251465,-12.330158233642578,-0.6269686222076416,-0.8039597868919373,-0.2459876984357834,-0.5246625542640686,0.27809658646583557,-5.830748558044434
128,78806,78808,-0.5544652938842773,-0.10960771888494492,1.069951057434082,-2.13187837600708,2.9810383319854736,-10.084280967712402,-0.6209689378738403,-0.797960102558136,-0.24298784136772156,-0.4735727310180664,0.2878037393093109,-5.953482151031494
129,78816,78818,-0.4352332055568695,-0.5066757202148438,1.0140451192855835,-5.317354202270508,0.6652068495750427,-7.776898384094238,-0.616469144821167,-0.8114594221115112,-0.25348731875419617,-0.37425556778907776,0.29715320467948914,-6.054372310638428
130,78826,78828,-0.13147574663162231,-0.5544465184211731,0.908872127532959,-7.035219192504883,6.6291422843933105,-6.771060943603516,-0.6254687309265137,-0.7994599938392639,-0.2474876195192337,-0.5302356481552124,0.3311516344547272,-6.134263038635254
131,78836,78838,-0.1847790777683258,-0.46850505471229553,1.172243595123291,-9.434195518493652,7.569379806518555,-4.022075653076172,-0.6284685730934143,-0.8114594221115112,-0.25348731875419617,-0.7066243290901184,0.19463278353214264,-6.198513507843018
132,78846,78848,-0.10839484632015228,-0.02458394318819046,1.1217784881591797,-12.34533405303955,8.219484329223633,-3.3696632385253906,-0.622468888759613,-0.80545973777771,-0.2474876195192337,-0.7351788878440857,0.10841149091720581,-6.237934589385986
133,78856,78858,-0.2620461583137512,-0.11960100382566452,1.1307088136672974,-11.933610916137695,10.9832124710083,-2.770817756652832,-0.6299684643745422,-0.7919603586196899,-0.2459876984357834,-0.8155880570411682,0.05984491482377052,-6.273170471191406
134,78866,78868,-0.48567456007003784,-0.8214930891990662,1.0076903104782104,-7.142785549163818,12.162891387939453,-2.437291145324707,-0.6344682574272156,-0.8114594221115112,-0.25048747658729553,-0.9911279678344727,-0.017854370176792145,-6.305931568145752
135,78876,78878,-0.858758807182312,-0.7855471968650818,0.9054020643234253,-6.4970479011535645,12.74161148071289,-3.135347843170166,-0.6344682574272156,-0.8114594221115112,-0.25048747658729553,-1.0957794189453125,-0.11695417761802673,-6.334793567657471
136,78886,78888,-0.35055339336395264,-0.08876785635948181,0.9851729869842529,-3.710482597351074,11.219300270080566,-1.5640238523483276,-0.6344682574272156,-0.8114594221115112,-0.25048747658729553,-1.2472187280654907,-0.16151858866214752,-6.366013050079346
137,78896,78898,-0.11160458624362946,-0.05529344454407692,1.0043308734893799,-5.916996955871582,6.755741596221924,0.19127990305423737,-0.6314684152603149,-0.7964601516723633,-0.24148792028427124,-1.2600756883621216,-0.179167702794075,-6.377385139465332
138,78906,78908,-0.3939392566680908,-0.43882614374160767,0.8927748203277588,-3.868784189224243,0.34495529532432556,0.7844772338867188,-0.6389680504798889,-0.797960102558136,-0.24898754060268402,-1.316676139831543,-0.2290799468755722,-6.375418186187744
139,78916,78918,-0.38673365116119385,-0.30893081426620483,0.9673030376434326,-3.7358758449554443,-1.1509560346603394,0.5984211564064026,-0.6299684643745422,-0.7919603586196899,-0.2459876984357834,-1.350610375404358,-0.3695463538169861,-6.371864318847656
140,78926,78928,-0.24079453945159912,-0.6225226521492004,1.1755216121673584,-8.418770790100098,-1.8307607173919678,-1.0919158458709717,-0.6179690957069397,-0.797960102558136,-0.2549872398376465,-1.1191513538360596,-0.4789571762084961,-6.3596038818359375
141,78936,78938,-0.10973106324672699,-0.5684481859207153,1.0587680339813232,-6.901989459991455,-4.705508232116699,-2.7777421474456787,-0.6284685730934143,-0.7934603095054626,-0.26848655939102173,-1.1089119911193848,-0.5411609411239624,-6.370431423187256
142,78946,78948,-0.40493080019950867,-0.32143980264663696,0.9129381775856018,-1.9893344640731812,-4.963764190673828,-2.9868972301483154,-0.6359682083129883,-0.797960102558136,-0.25198739767074585,-1.07749342918396,-0.583813488483429,-6.400576591491699
143,78956,78958,-0.2009374052286148,-0.336185485124588,0.9474424123764038,5.640387535095215,0.9700454473495483,-3.0912692546844482,-0.6254687309265137,-0.7934603095054626,-0.2474876195192337,-1.0698258876800537,-0.5804296731948853,-6.427804470062256
144,78966,78968,-0.20286627113819122,-0.14904390275478363,1.1466989517211914,10.320761680603027,4.119516372680664,-4.035546779632568,-0.6344682574272156,-0.80545973777771,-0.23548822104930878,-1.0311025381088257,-0.507623016834259,-6.451532363891602
145,78976,78978,-0.2680946886539459,-0.3970264196395874,0.9847860932350159,19.856075286865234,2.862593173980713,-6.609039783477783,-0.6404679417610168,-0.7964601516723633,-0.25048747658729553,-1.0715429782867432,-0.3062245845794678,-6.487378120422363
146,78986,78988,-0.9575249552726746,-0.4234483242034912,0.9567416906356812,29.446138381958008,-4.185148239135742,-7.415923595428467,-0.6479675769805908,-0.8009599447250366,-0.2549872398376465,-1.0571050643920898,-0.01281630527228117,-6.549360752105713
147,78996,78998,-1.6214951276779175,-0.35847508907318115,0.9752709269523621,38.12624740600586,-10.5040283203125,-7.298532962799072,-0.6314684152603149,-0.7934603095054626,-0.24448777735233307,-0.9946076273918152,0.20920951664447784,-6.632219314575195
148,79006,79008,-1.4982208013534546,0.13737986981868744,0.8693001866340637,37.63629913330078,-9.285757064819336,-6.726987838745117,-0.6419678926467896,-0.8129593133926392,-0.24898754060268402,-0.8481907844543457,0.7460765242576599,-6.699375152587891
149,79016,79018,-0.9862582683563232,-0.08384928852319717,1.004233717918396,27.332780838012695,-8.355616569519043,-3.2986667156219482,-0.6344682574272156,-0.8144592642784119,-0.2564871609210968,-0.7583317756652832,1.0901800394058228,-6.762904644012451
150,79026,79028,-0.5644431710243225,-0.12841850519180298,1.0215957164764404,16.443410873413086,-2.0989973545074463,-0.5716099143028259,-0.6449677348136902,-0.8069596290588379,-0.25198739767074585,-0.6757826805114746,1.2900738716125488,-6.797739028930664
151,79036,79038,-0.12351507693529129,-0.037794481962919235,1.029276967048645,6.00960636138916,8.48267936706543,3.466719627380371,-0.6389680504798889,-0.8249587416648865,-0.26098695397377014,-0.8739031553268433,1.248327612876892,-6.8181867599487305
152,79046,79048,-0.014224358834326267,-0.19755427539348602,0.9377814531326294,-4.992616653442383,10.24716854095459,7.029238700866699,-0.6329683661460876,-0.8219588994979858,-0.2579870820045471,-0.8917433023452759,1.3054958581924438,-6.781102657318115
153,79056,79058,-0.13318201899528503,-0.22461527585983276,0.9294301271438599,-15.29233169555664,14.771119117736816,8.791790962219238,-0.6374680995941162,-0.80545973777771,-0.2564871609210968,-1.11561918258667,1.2283177375793457,-6.720548629760742
154,79066,79068,-0.08287248015403748,-0.037947311997413635,1.0516189336776733,-18.272546768188477,15.648381233215332,11.00078296661377,-0.6329683661460876,-0.8159592151641846,-0.25198739767074585,-1.171170711517334,1.119333028793335,-6.614921569824219
155,79076,79078,-0.019735848531126976,0.026356033980846405,0.9674097299575806,-19.334888458251953,7.778776168823242,13.096673011779785,-0.6344682574272156,-0.8174591064453125,-0.26248687505722046,-1.3858288526535034,0.8799297213554382,-6.51400899887085
156,79086,79088,-0.23507536947727203,-0.29646989703178406,0.9836106300354004,-18.756162643432617,-0.9249101877212524,16.248226165771484,-0.6269686222076416,-0.8099594712257385,-0.2639867961406708,-1.509306788444519,0.7213764786720276,-6.389132022857666
157,79096,79098,-0.11184999346733093,-0.42122000455856323,0.9470974802970886,-13.923746109008789,-5.502869129180908,18.94313621520996,-0.6179690957069397,-0.8249587416648865,-0.24898754060268402,-1.507910966873169,0.5950234532356262,-6.225305557250977
158,79106,79108,-0.6140408515930176,-0.26203081011772156,0.9618176817893982,-10.552286148071289,-9.33725357055664,20.687175750732422,-0.6329683661460876,-0.8099594712257385,-0.26098695397377014,-1.374942660331726,0.5205764174461365,-6.023571968078613
159,79116,79118,-0.8035394549369812,-0.28739988803863525,0.9627384543418884,-9.693591117858887,-14.37280559539795,21.271934509277344,-0.6344682574272156,-0.8144592642784119,-0.2594870328903198,-1.1424022912979126,0.345126211643219,-5.804283142089844
160,79126,79128,-1.0726072788238525,-0.5651242136955261,0.9253817200660706,-9.749566078186035,-14.582650184631348,19.984317779541016,-0.6104694604873657,-0.8174591064453125,-0.2594870328903198,-1.0256942510604858,0.23835881054401398,-5.6015400886535645
161,79136,79138,-0.9313675761222839,-0.48606178164482117,1.0862007141113281,-7.938629150390625,-12.753804206848145,18.75881576538086,-0.616469144821167,-0.8324583768844604,-0.26848655939102173,-0.9064901471138,0.21764831244945526,-5.402505397796631
162,79146,79148,-0.04295532777905464,-0.47706761956214905,1.1019566059112549,-4.675823211669922,-7.241438388824463,15.305787086486816,-0.6104694604873657,-0.8234587907791138,-0.2564871609210968,-0.8715149760246277,0.31690120697021484,-5.2187676429748535
163,79156,79158,-0.2771625518798828,-0.14467301964759827,1.1313934326171875,2.033141613006592,1.38870370388031,13.436129570007324,-0.6194689869880676,-0.8264586329460144,-0.2564871609210968,-0.8283823728561401,0.2215833216905594,-5.0672101974487305
164,79166,79168,-0.1972111612558365,-0.04349268227815628,1.151350975036621,8.089869499206543,6.871171951293945,12.2617769241333,-0.6269686222076416,-0.8309584259986877,-0.26098695397377014,-0.8969700336456299,0.23958341777324677,-4.939810276031494
165,79176,79178,-0.41352298855781555,-0.3653891384601593,1.0425325632095337,13.82824420928955,9.381871223449707,10.353092193603516,-0.6269686222076416,-0.8249587416648865,-0.26098695397377014,-0.9162712097167969,0.3635598421096802,-4.810735702514648
166,79186,79188,-0.5566172003746033,-0.3858613073825836,1.0379245281219482,13.50244140625,5.862531661987305,8.192488670349121,-0.6314684152603149,-0.8204589486122131,-0.26848655939102173,-1.0299246311187744,0.5552290081977844,-4.708372592926025
167,79196,79198,-0.28616824746131897,-0.7594785094261169,0.9313598275184631,9.673600196838379,-1.7612968683242798,4.972203254699707,-0.6254687309265137,-0.8234587907791138,-0.2564871609210968,-1.008471131324768,0.6936102509498596,-4.621518135070801
168,79206,79208,-0.11049887537956238,-1.0985133647918701,0.9000959396362305,2.2536442279815674,-9.842727661132812,3.0457780361175537,-0.6254687309265137,-0.8234587907791138,-0.2594870328903198,-0.964706540107727,0.8165898323059082,-4.5695881843566895
169,79216,79218,-0.15354688465595245,-0.4435577094554901,0.9774578213691711,-3.7251060009002686,-17.01083755493164,1.3051823377609253,-0.6179690957069397,-0.8249587416648865,-0.2459876984357834,-0.8315342664718628,0.793407678604126,-4.543932914733887
170,79226,79228,-0.18730109930038452,-0.11804626882076263,1.0487496852874756,-8.182194709777832,-19.670787811279297,0.24617521464824677,-0.6134693026542664,-0.8294585347175598,-0.2564871609210968,-0.6721867918968201,0.6684073209762573,-4.535196781158447
171,79236,79238,-0.5257267951965332,-0.2833019196987152,0.9695926308631897,-16.253604888916016,-16.004655838012695,0.34668636322021484,-0.6194689869880676,-0.8294585347175598,-0.2594870328903198,-0.34198400378227234,0.4835192561149597,-4.518129348754883
172,79246,79248,-0.6788539290428162,-0.1753077507019043,0.9712530374526978,-22.508087158203125,-11.839309692382812,0.287243127822876,-0.6089695692062378,-0.8309584259986877,-0.26098695397377014,-0.1929032951593399,0.38249659538269043,-4.512874126434326
173,79256,79258,-0.26509594917297363,-0.06220133975148201,0.9948717355728149,-28.65241050720215,-4.105058670043945,1.1291793584823608,-0.6194689869880676,-0.8234587907791138,-0.26248687505722046,-0.03215137496590614,-0.021627657115459442,-4.508969306945801
174,79266,79268,-0.07438525557518005,-0.21449162065982819,1.011324405670166,-29.59996795654297,6.666890621185303,2.9600870609283447,-0.6134693026542664,-0.80545973777771,-0.2564871609210968,-0.07946602255105972,-0.145549476146698,-4.506692409515381
175,79276,79278,-0.3421578109264374,-0.3070255219936371,0.9486287236213684,-27.654953002929688,13.651202201843262,4.263030529022217,-0.6179690957069397,-0.8069596290588379,-0.24298784136772156,-0.20769034326076508,-0.4628930985927582,-4.4872050285339355
176,79286,79288,-0.9919681549072266,-0.22602707147598267,0.9657411575317383,-21.478986740112305,18.520721435546875,5.1885480880737305,-0.6134693026542664,-0.8144592642784119,-0.25048747658729553,-0.41375792026519775,-0.6418210864067078,-4.459379196166992
177,79296,79298,-0.40715035796165466,-0.33469197154045105,0.9991915822029114,-12.051262855529785,17.984540939331055,6.6909685134887695,-0.6059696674346924,-0.8039597868919373,-0.2549872398376465,-0.7029563784599304,-0.8445629477500916,-4.41743803024292
178,79306,79308,-0.04898195341229439,-0.30132824182510376,1.0296399593353271,-2.3808939456939697,18.14297103881836,7.6432204246521,-0.622468888759613,-0.80545973777771,-0.2474876195192337,-0.9556995630264282,-0.9937545657157898,-4.358981132507324
179,79316,79318,-0.49938008189201355,-0.3172948360443115,1.087692379951477,1.8665517568588257,15.752527236938477,7.749149322509766,-0.6194689869880676,-0.8174591064453125,-0.24148792028427124,-1.157841444015503,-0.9720451235771179,-4.28899621963501
180,79326,79328,-0.34033074975013733,-0.24907957017421722,1.1582024097442627,4.323935031890869,9.972216606140137,7.059135913848877,-0.616469144821167,-0.80545973777771,-0.24448777735233307,-1.2283973693847656,-0.8415884971618652,-4.210753917694092
181,79336,79338,-0.3482057452201843,-0.13304771482944489,1.1634471416473389,-0.24146635830402374,1.7553855180740356,6.371072292327881,-0.6194689869880676,-0.8234587907791138,-0.2564871609210968,-1.3082284927368164,-0.8121206760406494,-4.136396884918213
182,79346,79348,-0.3191806972026825,-0.1744856834411621,1.023450255393982,-9.6830472946167,-6.280745983123779,5.103447437286377,-0.6074696183204651,-0.8084595799446106,-0.25048747658729553,-1.197222113609314,-0.8793962597846985,-4.071000576019287
183,79356,79358,-0.23754309117794037,-0.5689696073532104,1.0831025838851929,-15.931990623474121,-15.3668851852417,4.010683059692383,-0.6194689869880676,-0.8144592642784119,-0.2474876195192337,-1.0219025611877441,-1.085536241531372,-4.018471717834473
184,79366,79368,-0.8078669905662537,-0.6179062724113464,0.9966562986373901,-17.902910232543945,-24.058815002441406,3.499283790588379,-0.6074696183204651,-0.8024598360061646,-0.24148792028427124,-0.7651983499526978,-1.1379003524780273,-3.978092670440674
185,79376,79378,-0.7113922834396362,-0.3301292061805725,1.0060210227966309,-13.282779693603516,-29.59651756286621,2.14105486869812,-0.6059696674346924,-0.8039597868919373,-0.2549872398376465,-0.5098662972450256,-1.3953022956848145,-3.9430582523345947
186,79386,79388,-0.42476126551628113,-0.16230934858322144,1.0939828157424927,-6.481727123260498,-26.33681869506836,1.8650521039962769,-0.6149692535400391,-0.8099594712257385,-0.24298784136772156,-0.4008062183856964,-1.473046898841858,-3.9091100692749023
187,79396,79398,-0.5814365148544312,-0.294910192489624,1.1539487838745117,4.064281463623047,-18.899883270263672,-0.22534619271755219,-0.6134693026542664,-0.8024598360061646,-0.2474876195192337,-0.006675158627331257,-1.5560519695281982,-3.8984808921813965
188,79406,79408,-0.19110479950904846,-0.060842063277959824,1.0950952768325806,16.814401626586914,-6.760494232177734,-3.778521776199341,-0.6179690957069397,-0.7919603586196899,-0.25198739767074585,0.08644169569015503,-1.4533133506774902,-3.89682936668396
189,79416,79418,-0.3058892786502838,-0.04983583092689514,1.0516120195388794,25.623886108398438,5.74658203125,-4.199303150177002,-0.6254687309265137,-0.7814609408378601,-0.24448777735233307,-0.03775881230831146,-1.1745235919952393,-3.917673349380493
190,79426,79428,-0.04773545265197754,-0.2882053852081299,0.9403895735740662,26.396156311035156,16.755029678344727,-3.439089298248291,-0.6254687309265137,-0.8024598360061646,-0.25348731875419617,-0.14647580683231354,-0.9061031937599182,-3.95695424079895
191,79436,79438,-0.024496154859662056,-0.17760412395000458,1.0692511796951294,18.346689224243164,21.351768493652344,-2.5775673389434814,-0.6194689869880676,-0.7964601516723633,-0.23548822104930878,-0.3311581015586853,-0.7586331367492676,-3.983407974243164
192,79446,79448,-0.5608921051025391,-0.2076985239982605,1.0191305875778198,6.107306003570557,21.009008407592773,-1.8401637077331543,-0.6254687309265137,-0.7874606251716614,-0.23548822104930878,-0.5572734475135803,-0.7241304516792297,-3.998566150665283
193,79456,79458,-1.1267716884613037,-0.3241869807243347,0.975223958492279,-4.219412326812744,16.716650009155273,-1.3277723789215088,-0.6209689378738403,-0.7949602603912354,-0.26098695397377014,-0.7044838666915894,-0.6615113615989685,-4.02810525894165
194,79466,79468,-0.49064210057258606,-0.601338267326355,0.9150682687759399,-11.720437049865723,9.920594215393066,-0.8826156258583069,-0.6194689869880676,-0.7874606251716614,-0.25348731875419617,-0.848163902759552,-0.6660410165786743,-4.05230188369751
195,79476,79478,-0.7801901698112488,-0.420559823513031,0.9352961182594299,-14.020126342773438,-0.5193464159965515,-0.29161855578422546,-0.616469144821167,-0.7934603095054626,-0.2384880781173706,-0.9514961242675781,-0.8653048276901245,-4.059414386749268
196,79486,79488,-0.5722641348838806,-0.9996429085731506,0.9919018745422363,-11.731583595275879,-15.894146919250488,0.4098217785358429,-0.623968780040741,-0.782960832118988,-0.2369881421327591,-0.7622464895248413,-0.8851763010025024,-4.088218688964844
197,79496,79498,-0.2796313762664795,-0.8213167786598206,1.08103609085083,-4.749721050262451,-25.919511795043945,1.5675066709518433,-0.6254687309265137,-0.790460467338562,-0.23248836398124695,-0.41266945004463196,-1.0570926666259766,-4.097605228424072
198,79506,79508,-0.28868964314460754,-0.3515115976333618,1.0155491828918457,3.4539177417755127,-32.00593948364258,1.771817684173584,-0.6284685730934143,-0.790460467338562,-0.2294885218143463,-0.26568740606307983,-1.011627435684204,-4.065887451171875
199,79516,79518,-0.06518273800611496,-0.34674251079559326,1.088503360748291,5.46780252456665,-32.62171936035156,0.9547409415245056,-0.622468888759613,-0.7964601516723633,-0.2564871609210968,0.12089856714010239,-1.0147886276245117,-4.051018714904785
200,79526,79528,0.00869111716747284,-0.40475812554359436,1.1986347436904907,8.432397842407227,-29.54743003845215,1.6979447603225708,-0.6074696183204651,-0.7874606251716614,-0.24448777735233307,0.5790171027183533,-0.9465762376785278,-4.048519134521484
201,79536,79538,-0.3755790591239929,-0.718154788017273,1.1507407426834106,8.41372299194336,-21.822298049926758,0.5426045656204224,-0.6194689869880676,-0.790460467338562,-0.2564871609210968,0.8714869618415833,-0.8769589066505432,-4.024087905883789
202,79546,79548,-0.3902636170387268,-0.8406028151512146,1.0685465335845947,8.919459342956543,-14.04112434387207,-0.4702361524105072,-0.6119694113731384,-0.7739613056182861,-0.25198739767074585,0.9742297530174255,-0.964637041091919,-3.975843906402588
203,79556,79558,-0.3559933006763458,-0.21897201240062714,0.918222963809967,8.003044128417969,-3.326447010040283,-0.696433424949646,-0.6179690957069397,-0.7769611477851868,-0.23398829996585846,1.1292349100112915,-0.833378255367279,-3.9848337173461914
204,79566,79568,-0.33533531427383423,-0.14018678665161133,0.9748616814613342,9.875125885009766,8.586665153503418,0.8654409646987915,-0.6389680504798889,-0.7799609899520874,-0.23998799920082092,1.061403512954712,-0.6719555854797363,-3.9874982833862305
205,79576,79578,-0.37300631403923035,-0.043662261217832565,0.9366746544837952,17.3841495513916,20.069475173950195,2.250422477722168,-0.6254687309265137,-0.790460467338562,-0.23548822104930878,0.904780924320221,-0.514197587966919,-3.984856367111206
206,79586,79588,-0.22768297791481018,0.06849616765975952,1.042054295539856,25.954296112060547,24.092239379882812,2.092538356781006,-0.623968780040741,-0.7799609899520874,-0.2369881421327591,0.6402794718742371,-0.3551107347011566,-3.9504988193511963
207,79596,79598,-0.04438168555498123,-0.19248659908771515,0.9573025703430176,28.70702362060547,22.19017791748047,1.4015657901763916,-0.623968780040741,-0.7919603586196899,-0.2459876984357834,0.3913230895996094,-0.06592416018247604,-3.93469500541687
208,79606,79608,-0.0711960420012474,-0.395929753780365,0.9509833455085754,21.71466064453125,20.8477783203125,0.9376116991043091,-0.6389680504798889,-0.7799609899520874,-0.2369881421327591,0.2703193128108978,0.045560289174318314,-3.899502992630005
209,79616,79618,-0.10726001113653183,-0.31203320622444153,0.9805122017860413,14.358241081237793,24.464414596557617,0.40626072883605957,-0.6449677348136902,-0.7919603586196899,-0.227988600730896,0.0637737512588501,0.31677424907684326,-3.90472412109375
210,79626,79628,-0.10298634320497513,-0.3595687747001648,1.0125190019607544,5.136735439300537,23.539730072021484,0.20434466004371643,-0.6389680504798889,-0.7919603586196899,-0.24298784136772156,-0.14205020666122437,0.35346636176109314,-3.8841922283172607
211,79636,79638,-0.13350464403629303,-0.15530844032764435,0.9282698631286621,-2.020155429840088,19.07933807373047,1.0149039030075073,-0.6284685730934143,-0.7964601516723633,-0.23248836398124695,-0.49544253945350647,0.435062438249588,-3.8769850730895996
212,79646,79648,-0.11495568603277206,-0.05386803671717644,0.9280662536621094,-5.791793346405029,17.080791473388672,1.6840100288391113,-0.6329683661460876,-0.7889605164527893,-0.23098844289779663,-0.7078121900558472,0.3658709228038788,-3.8554649353027344
213,79656,79658,-0.04238662123680115,-0.09746307134628296,0.9376484751701355,-8.95085620880127,8.624998092651367,5.029959678649902,-0.6269686222076416,-0.797960102558136,-0.2579870820045471,-0.6788254976272583,0.2769052982330322,-3.8400533199310303
214,79666,79668,-0.10076411813497543,-0.3193872272968292,0.8442068099975586,-14.045108795166016,-0.5652545094490051,9.190793991088867,-0.622468888759613,-0.790460467338562,-0.2474876195192337,-0.8166516423225403,0.08391009271144867,-3.768200635910034
215,79676,79678,-0.1883891224861145,-0.4526679813861847,0.926150381565094,-11.861982345581055,-10.815543174743652,11.065086364746094,-0.6194689869880676,-0.7844607830047607,-0.24448777735233307,-0.7812789082527161,-0.09752628952264786,-3.673402786254883
216,79686,79688,-0.4366929531097412,-0.2515983283519745,0.9675094485282898,-10.363975524902344,-26.285263061523438,12.141716957092285,-0.6194689869880676,-0.8024598360061646,-0.2594870328903198,-0.5124577879905701,-0.13927578926086426,-3.5709333419799805
217,79696,79698,-0.2153243124485016,-0.1633293181657791,0.9104039072990417,-4.6683735847473145,-34.078338623046875,10.129155158996582,-0.5954701900482178,-0.7934603095054626,-0.2564871609210968,-0.12556351721286774,-0.2092292755842209,-3.4544036388397217
218,79706,79708,-0.5181797742843628,-0.13708016276359558,0.9984450340270996,6.355235576629639,-33.898109436035156,6.7641448974609375,-0.6134693026542664,-0.8024598360061646,-0.24148792028427124,-0.03206854313611984,-0.20558995008468628,-3.356020212173462
219,79716,79718,-0.2568771541118622,-0.15734919905662537,0.9776382446289062,14.566822052001953,-28.97080421447754,5.0696797370910645,-0.6119694113731384,-0.797960102558136,-0.2549872398376465,0.4993688762187958,-0.11226297169923782,-3.2908482551574707
220,79726,79728,-0.6617131233215332,-0.5238532423973083,1.033491849899292,17.449398040771484,-17.897499084472656,4.238669395446777,-0.6179690957069397,-0.8189590573310852,-0.25198739767074585,0.7488760948181152,0.06519587337970734,-3.241111993789673
221,79736,79738,-0.4661503732204437,-0.6443517804145813,0.9251552820205688,18.038219451904297,-0.14289414882659912,2.1193578243255615,-0.6104694604873657,-0.8084595799446106,-0.2474876195192337,0.9868771433830261,0.3054969310760498,-3.209089517593384
222,79746,79748,-0.3057670295238495,-0.996705949306488,0.9767489433288574,17.214157104492188,20.414257049560547,0.26517826318740845,-0.6179690957069397,-0.8009599447250366,-0.26098695397377014,0.9414271116256714,0.5495497584342957,-3.19649076461792
223,79756,79758,-0.2867267429828644,-0.9186569452285767,0.9096137881278992,16.522216796875,33.982460021972656,-0.033466991037130356,-0.6254687309265137,-0.8234587907791138,-0.26848655939102173,0.5388733148574829,0.5880010724067688,-3.1757497787475586
224,79766,79768,-0.3324596881866455,-0.7235360741615295,0.9021562337875366,16.123735427856445,37.64095687866211,0.508268415927887,-0.6149692535400391,-0.8129593133926392,-0.2669866383075714,0.22253212332725525,0.7639610171318054,-3.172032356262207
225,79776,79778,-0.375740110874176,-0.34407666325569153,1.0174976587295532,16.094648361206055,39.51474380493164,1.8913989067077637,-0.6269686222076416,-0.8189590573310852,-0.2579870820045471,-0.12916797399520874,0.9853063821792603,-3.16745662689209
226,79786,79788,-0.9032614827156067,-0.08015404641628265,1.1525065898895264,14.495112419128418,29.560033798217773,3.949267864227295,-0.6269686222076416,-0.8189590573310852,-0.2579870820045471,-0.5344072580337524,1.1528072357177734,-3.1433539390563965
227,79796,79798,-0.5385968089103699,-0.11228812485933304,1.0555390119552612,15.817729949951172,9.763171195983887,5.239476203918457,-0.6269686222076416,-0.8189590573310852,-0.2579870820045471,-0.6132854223251343,1.130266547203064,-3.066847562789917
228,79806,79808,-0.38193225860595703,0.021082423627376556,1.014086127281189,20.307889938354492,-6.9145917892456055,5.751641273498535,-0.6134693026542664,-0.8294585347175598,-0.2564871609210968,-0.5817399621009827,1.3026210069656372,-3.0083558559417725
229,79816,79818,-0.5683336853981018,0.12001726776361465,1.00541090965271,18.684785842895508,-15.07830810546875,4.836747646331787,-0.6074696183204651,-0.8324583768844604,-0.26248687505722046,-0.5819745659828186,1.5007623434066772,-2.96098256111145
230,79826,79828,-0.32362619042396545,0.010656810365617275,1.0378423929214478,14.198785781860352,-24.633363723754883,4.703701019287109,-0.622468888759613,-0.8354582190513611,-0.2594870328903198,-0.31761300563812256,1.5464481115341187,-2.8905012607574463
231,79836,79838,-0.7426827549934387,-0.038978684693574905,0.9959045648574829,11.761800765991211,-27.838613510131836,4.970029830932617,-0.6119694113731384,-0.8399580121040344,-0.26998651027679443,0.12514276802539825,1.767628788948059,-2.8393542766571045
232,79846,79848,-0.5313062071800232,-0.3167540431022644,0.9248411059379578,14.35694694519043,-22.751934051513672,6.296306610107422,-0.6119694113731384,-0.8339582681655884,-0.26998651027679443,0.35205063223838806,1.9803112745285034,-2.8121273517608643
233,79856,79858,-0.2694832384586334,-0.2600477635860443,0.957003653049469,7.214695930480957,-8.729991912841797,7.450364112854004,-0.6014699339866638,-0.8384580612182617,-0.2564871609210968,0.3346205949783325,2.141810655593872,-2.792379379272461
234,79866,79868,-0.8101842999458313,-0.5394683480262756,1.0670056343078613,-3.2748146057128906,4.391734600067139,8.765924453735352,-0.6134693026542664,-0.8384580612182617,-0.27148643136024475,0.41841381788253784,2.225743293762207,-2.7215042114257812
235,79876,79878,-0.5281316041946411,-0.39443153142929077,1.0805485248565674,-17.792280197143555,19.31085205078125,9.72000503540039,-0.6104694604873657,-0.8294585347175598,-0.26848655939102173,0.3354724645614624,2.025456190109253,-2.622856855392456
236,79886,79888,-0.2447364330291748,-0.11260213702917099,0.9443559050559998,-30.903724670410156,36.49180221557617,11.349594116210938,-0.5969701409339905,-0.8339582681655884,-0.26998651027679443,0.050745923072099686,1.7163833379745483,-2.525179147720337
237,79896,79898,-0.38076236844062805,-0.14886605739593506,1.0011500120162964,-43.40812301635742,44.74101638793945,12.352469444274902,-0.5954701900482178,-0.8354582190513611,-0.26848655939102173,-0.18935085833072662,1.5605762004852295,-2.393244743347168
238,79906,79908,-0.6778441667556763,-0.32923606038093567,0.9546458721160889,-49.87946701049805,46.280029296875,11.929706573486328,-0.5894705057144165,-0.8324583768844604,-0.26848655939102173,-0.716256856918335,1.0850757360458374,-2.281667947769165
239,79916,79918,-0.6998698711395264,-0.399813711643219,0.9143915772438049,-47.87133026123047,42.541927337646484,9.35126781463623,-0.5984700918197632,-0.8264586329460144,-0.26248687505722046,-1.4482755661010742,0.5211988687515259,-2.2186665534973145
240,79926,79928,-0.3523969054222107,-0.08187876641750336,0.9853193759918213,-38.34723663330078,31.148523330688477,5.5083112716674805,-0.5999699831008911,-0.8279585838317871,-0.2639867961406708,-1.724249005317688,0.1668960005044937,-2.0916545391082764
241,79936,79938,-0.09990011155605316,-0.20003364980220795,0.9755683541297913,-21.013032913208008,12.584330558776855,2.7700939178466797,-0.6074696183204651,-0.8114594221115112,-0.277486115694046,-2.106165647506714,-0.24958041310310364,-2.051801919937134
242,79946,79948,-0.028470354154706,-0.5023276805877686,1.1666715145111084,-5.170654773712158,-10.207560539245605,0.8643002510070801,-0.6269686222076416,-0.8159592151641846,-0.2579870820045471,-2.186089277267456,-0.35285255312919617,-2.0143260955810547
243,79956,79958,-0.30432555079460144,-0.649458110332489,1.1477267742156982,10.410318374633789,-29.235363006591797,-0.04845781251788139,-0.6059696674346924,-0.8189590573310852,-0.2639867961406708,-1.9440947771072388,-0.3928424119949341,-1.9725228548049927
244,79966,79968,-0.5277460813522339,-0.3677944540977478,1.0814886093139648,25.546762466430664,-40.27832794189453,-2.8173470497131348,-0.623968780040741,-0.8339582681655884,-0.28198590874671936,-1.4167442321777344,-0.16183428466320038,-1.9253672361373901
245,79976,79978,-0.4834371507167816,0.10195848345756531,1.149924635887146,35.87783432006836,-39.56111145019531,-4.9247565269470215,-0.6134693026542664,-0.8264586329460144,-0.26248687505722046,-1.0981851816177368,0.06270254403352737,-1.9682917594909668
246,79986,79988,-0.17525100708007812,0.09333231300115585,1.0339986085891724,39.84602737426758,-32.38240432739258,-6.011010646820068,-0.6179690957069397,-0.8429578542709351,-0.2639867961406708,-0.7547454833984375,0.5954990983009338,-2.016119956970215
247,79996,79998,-0.22586782276630402,0.04407821223139763,1.0547399520874023,33.67765808105469,-21.905982971191406,-7.004539489746094,-0.6149692535400391,-0.836958110332489,-0.2639867961406708,-0.2989829480648041,0.8768045902252197,-2.071906805038452
248,80006,80008,-0.5018913149833679,-0.13021038472652435,1.0690191984176636,18.112598419189453,-13.385424613952637,-9.85519790649414,-0.6149692535400391,-0.8309584259986877,-0.26998651027679443,-0.3554993271827698,1.1315152645111084,-2.1899476051330566
249,80016,80018,-0.9710776209831238,-0.35069459676742554,1.005445122718811,-1.5023632049560547,-2.0777668952941895,-11.869516372680664,-0.6089695692062378,-0.8249587416648865,-0.2579870820045471,-0.0946757048368454,1.2257723808288574,-2.2816407680511475
250,80026,80028,-0.582792341709137,-0.5043120384216309,1.0215445756912231,-17.66730308532715,9.965261459350586,-12.003055572509766,-0.6029698252677917,-0.8219588994979858,-0.2579870820045471,-0.10178660601377487,1.1522290706634521,-2.405245542526245
251,80036,80038,-0.29794633388519287,-0.7379584312438965,0.9285328984260559,-28.694374084472656,20.7922306060791,-12.865833282470703,-0.6059696674346924,-0.8159592151641846,-0.2579870820045471,-0.2708638906478882,0.9225460290908813,-2.5367884635925293
252,80046,80048,-0.24431094527244568,-0.7899573445320129,0.9639039039611816,-33.40675735473633,25.565357208251953,-13.631379127502441,-0.6074696183204651,-0.8144592642784119,-0.25048747658729553,-0.6693499684333801,0.7451058030128479,-2.6904115676879883
253,80056,80058,-0.5975045561790466,-0.5185372829437256,1.093087077140808,-32.19253158569336,24.166776657104492,-12.538590431213379,-0.616469144821167,-0.8234587907791138,-0.2744862735271454,-0.9107248783111572,0.33645567297935486,-2.821634292602539
254,80066,80068,-0.46929705142974854,-0.05517691746354103,1.0177638530731201,-21.641033172607422,15.860620498657227,-11.939788818359375,-0.6179690957069397,-0.8249587416648865,-0.2669866383075714,-1.1331870555877686,0.13278357684612274,-2.9394474029541016
255,80076,80078,-0.6964995265007019,-0.3930889070034027,1.0824406147003174,-8.81607723236084,-0.1144910380244255,-9.652475357055664,-0.6074696183204651,-0.8264586329460144,-0.2564871609210968,-1.1564773321151733,-0.08036910742521286,-3.038022756576538
256,80086,80088,-0.483573317527771,-0.7365226745605469,1.1520450115203857,4.171568870544434,-14.292671203613281,-7.485749244689941,-0.6194689869880676,-0.8144592642784119,-0.2594870328903198,-1.0165824890136719,-0.15072381496429443,-3.114176034927368
257,80096,80098,-0.323654443025589,-0.5105448365211487,1.1383076906204224,17.62320899963379,-24.26901626586914,-5.175983428955078,-0.6059696674346924,-0.8129593133926392,-0.24898754060268402,-0.8459402918815613,-0.02898118831217289,-3.177748441696167
258,80106,80108,-0.41199129819869995,-0.24848869442939758,0.9742061495780945,22.613893508911133,-29.741085052490234,-5.462876796722412,-0.6089695692062378,-0.8399580121040344,-0.2639867961406708,-0.6579147577285767,0.2894679307937622,-3.2297065258026123
259,80116,80118,-0.2891722619533539,-0.20440368354320526,1.0784279108047485,22.370834350585938,-29.312763214111328,-6.76576042175293,-0.6254687309265137,-0.8174591064453125,-0.27148643136024475,-0.36060258746147156,0.4337112009525299,-3.294006586074829
260,80126,80128,-0.5793954133987427,-0.5169660449028015,1.0710810422897339,20.178081512451172,-28.677200317382812,-7.307840347290039,-0.6119694113731384,-0.836958110332489,-0.2579870820045471,-0.07985187321901321,0.7011802196502686,-3.363420009613037
261,80136,80138,-1.1476901769638062,-0.5474751591682434,1.1736290454864502,14.747586250305176,-22.988651275634766,-6.436157703399658,-0.6044697761535645,-0.8204589486122131,-0.26248687505722046,0.37718725204467773,0.9757614135742188,-3.421739339828491
262,80146,80148,-0.9843119382858276,-0.4379451274871826,1.1866182088851929,2.034348249435425,-12.589035987854004,-4.799777984619141,-0.6179690957069397,-0.8249587416648865,-0.26098695397377014,0.47967958450317383,0.9900943636894226,-3.505028247833252
263,80156,80158,-0.37215596437454224,-0.1968504637479782,1.010453224182129,-20.56418228149414,-2.0699000358581543,-2.997554063796997,-0.6104694604873657,-0.8144592642784119,-0.2594870328903198,0.5371061563491821,0.9644983410835266,-3.5614116191864014
264,80166,80168,-0.31278616189956665,-0.4135490953922272,1.0139703750610352,-40.38155746459961,7.034762382507324,-1.9914324283599854,-0.6119694113731384,-0.8129593133926392,-0.2459876984357834,0.43426790833473206,0.7822322845458984,-3.600367546081543
265,80176,80178,-0.7553834915161133,-0.2953716814517975,1.1801050901412964,-50.78376770019531,17.69008445739746,-1.366787075996399,-0.5939702987670898,-0.8219588994979858,-0.2549872398376465,0.19415543973445892,0.18479213118553162,-3.6298258304595947
266,80186,80188,-1.2567095756530762,0.02577747404575348,1.195095419883728,-49.55086135864258,17.087528228759766,-0.7398352026939392,-0.6134693026542664,-0.8084595799446106,-0.26248687505722046,0.052210625261068344,-0.1844361573457718,-3.6418728828430176
267,80196,80198,-0.8635250926017761,-0.18840958178043365,1.0417230129241943,-33.61750793457031,15.24953556060791,0.7234042882919312,-0.6179690957069397,-0.797960102558136,-0.2549872398376465,-0.08417321741580963,-0.7771711349487305,-3.6463394165039062
268,80206,80208,-0.49632108211517334,-0.3956010937690735,1.1101632118225098,-11.39266586303711,6.703080177307129,4.366120338439941,-0.6134693026542664,-0.7934603095054626,-0.24448777735233307,-0.15799927711486816,-1.0633405447006226,-3.633108377456665
269,80216,80218,-0.9415138959884644,-0.477853387594223,1.0057309865951538,14.566813468933105,0.9411366581916809,10.3100004196167,-0.6104694604873657,-0.7934603095054626,-0.24448777735233307,-0.1422768533229828,-0.992331862449646,-3.587944269180298
270,80226,80228,-0.8915289640426636,-0.4106035828590393,1.015129804611206,29.3610782623291,-1.7287306785583496,14.9415864944458,-0.622468888759613,-0.7994599938392639,-0.25048747658729553,-0.14379645884037018,-0.7028464674949646,-3.4861927032470703
271,80236,80238,-0.7435142397880554,-0.8738528490066528,1.0593682527542114,31.30668830871582,-5.336338043212891,18.616634368896484,-0.6209689378738403,-0.797960102558136,-0.24898754060268402,-0.10813619196414948,-0.46205934882164,-3.3309803009033203
272,80246,80248,-0.2906295359134674,-0.31272026896476746,1.0735687017440796,22.328857421875,-8.189757347106934,24.933752059936523,-0.6134693026542664,-0.8084595799446106,-0.2594870328903198,0.02808276191353798,-0.15781326591968536,-3.138319253921509
273,80256,80258,-0.24430587887763977,-0.3903750479221344,1.004684329032898,4.569569110870361,-9.651898384094238,29.57293128967285,-0.623968780040741,-0.8069596290588379,-0.24898754060268402,0.15891322493553162,0.09088071435689926,-2.8903937339782715
274,80266,80268,-0.23296788334846497,-0.17180289328098297,1.229406714439392,-10.27446174621582,-15.700885772705078,31.29240608215332,-0.6089695692062378,-0.797960102558136,-0.2459876984357834,0.367626428604126,0.03142144903540611,-2.5901453495025635
275,80276,80278,-0.4073430001735687,-0.1222524493932724,1.1080824136734009,-24.65787696838379,-12.512359619140625,31.772249221801758,-0.6179690957069397,-0.797960102558136,-0.2549872398376465,0.3817359507083893,-0.09093722701072693,-2.2756187915802
276,80286,80288,-0.2453925907611847,-0.2493557333946228,1.0299452543258667,-34.562355041503906,-16.90374755859375,32.47547149658203,-0.6074696183204651,-0.790460467338562,-0.2564871609210968,0.407179594039917,-0.39759132266044617,-1.9508122205734253
277,80296,80298,-0.5693163275718689,-0.1446412354707718,0.9733090996742249,-43.45906066894531,-19.602998733520508,32.74871826171875,-0.6089695692062378,-0.7859606742858887,-0.24898754060268402,0.5836827754974365,-0.8210416436195374,-1.6229407787322998
278,80306,80308,-0.2891350984573364,0.047605372965335846,1.0017943382263184,-43.17552947998047,-18.20745277404785,31.464506149291992,-0.6044697761535645,-0.7874606251716614,-0.25048747658729553,0.8273823857307434,-1.3227726221084595,-1.2896795272827148
279,80316,80318,-0.1948101818561554,0.032369568943977356,0.9682638049125671,-36.4298095703125,-13.302098274230957,31.944381713867188,-0.6059696674346924,-0.7859606742858887,-0.2459876984357834,0.9003230333328247,-1.6114569902420044,-0.9823046326637268
280,80326,80328,-0.15102478861808777,0.008952821604907513,0.9039649367332458,-20.408859252929688,-6.5858612060546875,32.63789367675781,-0.6029698252677917,-0.7769611477851868,-0.2369881421327591,0.8713135123252869,-2.120911121368408,-0.6376393437385559
281,80336,80338,-0.22453293204307556,-0.14694570004940033,0.9509034752845764,-0.7833948731422424,-5.474720001220703,35.33698654174805,-0.6104694604873657,-0.7814609408378601,-0.23548822104930878,0.9939351677894592,-2.1127872467041016,-0.3366941809654236
282,80346,80348,-0.13256418704986572,-0.05882066488265991,0.8674412369728088,18.189470291137695,-6.1708784103393555,37.38804244995117,-0.6074696183204651,-0.7814609408378601,-0.24148792028427124,1.0917320251464844,-2.0833683013916016,0.006763894110918045
283,80356,80358,-0.11343209445476532,0.08389785140752792,1.0218067169189453,29.647144317626953,-11.832054138183594,40.03197479248047,-0.6029698252677917,-0.7889605164527893,-0.23098844289779663,1.263174057006836,-1.8984172344207764,0.37825262546539307
284,80366,80368,-0.10716944932937622,0.050490252673625946,1.0070585012435913,31.723358154296875,-10.718365669250488,41.530269622802734,-0.6104694604873657,-0.7934603095054626,-0.24148792028427124,1.4171644449234009,-1.47914719581604,0.7578572034835815
285,80376,80378,-0.3644702434539795,0.004422777332365513,0.9692233204841614,27.773990631103516,-10.062374114990234,40.02754592895508,-0.5939702987670898,-0.7889605164527893,-0.2459876984357834,1.4521400928497314,-1.1541407108306885,1.1733168363571167
286,80386,80388,-0.5212904810905457,-0.05452943220734596,0.9010898470878601,17.52495574951172,-9.04037857055664,39.08104705810547,-0.5819708704948425,-0.7889605164527893,-0.24898754060268402,1.6107171773910522,-1.206270456314087,1.616324782371521
287,80396,80398,-0.27993330359458923,-0.11186064034700394,0.9402559399604797,9.002839088439941,1.2338846921920776,38.28468322753906,-0.5924703478813171,-0.790460467338562,-0.2474876195192337,1.727513074874878,-0.9634254574775696,1.9795067310333252
288,80406,80408,-0.3411405086517334,0.06020916625857353,0.9876086711883545,9.808144569396973,17.239471435546875,38.14043045043945,-0.5999699831008911,-0.7859606742858887,-0.2459876984357834,1.647887945175171,-0.9534023404121399,2.3978283405303955
289,80416,80418,-0.10167377442121506,0.13571439683437347,0.9764739871025085,9.513489723205566,35.79064178466797,38.25764846801758,-0.5864706635475159,-0.790460467338562,-0.25048747658729553,1.2430330514907837,-0.8681845664978027,2.8268649578094482
290,80426,80428,-0.08027708530426025,-0.10200920701026917,0.9050759673118591,5.394003391265869,47.799896240234375,35.69866180419922,-0.5924703478813171,-0.8084595799446106,-0.24448777735233307,0.7140375971794128,-0.8035878539085388,3.235623598098755
291,80436,80438,-0.048250626772642136,-0.11697512120008469,0.885242223739624,5.680447101593018,48.30385971069336,31.508960723876953,-0.5999699831008911,-0.8039597868919373,-0.25198739767074585,0.29288405179977417,-0.7848131060600281,3.572795867919922
292,80446,80448,-0.17854750156402588,0.07269451022148132,1.0449885129928589,13.259190559387207,39.803096771240234,28.892982482910156,-0.6074696183204651,-0.7994599938392639,-0.24148792028427124,-0.2864688038825989,-0.6497742533683777,3.891183853149414
293,80456,80458,-0.08858372271060944,0.12605640292167664,1.0351767539978027,20.484804153442383,29.78632926940918,27.786056518554688,-0.5969701409339905,-0.8039597868919373,-0.24898754060268402,-0.5861878991127014,-1.005348563194275,4.266836643218994
294,80466,80468,-0.035826265811920166,0.044815726578235626,1.0533709526062012,20.072668075561523,18.692289352416992,29.06068229675293,-0.5879706144332886,-0.8129593133926392,-0.2579870820045471,-0.9518751502037048,-0.6012981534004211,4.524855613708496
295,80476,80478,0.02137639932334423,-0.09287021309137344,1.0084770917892456,8.966289520263672,3.373234510421753,29.685714721679688,-0.6044697761535645,-0.80545973777771,-0.24448777735233307,-1.0292739868164062,-0.41234540939331055,4.787471294403076
296,80486,80488,-0.034617602825164795,-0.09919246286153793,1.0332525968551636,-13.717857360839844,-18.058940887451172,28.322053909301758,-0.5864706635475159,-0.8114594221115112,-0.26248687505722046,-1.0115936994552612,-0.521018385887146,5.09483528137207
297,80496,80498,-0.09571415185928345,-0.12464848160743713,0.9823704957962036,-32.927303314208984,-29.584671020507812,25.570714950561523,-0.5804709792137146,-0.7994599938392639,-0.2564871609210968,-0.6322320103645325,-0.7567506432533264,5.346662521362305
298,80506,80508,-0.2422507405281067,0.020285589620471,1.0748686790466309,-41.04742431640625,-29.590505599975586,24.27109146118164,-0.5789710283279419,-0.8099594712257385,-0.2579870820045471,-0.34169554710388184,-1.1161733865737915,5.614336013793945
299,80516,80518,-0.1651114672422409,-0.0073987278155982494,1.0379638671875,-36.59347152709961,-22.048038482666016,22.567842483520508,-0.5834708213806152,-0.7994599938392639,-0.2594870328903198,-0.04194604232907295,-1.6401532888412476,5.8665266036987305
300,80526,80528,-0.11682258546352386,-0.1258973479270935,1.02812922000885,-17.890335083007812,-14.294739723205566,20.602989196777344,-0.5744712948799133,-0.7934603095054626,-0.2384880781173706,0.08319243043661118,-1.892973780632019,6.105413436889648
301,80536,80538,-0.211099311709404,0.12692631781101227,1.0727053880691528,8.527936935424805,-4.215742588043213,19.736753463745117,-0.5789710283279419,-0.8069596290588379,-0.23998799920082092,0.19841012358665466,-1.8579195737838745,6.308648586273193
302,80546,80548,-0.16925561428070068,-0.003633747575804591,1.0628139972686768,34.361968994140625,10.275567054748535,19.392147064208984,-0.5909704566001892,-0.8039597868919373,-0.25198739767074585,0.1873435229063034,-1.6106959581375122,6.506773948669434
303,80556,80558,-0.40389880537986755,-0.05597216635942459,0.9969854354858398,53.26169967651367,18.01151466369629,17.793760299682617,-0.5969701409339905,-0.8069596290588379,-0.24898754060268402,0.07958342880010605,-1.4084150791168213,6.711650848388672
304,80566,80568,-0.11426596343517303,-0.023371534422039986,1.0184873342514038,68.3232192993164,21.92954444885254,16.180509567260742,-0.5924703478813171,-0.7994599938392639,-0.24148792028427124,-0.29020509123802185,-0.6168268322944641,6.913908004760742
305,80576,80578,-0.06905543059110641,-0.06560297310352325,1.042313575744629,71.79847717285156,20.72673225402832,15.874147415161133,-0.5954701900482178,-0.8204589486122131,-0.2594870328903198,-0.38099807500839233,-0.2801857888698578,7.046748161315918
306,80586,80588,-0.0766584649682045,-0.023140670731663704,0.9773889780044556,59.12055969238281,12.706955909729004,14.567484855651855,-0.6089695692062378,-0.8099594712257385,-0.2639867961406708,-0.6633150577545166,0.5713410973548889,7.222329616546631
307,80596,80598,-0.24261225759983063,0.07109365612268448,1.020669937133789,41.67289352416992,6.240590572357178,12.670262336730957,-0.6029698252677917,-0.8099594712257385,-0.25198739767074585,-0.7113792896270752,1.1147925853729248,7.358229160308838
308,80606,80608,-0.052951693534851074,0.2091057300567627,1.0203782320022583,21.65879249572754,1.9990302324295044,13.674506187438965,-0.6029698252677917,-0.8159592151641846,-0.26998651027679443,-0.6753557920455933,1.3027691841125488,7.475331783294678
309,80616,80618,-0.0743211880326271,0.16870935261249542,1.0284128189086914,1.8711556196212769,-3.0518736839294434,14.399737358093262,-0.5849707126617432,-0.8129593133926392,-0.2639867961406708,-0.6172291040420532,1.5280158519744873,7.604589462280273
310,80626,80628,0.013217614963650703,-0.025859346613287926,0.9649522304534912,-13.659087181091309,-7.587703227996826,14.585537910461426,-0.5744712948799133,-0.8024598360061646,-0.25348731875419617,-0.5848567485809326,1.4918951988220215,7.748111724853516
311,80636,80638,-0.0413174033164978,-0.21848876774311066,0.9747549891471863,-21.446754455566406,-15.832470893859863,13.86275577545166,-0.5864706635475159,-0.8024598360061646,-0.25048747658729553,-0.4538261890411377,1.308423399925232,7.884319305419922
312,80646,80648,-0.031897224485874176,-0.13647422194480896,0.9226897358894348,-28.19474220275879,-19.670570373535156,13.141942024230957,-0.577471137046814,-0.8114594221115112,-0.2594870328903198,-0.16358314454555511,1.0147920846939087,8.009787559509277
313,80656,80658,-0.07770130038261414,0.046828743070364,1.0020899772644043,-23.63587760925293,-16.27689552307129,11.624984741210938,-0.5804709792137146,-0.8204589486122131,-0.2474876195192337,-0.0007458081818185747,0.6489273905754089,8.13538646697998
314,80666,80668,-0.13521277904510498,0.013885021209716797,0.9979533553123474,-11.758672714233398,-7.679530143737793,9.413102149963379,-0.5654717087745667,-0.8144592642784119,-0.24448777735233307,-0.02796769328415394,0.4801601469516754,8.247543334960938
315,80676,80678,-0.38513898849487305,-0.05566033348441124,1.0144799947738647,-0.6236497759819031,0.28505343198776245,7.716207504272461,-0.5849707126617432,-0.8159592151641846,-0.2579870820045471,0.013910460285842419,0.4122508466243744,8.337292671203613
316,80686,80688,-0.27593475580215454,-0.0550251267850399,0.966041624546051,15.097434043884277,11.492045402526855,8.028810501098633,-0.5729713439941406,-0.8159592151641846,-0.26098695397377014,-0.020715363323688507,0.564001202583313,8.424361228942871
317,80696,80698,-0.08016768097877502,-0.03702888265252113,0.9570474624633789,22.05854606628418,21.431913375854492,6.145925521850586,-0.5729713439941406,-0.8159592151641846,-0.26098695397377014,-0.12166278064250946,0.564343273639679,8.502066612243652
318,80706,80708,-0.021938465535640717,-0.0738757997751236,0.9882397651672363,25.524282455444336,27.69292449951172,4.729472637176514,-0.5729713439941406,-0.8159592151641846,-0.26098695397377014,-0.4796698987483978,0.798257052898407,8.561182022094727
319,80716,80718,-0.06954405456781387,-0.007197237573564053,0.9919928312301636,33.65353012084961,27.18463706970215,3.237741231918335,-0.5894705057144165,-0.8204589486122131,-0.2474876195192337,-0.7040938138961792,1.1931759119033813,8.61928939819336
320,80726,80728,-0.016867080703377724,0.09509924054145813,1.0337027311325073,38.13081741333008,18.79633331298828,2.1140084266662598,-0.5849707126617432,-0.8279585838317871,-0.27298635244369507,-0.9989736080169678,1.4152562618255615,8.649121284484863
321,80736,80738,-0.05914648622274399,0.040182992815971375,0.9804800152778625,28.264890670776367,4.17608118057251,3.1798694133758545,-0.5954701900482178,-0.8264586329460144,-0.2594870328903198,-1.1776490211486816,1.8746904134750366,8.677437782287598
322,80746,80748,-0.07084871828556061,0.051071859896183014,0.9577425122261047,12.099365234375,-7.219756126403809,4.171297550201416,-0.5729713439941406,-0.8339582681655884,-0.26098695397377014,-1.1544305086135864,1.992690920829773,8.7008695602417
323,80756,80758,-0.1180494949221611,-0.03832416608929634,0.9550888538360596,-5.63126802444458,-13.655233383178711,4.765785217285156,-0.5894705057144165,-0.8414579033851624,-0.26848655939102173,-0.9541265964508057,2.1990909576416016,8.76300048828125
324,80766,80768,-0.08655481040477753,0.04885405674576759,1.04386568069458,-20.031251907348633,-14.034746170043945,4.24424409866333,-0.56997150182724,-0.8189590573310852,-0.2639867961406708,-0.7707131505012512,2.116147994995117,8.814148902893066
325,80776,80778,-0.049141623079776764,0.02411956898868084,1.019473910331726,-28.67945671081543,-13.670883178710938,1.5910978317260742,-0.5789710283279419,-0.8309584259986877,-0.2759861946105957,-0.7825778722763062,1.745314598083496,8.812575340270996
326,80786,80788,-0.13414517045021057,-0.12292845547199249,1.068407416343689,-24.223299026489258,-12.594544410705566,-1.4426140785217285,-0.5594720244407654,-0.8294585347175598,-0.2654867172241211,-0.6018420457839966,1.3629519939422607,8.822545051574707
327,80796,80798,-0.21757662296295166,-0.08316739648580551,1.0774800777435303,-11.994104385375977,-11.56845760345459,-3.1356661319732666,-0.5684715509414673,-0.8204589486122131,-0.25048747658729553,-0.43608272075653076,1.2269760370254517,8.822148323059082
328,80806,80808,-0.58890700340271,-0.33209967613220215,1.0300064086914062,3.4963786602020264,-8.010359764099121,-3.660010576248169,-0.56997150182724,-0.8219588994979858,-0.27298635244369507,-0.29668986797332764,1.1717911958694458,8.801786422729492
329,80816,80818,-0.21626850962638855,-0.13678832352161407,1.0378090143203735,19.896818161010742,-3.775845527648926,-3.8118340969085693,-0.5744712948799133,-0.8294585347175598,-0.24148792028427124,-0.18154773116111755,1.3133010864257812,8.782313346862793
330,80826,80828,-0.37776699662208557,-0.16864612698554993,1.0142717361450195,27.09103012084961,2.0239696502685547,-4.514060020446777,-0.577471137046814,-0.8204589486122131,-0.26248687505722046,-0.2860974669456482,1.4456336498260498,8.700754165649414
331,80836,80838,-0.5557456016540527,-0.06625696271657944,1.0143345594406128,28.734601974487305,7.460460662841797,-4.784914493560791,-0.5789710283279419,-0.8309584259986877,-0.2639867961406708,-0.3071095943450928,1.9039838314056396,8.676825523376465
332,80846,80848,-0.1549520492553711,0.015831217169761658,1.0379871129989624,23.82447052001953,7.899685859680176,-7.683300971984863,-0.5849707126617432,-0.8249587416648865,-0.27298635244369507,-0.4198131263256073,1.9861401319503784,8.60107421875
333,80856,80858,-0.028903568163514137,-0.011869169771671295,1.0218136310577393,14.032050132751465,5.293145656585693,-10.696697235107422,-0.5864706635475159,-0.844457745552063,-0.277486115694046,-0.457321435213089,2.2429537773132324,8.537749290466309
334,80866,80868,-0.039304640144109726,-0.04826859012246132,0.9996803998947144,3.921428918838501,4.935263633728027,-12.917380332946777,-0.5789710283279419,-0.8399580121040344,-0.27298635244369507,-0.5281435251235962,2.33485746383667,8.420970916748047
335,80876,80878,-0.17963626980781555,-0.2581157088279724,1.0170702934265137,-3.7951667308807373,4.817091464996338,-12.591065406799316,-0.5789710283279419,-0.8219588994979858,-0.2669866383075714,-0.573679506778717,2.3539726734161377,8.289565086364746
336,80886,80888,-0.18827398121356964,-0.21590670943260193,0.9738452434539795,-12.076175689697266,-1.2833447456359863,-12.831523895263672,-0.5894705057144165,-0.844457745552063,-0.26848655939102173,-0.5328212380409241,2.307001829147339,8.188230514526367
337,80896,80898,-0.11363207548856735,0.0061906189657747746,1.0295603275299072,-16.891273498535156,-9.552292823791504,-13.042499542236328,-0.5759711861610413,-0.836958110332489,-0.2669866383075714,-0.5814492702484131,2.1264190673828125,8.030235290527344
338,80906,80908,-0.10879229754209518,0.07754866778850555,1.0363699197769165,-18.42667579650879,-10.160808563232422,-12.746498107910156,-0.5789710283279419,-0.8189590573310852,-0.2669866383075714,-0.4221849739551544,1.8957940340042114,7.9144368171691895
339,80916,80918,-0.1423962563276291,0.012213368900120258,1.1142029762268066,-13.876896858215332,-7.451592922210693,-11.66645622253418,-0.5879706144332886,-0.8219588994979858,-0.28198590874671936,-0.33261045813560486,1.8076069355010986,7.791778564453125
340,80926,80928,-0.09254240989685059,0.006132003851234913,1.0463606119155884,-4.222734451293945,-5.499794006347656,-10.400131225585938,-0.5804709792137146,-0.8294585347175598,-0.28048595786094666,-0.2728610038757324,1.6685881614685059,7.6685285568237305
341,80936,80938,-0.025556480512022972,5.386845805332996e-05,0.9787901639938354,5.8782758712768555,-5.142842769622803,-7.824286937713623,-0.5969701409339905,-0.8339582681655884,-0.26098695397377014,-0.2373248040676117,1.681330919265747,7.5653533935546875
342,80946,80948,-0.41650280356407166,-0.01552217360585928,1.0552916526794434,10.266535758972168,-7.603708744049072,-5.431783199310303,-0.5954701900482178,-0.8144592642784119,-0.2654867172241211,-0.11587540805339813,1.83987295627594,7.519442558288574
343,80956,80958,-0.28916385769844055,0.038064777851104736,1.0355514287948608,12.235453605651855,-10.270733833312988,-3.3892691135406494,-0.5879706144332886,-0.8249587416648865,-0.2549872398376465,-0.021579135209321976,1.9037646055221558,7.466436386108398
344,80966,80968,-0.14506955444812775,0.04792548716068268,1.021875023841858,14.079819679260254,-9.703454971313477,-3.3825063705444336,-0.5804709792137146,-0.8264586329460144,-0.2654867172241211,0.12329915165901184,2.059800863265991,7.446760177612305
345,80976,80978,-0.3041945993900299,0.019806310534477234,0.9689361453056335,9.525052070617676,-2.5564935207366943,-2.918518543243408,-0.5939702987670898,-0.8339582681655884,-0.26098695397377014,0.171682208776474,2.2232613563537598,7.396984100341797
346,80986,80988,-0.22959476709365845,-0.07558190077543259,1.053199291229248,-0.21621979773044586,4.241331577301025,-4.150833606719971,-0.5864706635475159,-0.8174591064453125,-0.25348731875419617,0.20338569581508636,2.27905011177063,7.367299556732178
347,80996,80998,-0.2987355589866638,-0.19222542643547058,1.1095213890075684,-14.739995956420898,10.971470832824707,-5.354438304901123,-0.5969701409339905,-0.8159592151641846,-0.2639867961406708,0.17846578359603882,2.2329182624816895,7.328090667724609
348,81006,81008,-0.17469017207622528,-0.11961811780929565,0.952324390411377,-27.219423294067383,18.214893341064453,-8.338977813720703,-0.5819708704948425,-0.8279585838317871,-0.25198739767074585,-0.017106592655181885,1.9447579383850098,7.243113994598389
349,81016,81018,-0.05951431393623352,-0.1478586196899414,0.991538941860199,-36.813385009765625,23.105064392089844,-10.059263229370117,-0.5789710283279419,-0.8129593133926392,-0.2669866383075714,-0.31876152753829956,1.608622670173645,7.124173164367676
350,81026,81028,-0.04851292073726654,-0.17531178891658783,0.966134786605835,-37.466407775878906,18.75331687927246,-12.514451026916504,-0.5804709792137146,-0.8174591064453125,-0.24148792028427124,-0.5794268250465393,1.0858824253082275,7.009639739990234
351,81036,81038,-0.10190993547439575,-0.001719671068713069,0.9944547414779663,-25.387422561645508,10.52567195892334,-14.779526710510254,-0.5864706635475159,-0.7994599938392639,-0.2654867172241211,-0.8208951950073242,0.7685928344726562,6.862778186798096
352,81046,81048,-0.11476796865463257,0.024006865918636322,1.0185213088989258,-5.10853910446167,-2.068776845932007,-16.474241256713867,-0.5879706144332886,-0.8039597868919373,-0.26098695397377014,-0.8051813840866089,0.7482070922851562,6.759903907775879
353,81056,81058,-0.2058856189250946,-0.4357970654964447,0.9273539185523987,15.419075012207031,-13.759332656860352,-18.04176139831543,-0.5999699831008911,-0.8159592151641846,-0.2579870820045471,-0.7508342862129211,0.8895162343978882,6.6123046875
354,81066,81068,-0.4375280439853668,-0.3613480031490326,0.8936228156089783,28.84514617919922,-24.09625244140625,-18.446075439453125,-0.5984700918197632,-0.8174591064453125,-0.26248687505722046,-0.5522195100784302,1.122908353805542,6.447403907775879
355,81076,81078,-0.2685464322566986,-0.2532295286655426,0.9387749433517456,37.85023880004883,-34.88295364379883,-18.014867782592773,-0.5864706635475159,-0.8264586329460144,-0.2564871609210968,-0.15030984580516815,1.4222956895828247,6.299327373504639
356,81086,81088,-0.15280698239803314,-0.07337009161710739,0.9641684889793396,37.7779541015625,-42.9554328918457,-17.604814529418945,-0.5969701409339905,-0.8219588994979858,-0.2579870820045471,0.2488604038953781,1.6796174049377441,6.113006114959717
357,81096,81098,-0.11141392588615417,0.01498089637607336,1.0075647830963135,29.386428833007812,-42.99982833862305,-16.022701263427734,-0.5999699831008911,-0.8309584259986877,-0.27298635244369507,0.47482234239578247,2.0489718914031982,5.87538480758667
358,81106,81108,-0.21326886117458344,-0.021179165691137314,1.0522512197494507,21.62519073486328,-33.71908187866211,-13.138762474060059,-0.5744712948799133,-0.8354582190513611,-0.26248687505722046,1.096315622329712,2.42138934135437,5.747372627258301
359,81116,81118,-0.18321828544139862,-0.1402248591184616,1.0464472770690918,12.612730979919434,-15.553675651550293,-9.246259689331055,-0.5789710283279419,-0.836958110332489,-0.2669866383075714,1.2888470888137817,2.534614324569702,5.572986125946045
360,81126,81128,-0.11481036245822906,-0.1251148283481598,0.9694382548332214,-2.4010303020477295,8.465361595153809,-6.6526312828063965,-0.5969701409339905,-0.836958110332489,-0.26098695397377014,1.4514031410217285,2.610447883605957,5.490501403808594
361,81136,81138,-0.2361907660961151,-0.24006257951259613,0.9538591504096985,-22.639726638793945,31.862768173217773,-4.999238014221191,-0.5804709792137146,-0.8144592642784119,-0.25348731875419617,1.255497694015503,2.4835801124572754,5.4102277755737305
362,81146,81148,-0.15495489537715912,-0.4399738609790802,0.9242438673973083,-43.32560348510742,47.321922302246094,-1.0184648036956787,-0.5819708704948425,-0.8189590573310852,-0.26098695397377014,0.7779234647750854,2.176096200942993,5.343858242034912
363,81156,81158,-0.5572509169578552,-0.1141785979270935,0.9529171586036682,-52.779747009277344,49.83156204223633,0.7435093522071838,-0.5864706635475159,-0.8174591064453125,-0.27148643136024475,0.3414524495601654,1.6926765441894531,5.363161087036133
364,81166,81168,-0.8164303302764893,-0.2236274927854538,0.9293392896652222,-51.0577278137207,43.37200164794922,2.4683001041412354,-0.5969701409339905,-0.8219588994979858,-0.25198739767074585,0.0298266913741827,1.2240442037582397,5.428545951843262
365,81176,81178,-1.3247771263122559,-0.5034857392311096,0.9588955044746399,-39.641143798828125,27.875812530517578,4.8343400955200195,-0.6134693026542664,-0.8114594221115112,-0.25048747658729553,-0.46879518032073975,0.6354984045028687,5.4377546310424805
366,81186,81188,-0.7817121744155884,-0.26164510846138,0.9914563894271851,-24.19729232788086,5.784989356994629,6.704055309295654,-0.5984700918197632,-0.8084595799446106,-0.25048747658729553,-0.5347734689712524,0.4534185528755188,5.522315502166748
367,81196,81198,-0.21996678411960602,-0.082844078540802,0.9871776700019836,-5.480254650115967,-15.812372207641602,6.914159297943115,-0.5864706635475159,-0.8114594221115112,-0.2594870328903198,-0.35744234919548035,0.34298229217529297,5.632592678070068
368,81206,81208,-0.0856103003025055,-0.08829832822084427,0.9553349018096924,3.0483381748199463,-31.43842315673828,5.661478519439697,-0.5909704566001892,-0.8249587416648865,-0.2639867961406708,-0.09239928424358368,0.26409223675727844,5.719595432281494
369,81216,81218,-0.041681669652462006,-0.014560476876795292,0.998240053653717,4.642577171325684,-36.34774398803711,3.104982376098633,-0.5894705057144165,-0.80545973777771,-0.2564871609210968,0.3077867031097412,0.291127473115921,5.785569667816162
370,81226,81228,-0.037036482244729996,0.11111974716186523,1.0535035133361816,6.225790977478027,-28.114973068237305,1.9067401885986328,-0.5984700918197632,-0.8174591064453125,-0.25348731875419617,0.6856128573417664,0.41897469758987427,5.814404487609863
371,81236,81238,-0.08640642464160919,-0.42563819885253906,0.8707798719406128,7.206386089324951,-14.203108787536621,1.2770887613296509,-0.5924703478813171,-0.8174591064453125,-0.25048747658729553,0.7440692186355591,0.4863450825214386,5.800119876861572
372,81246,81248,-0.10492248833179474,-0.35258880257606506,0.9481914639472961,2.819014072418213,0.42779770493507385,1.3609098196029663,-0.5939702987670898,-0.8129593133926392,-0.2579870820045471,0.893582284450531,0.5408995151519775,5.816594123840332
373,81256,81258,-0.06539443135261536,-0.026114773005247116,0.948989987373352,-0.6309727430343628,9.57889175415039,-1.0155810117721558,-0.5894705057144165,-0.7874606251716614,-0.24448777735233307,0.7988281846046448,0.536387026309967,5.815248012542725
374,81266,81268,-0.15596966445446014,0.12698066234588623,1.0420345067977905,-2.215891122817993,17.10614013671875,-3.383047342300415,-0.6029698252677917,-0.8009599447250366,-0.2549872398376465,0.6644678711891174,0.4760317802429199,5.802402019500732
375,81276,81278,-0.1687271147966385,0.11554337292909622,1.107537865638733,-3.9414963722229004,25.414779663085938,-3.920903205871582,-0.6029698252677917,-0.8039597868919373,-0.2459876984357834,0.46159452199935913,0.4001825749874115,5.775980472564697
376,81286,81288,-0.08949176967144012,-0.0284668430685997,1.028660535812378,-7.204488754272461,30.796371459960938,-3.210510492324829,-0.5924703478813171,-0.80545973777771,-0.2474876195192337,0.2962137758731842,0.2949219346046448,5.756649494171143
377,81296,81298,0.010976634919643402,-0.03284897282719612,1.0448817014694214,-12.137508392333984,31.44651985168457,-1.0620949268341064,-0.6089695692062378,-0.797960102558136,-0.24298784136772156,-0.17836523056030273,0.12736020982265472,5.726436614990234
378,81306,81308,-0.09101174771785736,-0.04141511023044586,1.024794101715088,-16.58916664123535,25.940675735473633,1.7144479751586914,-0.5984700918197632,-0.7994599938392639,-0.25048747658729553,-0.4435621500015259,0.11667479574680328,5.71016263961792
379,81316,81318,-0.3592461049556732,-0.3514329195022583,1.0494492053985596,-18.262216567993164,9.335834503173828,2.1954636573791504,-0.5969701409339905,-0.8039597868919373,-0.24298784136772156,-0.7184295058250427,0.025171611458063126,5.721717357635498
380,81326,81328,-0.39348551630973816,-0.26324495673179626,0.9803361296653748,-21.63526725769043,-11.410922050476074,1.0989773273468018,-0.6059696674346924,-0.7889605164527893,-0.23998799920082092,-0.8534648418426514,-0.3249487578868866,5.751120090484619
381,81336,81338,-0.09194262325763702,0.00923917070031166,0.9549001455307007,-16.884103775024414,-23.164958953857422,-0.6123111844062805,-0.5969701409339905,-0.7949602603912354,-0.24298784136772156,-0.681607186794281,-0.33389344811439514,5.749870777130127
382,81346,81348,-0.034247417002916336,-0.08291924744844437,0.8452364802360535,-8.818734169006348,-25.410734176635742,-3.903381586074829,-0.6014699339866638,-0.7964601516723633,-0.24148792028427124,-0.28382885456085205,-0.6099478006362915,5.74202823638916
383,81356,81358,-0.06499457359313965,-0.09736481308937073,0.9002301096916199,-3.3303496837615967,-18.57872200012207,-6.28645658493042,-0.5999699831008911,-0.797960102558136,-0.25198739767074585,-0.15670916438102722,-0.622130274772644,5.7074151039123535
384,81366,81368,-0.07958889752626419,-0.05071713402867317,0.9705965518951416,4.80094051361084,-9.437532424926758,-8.195429801940918,-0.5939702987670898,-0.797960102558136,-0.23998799920082092,0.1460740864276886,-0.614963948726654,5.63724946975708
385,81376,81378,-0.2423262745141983,-0.020274337381124496,1.0869706869125366,13.8460111618042,-2.682323694229126,-9.045324325561523,-0.6029698252677917,-0.7949602603912354,-0.24298784136772156,0.2894403338432312,-0.5331705212593079,5.5520548820495605
386,81386,81388,-0.10408813506364822,-0.10092588514089584,1.0361818075180054,20.90435218811035,1.488897442817688,-8.522968292236328,-0.5984700918197632,-0.7994599938392639,-0.26248687505722046,0.3333606421947479,-0.3789697289466858,5.464229583740234
387,81396,81398,-0.03087063506245613,0.010211660526692867,1.0128405094146729,16.07819366455078,3.8483941555023193,-6.910677909851074,-0.6014699339866638,-0.8144592642784119,-0.2594870328903198,0.20254173874855042,-0.1670040786266327,5.393821716308594
388,81406,81408,-0.012494876980781555,0.034587301313877106,0.9787283539772034,10.474020957946777,5.544290542602539,-4.521360874176025,-0.6119694113731384,-0.8039597868919373,-0.2459876984357834,0.06540776789188385,-0.02452968619763851,5.335453510284424
389,81416,81418,-0.1338289976119995,-0.06601324677467346,0.9670476317405701,-1.1613210439682007,2.8569588661193848,-1.086637020111084,-0.5954701900482178,-0.7994599938392639,-0.24448777735233307,-0.07468373328447342,0.07120563834905624,5.298743724822998
390,81426,81428,-0.4339122474193573,-0.24176020920276642,1.0178701877593994,-19.258668899536133,-2.7043004035949707,1.3900622129440308,-0.5969701409339905,-0.7919603586196899,-0.2549872398376465,-0.13369616866111755,-0.047499075531959534,5.291330814361572
391,81436,81438,-0.4015122652053833,-0.5933512449264526,1.050673246383667,-38.9198112487793,-7.15973424911499,2.4498398303985596,-0.5789710283279419,-0.797960102558136,-0.2549872398376465,-0.09843602031469345,-0.39282679557800293,5.302534103393555
392,81446,81448,-0.15869514644145966,-0.6058037281036377,0.9206401705741882,-50.54410934448242,-9.823662757873535,3.1363182067871094,-0.5879706144332886,-0.7949602603912354,-0.25198739767074585,0.0376620851457119,-0.9574471116065979,5.32222318649292
393,81456,81458,-0.08976002037525177,-0.15889431536197662,1.028275966644287,-48.97817611694336,-12.296782493591309,2.317362070083618,-0.5834708213806152,-0.790460467338562,-0.25048747658729553,0.14163626730442047,-1.3596688508987427,5.35187292098999
394,81466,81468,-0.11850053071975708,-0.09455572068691254,0.9646633267402649,-38.35209274291992,-17.8228702545166,0.6363599896430969,-0.5864706635475159,-0.7784610390663147,-0.2474876195192337,0.445888876914978,-1.9218297004699707,5.351643085479736
395,81476,81478,-0.08249947428703308,0.10492108017206192,0.8941431641578674,-22.856298446655273,-21.35844612121582,-0.03661094605922699,-0.5729713439941406,-0.7739613056182861,-0.23398829996585846,0.6574001908302307,-2.1561174392700195,5.357137680053711
396,81486,81488,-0.012487821280956268,0.1286005675792694,0.9571442604064941,-6.334288120269775,-20.214048385620117,-0.8934535980224609,-0.5819708704948425,-0.7949602603912354,-0.2459876984357834,0.8875014185905457,-2.5081279277801514,5.363199234008789
397,81496,81498,-0.1723010241985321,-0.17184899747371674,0.9949297904968262,8.673696517944336,-14.03580093383789,-2.600569248199463,-0.5789710283279419,-0.797960102558136,-0.24298784136772156,1.0187139511108398,-2.433177947998047,5.376769542694092
398,81506,81508,-0.21353013813495636,-0.13878466188907623,0.9275292158126831,21.685989379882812,-0.6667425632476807,-6.099437236785889,-0.5909704566001892,-0.7919603586196899,-0.2369881421327591,1.2294964790344238,-2.3207805156707764,5.343305587768555
399,81516,81518,-0.13224536180496216,0.12646672129631042,1.0064433813095093,32.5244140625,13.47426700592041,-11.18018913269043,-0.5879706144332886,-0.797960102558136,-0.25198739767074585,1.1009671688079834,-1.9504457712173462,5.309726238250732
400,81526,81528,-0.08968394994735718,0.08544327318668365,1.004884958267212,44.674827575683594,21.013479232788086,-14.990583419799805,-0.5909704566001892,-0.8069596290588379,-0.2579870820045471,0.9573544859886169,-1.6907453536987305,5.208403587341309
401,81536,81538,-0.0759526789188385,-0.03550013527274132,0.8772218823432922,53.69974899291992,28.81344223022461,-16.86704444885254,-0.5954701900482178,-0.8084595799446106,-0.2654867172241211,0.7381748557090759,-1.272475004196167,5.0642924308776855
402,81546,81548,-0.08992145955562592,0.024306360632181168,1.0106737613677979,55.5532112121582,31.0609073638916,-19.296077728271484,-0.5924703478813171,-0.8174591064453125,-0.26848655939102173,0.3269891142845154,-0.5959579348564148,4.923006534576416
403,81556,81558,-0.13720622658729553,0.0018392803613096476,1.0073325634002686,54.32652282714844,28.458637237548828,-18.484113693237305,-0.5969701409339905,-0.8189590573310852,-0.2639867961406708,0.1819157898426056,-0.26032736897468567,4.696311950683594
404,81566,81568,-0.18896283209323883,-0.1765514761209488,1.0387037992477417,41.88558578491211,18.08142852783203,-15.543364524841309,-0.5924703478813171,-0.8084595799446106,-0.25048747658729553,-0.17363832890987396,0.2976166307926178,4.547140121459961
405,81576,81578,-0.15009094774723053,0.0018627970712259412,1.0541050434112549,22.754650115966797,7.263189315795898,-12.748838424682617,-0.6074696183204651,-0.8174591064453125,-0.25348731875419617,-0.2704137861728668,0.512930154800415,4.378027439117432
406,81586,81588,-0.11427516490221024,0.07323461025953293,1.0452767610549927,6.302098751068115,-4.102342128753662,-11.11536693572998,-0.5984700918197632,-0.8264586329460144,-0.25348731875419617,-0.3826531767845154,0.7173808217048645,4.264406204223633
407,81596,81598,-0.1816096007823944,0.11493594199419022,1.073111891746521,-6.445108413696289,-11.002280235290527,-10.305084228515625,-0.5909704566001892,-0.8129593133926392,-0.2549872398376465,-0.18186700344085693,0.8039698600769043,4.094411849975586
408,81606,81608,-0.07885497808456421,0.020494559779763222,1.040102243423462,-18.7459774017334,-9.83585262298584,-9.564175605773926,-0.5909704566001892,-0.8129593133926392,-0.2549872398376465,-0.032704297453165054,0.6789936423301697,3.9792864322662354
409,81616,81618,-0.06658930331468582,-0.011111434549093246,1.0134176015853882,-26.52194595336914,-3.881582260131836,-8.143669128417969,-0.5909704566001892,-0.8129593133926392,-0.2549872398376465,-0.007774881087243557,0.36542192101478577,3.907977819442749
410,81626,81628,-0.047579895704984665,0.006902618333697319,0.9710294008255005,-33.30340576171875,2.024144172668457,-6.672785758972168,-0.5909704566001892,-0.8129593133926392,-0.2549872398376465,-0.05765165016055107,0.2919149398803711,3.8359570503234863
411,81636,81638,-0.10730049759149551,0.038076043128967285,1.0207571983337402,-35.06836700439453,8.744322776794434,-6.535553932189941,-0.5894705057144165,-0.8144592642784119,-0.2654867172241211,-0.15626156330108643,-0.24268701672554016,3.7915761470794678
412,81646,81648,-0.28205606341362,-0.08777198940515518,0.9603449702262878,-29.40761375427246,22.250144958496094,-5.141547203063965,-0.5939702987670898,-0.8009599447250366,-0.24898754060268402,-0.29434576630592346,-0.49623680114746094,3.727480411529541
413,81656,81658,-0.19811904430389404,-0.06899354606866837,1.033632516860962,-18.23744010925293,35.337764739990234,-4.249309539794922,-0.5909704566001892,-0.8039597868919373,-0.26098695397377014,-0.626868724822998,-0.7810229659080505,3.6926381587982178
414,81666,81668,-0.13765312731266022,0.000752611958887428,1.0495586395263672,-2.6800758838653564,44.612945556640625,-2.4410765171051025,-0.5999699831008911,-0.8009599447250366,-0.2549872398376465,-1.0833802223205566,-0.869416356086731,3.6650822162628174
415,81676,81678,-0.08215074241161346,-0.08105194568634033,1.0065945386886597,14.548614501953125,43.879573822021484,-0.8725038766860962,-0.6029698252677917,-0.8069596290588379,-0.26098695397377014,-1.2972495555877686,-0.8540775179862976,3.593005418777466
416,81686,81688,-0.14739005267620087,-0.08752498775720596,0.984512209892273,22.24693489074707,33.266902923583984,0.7387145161628723,-0.6014699339866638,-0.8234587907791138,-0.25348731875419617,-1.8996524810791016,-0.5825832486152649,3.623255968093872
417,81696,81698,-0.07019294798374176,-0.038564424961805344,1.0097378492355347,25.782146453857422,14.171805381774902,-0.16760709881782532,-0.6149692535400391,-0.8099594712257385,-0.26098695397377014,-2.097454309463501,-0.414396733045578,3.599243640899658
418,81706,81708,-0.21840865910053253,-0.2244786024093628,0.9531999230384827,27.549528121948242,-10.358529090881348,-2.2689900398254395,-0.6134693026542664,-0.8204589486122131,-0.2564871609210968,-2.0839219093322754,-0.08028780668973923,3.5802993774414062
419,81716,81718,-0.27151232957839966,-0.20415157079696655,0.9685559868812561,32.83291244506836,-32.60679244995117,-3.4652111530303955,-0.6029698252677917,-0.8219588994979858,-0.2579870820045471,-1.8287909030914307,0.16530628502368927,3.5296144485473633
420,81726,81728,-0.29722094535827637,-0.6541545391082764,1.0320494174957275,38.401161193847656,-47.10067367553711,-2.3448023796081543,-0.6074696183204651,-0.8264586329460144,-0.27148643136024475,-1.2803616523742676,0.42827391624450684,3.451122999191284
421,81736,81738,-0.20805723965168,-0.48731014132499695,1.0550904273986816,32.868709564208984,-53.97932815551758,0.7469192743301392,-0.5984700918197632,-0.8384580612182617,-0.26248687505722046,-0.7914194464683533,0.9001792073249817,3.4393301010131836
422,81746,81748,-0.3362968862056732,-0.29402410984039307,1.1092585325241089,24.921043395996094,-49.80720520019531,2.516037940979004,-0.5984700918197632,-0.8354582190513611,-0.26248687505722046,-0.2890471816062927,1.0713081359863281,3.4223132133483887
423,81756,81758,-0.17321021854877472,-0.24804188311100006,1.1660935878753662,10.353620529174805,-35.512786865234375,4.9790472984313965,-0.5939702987670898,-0.8339582681655884,-0.2639867961406708,0.19774359464645386,1.374527096748352,3.450998306274414
424,81766,81768,-0.15510772168636322,-0.30548617243766785,0.9717353582382202,-1.558737874031067,-20.218976974487305,4.534819602966309,-0.5999699831008911,-0.8279585838317871,-0.2639867961406708,0.6078377366065979,1.522959589958191,3.492772102355957
425,81776,81778,-0.2878616750240326,-0.1960240602493286,1.028183937072754,-8.88672161102295,0.5065140724182129,2.814366340637207,-0.5864706635475159,-0.8324583768844604,-0.27148643136024475,0.7388368844985962,1.4101593494415283,3.5284175872802734
426,81786,81788,-0.16024963557720184,-0.11412389576435089,1.041418433189392,-12.304762840270996,21.526256561279297,1.2403687238693237,-0.6059696674346924,-0.8129593133926392,-0.2639867961406708,0.5785020589828491,1.2670918703079224,3.5593628883361816
427,81796,81798,-0.10567285865545273,-0.37827107310295105,0.9826242923736572,-15.314385414123535,38.588172912597656,0.6220464110374451,-0.5999699831008911,-0.8219588994979858,-0.2549872398376465,0.1513693928718567,1.2725834846496582,3.594796657562256
428,81806,81808,-0.2762288749217987,-0.26328784227371216,0.9807517528533936,-19.002531051635742,46.67598342895508,0.24856770038604736,-0.6014699339866638,-0.8174591064453125,-0.25048747658729553,-0.22530527412891388,1.0042744874954224,3.5994083881378174
429,81816,81818,-0.15781259536743164,-0.03022230975329876,0.9356967806816101,-27.377695083618164,49.94402313232422,1.8503886461257935,-0.6149692535400391,-0.8219588994979858,-0.2579870820045471,-0.6163755655288696,0.8136110305786133,3.6086325645446777
430,81826,81828,-0.05083190277218819,0.038205817341804504,1.0506967306137085,-35.07443618774414,45.158164978027344,2.48854660987854,-0.5924703478813171,-0.8204589486122131,-0.26848655939102173,-1.280478835105896,0.48931604623794556,3.6236021518707275
431,81836,81838,-0.1033482626080513,-0.0335720032453537,1.0664077997207642,-43.50605010986328,31.085102081298828,2.645589590072632,-0.5939702987670898,-0.8099594712257385,-0.2549872398376465,-1.7059401273727417,0.10384443402290344,3.6485838890075684
432,81846,81848,-0.09368349611759186,-0.019525974988937378,1.0618771314620972,-41.469329833984375,11.511982917785645,1.2285196781158447,-0.6089695692062378,-0.8129593133926392,-0.2549872398376465,-1.9657838344573975,-0.16644994914531708,3.687357187271118
433,81856,81858,-0.2164396345615387,-0.17826932668685913,0.9895856976509094,-28.756736755371094,-8.65566635131836,0.10033798217773438,-0.6014699339866638,-0.8144592642784119,-0.25048747658729553,-2.0536904335021973,-0.6771220564842224,3.687002420425415
434,81866,81868,-0.1922716647386551,-0.021495165303349495,1.0314679145812988,-4.9072980880737305,-25.397504806518555,-1.3128745555877686,-0.6029698252677917,-0.8039597868919373,-0.2579870820045471,-1.8412033319473267,-0.7835736274719238,3.716691255569458
435,81876,81878,-0.19559721648693085,-0.015577893704175949,1.0703606605529785,17.721729278564453,-33.58206558227539,-1.8366678953170776,-0.6014699339866638,-0.8174591064453125,-0.26848655939102173,-1.6014986038208008,-0.7965139746665955,3.7103524208068848
436,81886,81888,-0.07458936423063278,-0.04130508750677109,0.974300742149353,35.18117904663086,-38.61402130126953,-1.5148026943206787,-0.6134693026542664,-0.8234587907791138,-0.25348731875419617,-1.1498708724975586,-0.467386931180954,3.7237672805786133
437,81896,81898,-0.13146166503429413,-0.4066658318042755,0.9361488223075867,39.0532341003418,-39.03108215332031,0.6655262112617493,-0.5954701900482178,-0.844457745552063,-0.2744862735271454,-0.7622585892677307,-0.1807500571012497,3.7039315700531006
438,81906,81908,-0.8422453999519348,-0.9371874928474426,1.0928703546524048,28.606361389160156,-40.9051399230957,2.9259002208709717,-0.5954701900482178,-0.8174591064453125,-0.26248687505722046,-0.38254594802856445,0.20730102062225342,3.712462902069092
439,81916,81918,-0.43524008989334106,-0.3804980218410492,0.9794932007789612,15.549271583557129,-31.544830322265625,6.027796268463135,-0.5924703478813171,-0.8204589486122131,-0.26248687505722046,-0.15777666866779327,0.4110175371170044,3.735363721847534
440,81926,81928,-0.13256651163101196,-0.12319912016391754,1.0488559007644653,-4.321408748626709,-22.041303634643555,7.8655595779418945,-0.6044697761535645,-0.8204589486122131,-0.2654867172241211,0.26327216625213623,0.5938505530357361,3.7970244884490967
441,81936,81938,-0.3238416016101837,-0.14789365231990814,1.0091923475265503,-21.352190017700195,-14.858577728271484,8.313982009887695,-0.5999699831008911,-0.8189590573310852,-0.2579870820045471,0.4275256395339966,0.4713839292526245,3.8613717555999756
442,81946,81948,-0.6738806366920471,-0.36502668261528015,0.982373058795929,-33.79762268066406,-7.095212459564209,6.155553817749023,-0.5969701409339905,-0.8159592151641846,-0.2639867961406708,0.5172861218452454,0.21393798291683197,3.9376025199890137
443,81956,81958,-0.7547207474708557,-0.7056951522827148,0.9617326855659485,-31.09646987915039,3.5003952980041504,4.6551408767700195,-0.5924703478813171,-0.80545973777771,-0.25348731875419617,0.5764672160148621,-0.3299970030784607,3.9758455753326416
444,81966,81968,-0.3632620871067047,-0.38664892315864563,1.099033236503601,-22.94609832763672,10.696324348449707,4.158992290496826,-0.5909704566001892,-0.8039597868919373,-0.24898754060268402,0.4976700246334076,-0.3872823417186737,4.052491664886475
445,81976,81978,-0.1698417216539383,-0.171290323138237,1.0372138023376465,-9.788620948791504,17.738483428955078,2.921457052230835,-0.5954701900482178,-0.8084595799446106,-0.25048747658729553,0.38728076219558716,-0.5954846739768982,4.093512535095215
446,81986,81988,-0.025246400386095047,0.004474089480936527,0.9616574048995972,1.5566109418869019,24.293413162231445,1.7104785442352295,-0.5939702987670898,-0.8009599447250366,-0.2669866383075714,0.18381649255752563,-0.7275809049606323,4.1192851066589355
447,81996,81998,-0.09152117371559143,-0.08955714106559753,0.9829931259155273,14.882161140441895,27.654298782348633,1.8247328996658325,-0.5939702987670898,-0.8009599447250366,-0.25198739767074585,-0.18639396131038666,-0.6116495132446289,4.146754264831543
448,82006,82008,-0.13772499561309814,-0.03792642429471016,0.925879180431366,27.04531478881836,20.142377853393555,2.466357469558716,-0.5954701900482178,-0.8204589486122131,-0.25348731875419617,-0.3676978349685669,-0.4864063560962677,4.158628940582275
449,82016,82018,-0.19996893405914307,0.08932731300592422,1.0812090635299683,31.395414352416992,1.264325499534607,1.4138247966766357,-0.6074696183204651,-0.80545973777771,-0.26248687505722046,-0.5182510018348694,-0.25731685757637024,4.179527759552002
450,82026,82028,-0.2775721848011017,-0.0017555428203195333,1.0382051467895508,33.546363830566406,-12.807238578796387,0.5529465675354004,-0.6044697761535645,-0.8084595799446106,-0.2564871609210968,-0.4701955318450928,0.1746785044670105,4.197019577026367
451,82036,82038,-0.060599882155656815,0.11907898634672165,1.0423773527145386,31.93157196044922,-20.307260513305664,-1.6615177392959595,-0.6074696183204651,-0.8234587907791138,-0.26248687505722046,-0.2363569438457489,0.42535069584846497,4.188033103942871
452,82046,82048,0.00989212654531002,0.13718697428703308,0.9870774149894714,26.3851318359375,-23.27142906188965,0.7583957314491272,-0.5969701409339905,-0.8249587416648865,-0.26998651027679443,0.0902847871184349,0.7885169386863708,4.161046028137207
453,82056,82058,-0.04064202308654785,-0.12184139341115952,0.9888064861297607,11.945368766784668,-27.584306716918945,2.8462467193603516,-0.5939702987670898,-0.8159592151641846,-0.2579870820045471,0.23650899529457092,1.027529001235962,4.169159412384033
454,82066,82068,-0.05930989608168602,-0.35929301381111145,0.9688190817832947,-2.42136287689209,-31.605722427368164,4.220184326171875,-0.5924703478813171,-0.8204589486122131,-0.25048747658729553,0.4601031243801117,1.0344676971435547,4.19114875793457
455,82076,82078,-0.0009013514500111341,-0.1182088777422905,0.938029944896698,-13.637019157409668,-29.16921615600586,4.689024448394775,-0.5894705057144165,-0.80545973777771,-0.26248687505722046,0.9435678720474243,0.9559814929962158,4.215900421142578
456,82086,82088,-0.13527098298072815,-0.10585275292396545,0.9656639695167542,-21.811033248901367,-20.371370315551758,3.7151224613189697,-0.5924703478813171,-0.8084595799446106,-0.2594870328903198,0.9190385341644287,0.8491296172142029,4.256816387176514
457,82096,82098,-0.2726812958717346,-0.06522251665592194,1.0057817697525024,-24.097122192382812,-4.999267101287842,3.8236193656921387,-0.5834708213806152,-0.8114594221115112,-0.2594870328903198,1.1954724788665771,0.5589185357093811,4.29271936416626
458,82106,82108,-0.23805798590183258,0.00931094866245985,1.0321670770645142,-27.638107299804688,9.305753707885742,5.768714427947998,-0.5939702987670898,-0.8099594712257385,-0.25198739767074585,1.156007170677185,0.30725210905075073,4.334712982177734
459,82116,82118,-0.12308383733034134,0.047110266983509064,0.9985130429267883,-25.334583282470703,26.27324104309082,6.200856685638428,-0.5849707126617432,-0.8159592151641846,-0.25198739767074585,1.0481504201889038,0.13330723345279694,4.388234615325928
460,82126,82128,-0.07586871832609177,0.05853657051920891,1.0417922735214233,-9.084424018859863,40.75856018066406,7.428503513336182,-0.5894705057144165,-0.8114594221115112,-0.25048747658729553,0.5898825526237488,-0.17148834466934204,4.451404094696045
461,82136,82138,-0.07211586833000183,-0.0014395932666957378,0.973663330078125,4.360270977020264,45.95098876953125,9.611388206481934,-0.5849707126617432,-0.8219588994979858,-0.2669866383075714,0.42899414896965027,-0.20552732050418854,4.525742053985596
462,82146,82148,-0.14059530198574066,-0.04336076229810715,0.9705578088760376,13.542328834533691,40.721309661865234,11.018468856811523,-0.6089695692062378,-0.8129593133926392,-0.24898754060268402,-0.2589099109172821,-0.050290364772081375,4.6022210121154785
463,82156,82158,-0.22715620696544647,-0.12198253720998764,1.0249086618423462,18.15448760986328,28.407808303833008,11.139404296875,-0.6104694604873657,-0.8144592642784119,-0.2564871609210968,-0.3552493453025818,0.10503624379634857,4.7139997482299805
464,82166,82168,-0.3683306574821472,-0.2562960684299469,1.047460675239563,16.37569808959961,11.554889678955078,9.972100257873535,-0.6179690957069397,-0.8069596290588379,-0.24298784136772156,-0.590009331703186,0.3168363571166992,4.820102214813232
465,82176,82178,-0.22539891302585602,-0.013507305644452572,1.0768632888793945,11.512940406799316,-8.279760360717773,7.959534645080566,-0.6074696183204651,-0.8234587907791138,-0.2564871609210968,-0.5918488502502441,0.4875508248806,4.919643878936768
466,82186,82188,-0.34264829754829407,-0.6262496709823608,1.0251024961471558,9.54030990600586,-24.729398727416992,6.563035488128662,-0.5849707126617432,-0.8099594712257385,-0.2549872398376465,-0.4622381031513214,0.5074838399887085,5.0061445236206055
467,82196,82198,-0.5495964884757996,-0.9377933740615845,0.9011750221252441,4.358560085296631,-31.482589721679688,7.011201858520508,-0.6059696674346924,-0.8219588994979858,-0.26998651027679443,-0.11178562045097351,0.5670560598373413,5.0733160972595215
468,82206,82208,-0.4985734820365906,-0.38205471634864807,1.0228171348571777,-5.298198223114014,-32.407440185546875,7.997322082519531,-0.5924703478813171,-0.8084595799446106,-0.277486115694046,0.27665889263153076,0.6063762307167053,5.141397953033447
469,82216,82218,-0.32180678844451904,-0.17824016511440277,0.995922327041626,-10.252182960510254,-27.224288940429688,9.209179878234863,-0.5879706144332886,-0.8159592151641846,-0.26098695397377014,0.640373945236206,0.4913164973258972,5.223867893218994
470,82226,82228,-0.10699519515037537,0.13187561929225922,1.0173600912094116,-14.662216186523438,-17.435317993164062,10.65845775604248,-0.5879706144332886,-0.8069596290588379,-0.24898754060268402,1.0299347639083862,0.37284055352211,5.317648887634277
471,82236,82238,0.00995056051760912,0.04813539236783981,0.947490930557251,-17.122257232666016,-6.039560794830322,10.140268325805664,-0.5864706635475159,-0.8204589486122131,-0.2654867172241211,0.9729631543159485,0.3272566497325897,5.405392169952393
472,82246,82248,-0.23136605322360992,-0.056074049323797226,1.03834867477417,-18.3914737701416,6.243708610534668,8.951428413391113,-0.5804709792137146,-0.8084595799446106,-0.25048747658729553,0.9994739294052124,0.09109538048505783,5.509435653686523
473,82256,82258,-0.28364142775535583,-0.08283257484436035,1.0301779508590698,-19.797210693359375,13.537851333618164,7.075728416442871,-0.5909704566001892,-0.8039597868919373,-0.25198739767074585,0.8634253144264221,-0.02592873014509678,5.587143421173096
474,82266,82268,-0.1699240505695343,-0.1455659419298172,1.028559923171997,-15.54059886932373,21.567584991455078,3.471686601638794,-0.5804709792137146,-0.7994599938392639,-0.2594870328903198,0.8101856708526611,-0.35932207107543945,5.673881530761719
475,82276,82278,-0.14267446100711823,0.016557026654481888,1.0501978397369385,-8.155981063842773,28.132368087768555,-0.9205392599105835,-0.5954701900482178,-0.8114594221115112,-0.25348731875419617,0.4346558451652527,-0.5304118990898132,5.702517986297607
476,82286,82288,-0.20820565521717072,-0.020456355065107346,1.0636578798294067,-2.8563289642333984,32.353660583496094,-4.0522541999816895,-0.5924703478813171,-0.8024598360061646,-0.2474876195192337,0.18143457174301147,-0.583066463470459,5.686951160430908
