,timestamp_start,timestamp_end,acc.x,acc.y,acc.z,gyro.x,gyro.y,gyro.z,mag.x,mag.y,mag.z,stabilizer.pitch,stabilizer.roll,stabilizer.yaw
0,3805035,3805036,-0.12120109051465988,-0.20094875991344452,0.9750980138778687,20.99770736694336,38.29697036743164,-5.4558210372924805,-0.5834708213806152,-0.8114594221115112,-0.25348731875419617,1.4800862073898315,1.2904905080795288,1.13351309299469
1,3805045,3805046,-0.08179303258657455,-0.2275039404630661,1.117487907409668,17.299924850463867,38.60955810546875,-5.414057731628418,-0.5864706635475159,-0.8084595799446106,-0.26248687505722046,0.903770923614502,1.4929860830307007,1.045124888420105
2,3805055,3805056,-0.07415103912353516,0.011079319752752781,1.138276219367981,14.719895362854004,31.15439796447754,-4.364755153656006,-0.5969701409339905,-0.8159592151641846,-0.2549872398376465,0.8929290175437927,0.704272985458374,1.3368204832077026
3,3805065,3805066,0.066670261323452,0.1857404261827469,1.1490135192871094,-0.8798987865447998,11.282306671142578,-3.9160120487213135,-0.6089695692062378,-0.8129593133926392,-0.2639867961406708,0.798398494720459,0.7773743867874146,1.3389451503753662
4,3805075,3805076,0.039923787117004395,-0.033327437937259674,1.0825564861297607,-16.9775390625,-6.1456074714660645,-2.386512517929077,-0.5879706144332886,-0.8219588994979858,-0.26098695397377014,0.7224641442298889,0.6577774882316589,1.3089333772659302
5,3805085,3805086,-0.0016616034554317594,-0.18350480496883392,1.0193575620651245,-27.590152740478516,-13.264228820800781,-2.1238386631011963,-0.5909704566001892,-0.8129593133926392,-0.2549872398376465,0.8967757225036621,0.6485034227371216,1.2576687335968018
6,3805095,3805096,-0.08222334831953049,-0.04815033823251724,1.0393035411834717,-28.301143646240234,-15.781119346618652,-2.20263934135437,-0.5879706144332886,-0.7889605164527893,-0.2579870820045471,1.1420718431472778,0.2669413685798645,1.2735402584075928
7,3805105,3805106,-0.10652317851781845,-0.1175268143415451,0.9356203675270081,-25.233383178710938,-9.564188957214355,-2.7311086654663086,-0.5984700918197632,-0.790460467338562,-0.24448777735233307,1.2642426490783691,-0.14396174252033234,1.279543399810791
8,3805115,3805116,-0.15468141436576843,-0.020244665443897247,0.9622249007225037,-16.656749725341797,1.2909821271896362,0.863044023513794,-0.5969701409339905,-0.7889605164527893,-0.2459876984357834,1.2231929302215576,-0.6359938383102417,1.3170260190963745
9,3805125,3805126,-0.05403737723827362,0.008785204961895943,0.9009529948234558,-5.089125633239746,21.98287010192871,2.2625606060028076,-0.5954701900482178,-0.7844607830047607,-0.23248836398124695,0.9424490928649902,-0.6238179802894592,1.2784206867218018
10,3805135,3805136,-0.09314505010843277,-0.08147958666086197,1.0435798168182373,3.630108118057251,28.987409591674805,3.9697153568267822,-0.5999699831008911,-0.7889605164527893,-0.23998799920082092,0.4871516227722168,-0.594245433807373,1.2780029773712158
11,3805145,3805146,-0.12296197563409805,-0.08004967123270035,1.0137802362442017,9.314536094665527,34.448299407958984,3.0448310375213623,-0.6104694604873657,-0.7874606251716614,-0.2294885218143463,-0.056442517787218094,-0.5214149951934814,1.3041223287582397
12,3805155,3805156,-0.11675763875246048,-0.06468895077705383,1.033451795578003,17.037710189819336,29.467811584472656,1.5651291608810425,-0.6134693026542664,-0.790460467338562,-0.23548822104930878,-0.1837671846151352,-0.848305344581604,1.4094358682632446
13,3805165,3805166,-0.168752521276474,-0.4666946232318878,0.9694142937660217,22.561857223510742,18.590980529785156,0.706247866153717,-0.6134693026542664,-0.7964601516723633,-0.23248836398124695,-0.13966825604438782,-0.44393160939216614,1.3839471340179443
14,3805175,3805176,-0.12133805453777313,-0.18962222337722778,0.9395326375961304,24.606128692626953,6.44017219543457,3.8996939659118652,-0.6014699339866638,-0.7964601516723633,-0.23548822104930878,-0.2555997371673584,-0.07403624802827835,1.3796586990356445
15,3805185,3805186,-0.0983293429017067,-0.24855752289295197,0.9236777424812317,26.19101905822754,-8.909667015075684,5.595007419586182,-0.6029698252677917,-0.797960102558136,-0.23398829996585846,-0.09332727640867233,0.1290828138589859,1.4191524982452393
16,3805195,3805196,-0.1487041860818863,-0.18762189149856567,0.8918861746788025,27.660058975219727,-17.838680267333984,6.984208106994629,-0.6194689869880676,-0.80545973777771,-0.24448777735233307,0.03920286148786545,0.6074004769325256,1.4617807865142822
17,3805205,3805206,-0.2571081519126892,-0.3319670855998993,0.8313443064689636,24.11374855041504,-20.82819366455078,9.55102252960205,-0.616469144821167,-0.8024598360061646,-0.2384880781173706,0.24867591261863708,0.9745165109634399,1.5357588529586792
18,3805215,3805216,-0.19690275192260742,-0.2961559593677521,0.8791904449462891,21.118412017822266,-13.21548843383789,9.538481712341309,-0.6179690957069397,-0.8009599447250366,-0.24298784136772156,0.4384741485118866,1.3446298837661743,1.6187022924423218
19,3805225,3805226,-0.011168936267495155,-0.001057695597410202,0.9178794026374817,17.920429229736328,-12.422958374023438,9.678669929504395,-0.6059696674346924,-0.8009599447250366,-0.24898754060268402,0.5173739194869995,1.661800503730774,1.7014617919921875
20,3805235,3805236,-0.20234239101409912,-0.004773973952978849,0.9787693619728088,12.713598251342773,-8.91159725189209,10.657115936279297,-0.6089695692062378,-0.8189590573310852,-0.24298784136772156,0.5692088603973389,2.0860798358917236,1.7735568284988403
21,3805245,3805246,-0.4307144582271576,-0.29034391045570374,0.9816702604293823,9.48717975616455,-11.0775146484375,12.129912376403809,-0.616469144821167,-0.8024598360061646,-0.24448777735233307,0.8371559381484985,2.103029251098633,1.8997623920440674
22,3805255,3805256,-0.48673003911972046,-0.7005571126937866,1.1993277072906494,-3.815243721008301,1.9158893823623657,12.877471923828125,-0.6074696183204651,-0.8084595799446106,-0.2384880781173706,0.9111735224723816,2.6434710025787354,1.9791934490203857
23,3805265,3805266,-0.5048538446426392,-0.17322389781475067,1.4192100763320923,-29.049142837524414,17.687896728515625,12.75033950805664,-0.6014699339866638,-0.8084595799446106,-0.24148792028427124,0.6283779144287109,1.6963523626327515,2.1651804447174072
24,3805275,3805276,-0.31481847167015076,0.09184820204973221,1.31825590133667,-58.28947067260742,36.935115814208984,10.748085021972656,-0.5939702987670898,-0.8249587416648865,-0.23998799920082092,-0.22512465715408325,1.0877841711044312,2.2211475372314453
25,3805285,3805286,-0.23208624124526978,0.10496512800455093,1.3293423652648926,-74.1619644165039,50.69486999511719,10.978597640991211,-0.5909704566001892,-0.8069596290588379,-0.2579870820045471,0.28085246682167053,0.8658689856529236,2.4400992393493652
26,3805295,3805296,-0.10620637983083725,-0.032088279724121094,1.0936223268508911,-71.89824676513672,52.661251068115234,11.894343376159668,-0.6059696674346924,-0.7949602603912354,-0.2369881421327591,-0.3105110228061676,0.1251400262117386,2.5474114418029785
27,3805305,3805306,-0.12034592777490616,-0.013556481339037418,0.9934573769569397,-60.119205474853516,48.213077545166016,11.508495330810547,-0.6149692535400391,-0.7739613056182861,-0.23398829996585846,-0.46851232647895813,-0.4276454448699951,2.7011682987213135
28,3805315,3805316,-0.14795470237731934,-0.38306689262390137,0.9046606421470642,-40.197669982910156,38.53046798706055,11.32472038269043,-0.6269686222076416,-0.7589620351791382,-0.21598920226097107,-0.9900229573249817,-0.9897193312644958,2.800658702850342
29,3805325,3805326,-0.17022986710071564,-0.5464298129081726,0.8151130676269531,-14.751315116882324,27.855327606201172,11.637055397033691,-0.6254687309265137,-0.7544622421264648,-0.21448926627635956,-1.2731066942214966,-1.3081321716308594,2.9122917652130127
30,3805335,3805336,0.0008001004462130368,-0.1690693348646164,0.8784396648406982,11.18371295928955,15.832425117492676,11.772675514221191,-0.6404679417610168,-0.7484625577926636,-0.22048896551132202,-1.2664196491241455,-1.2062525749206543,3.037980794906616
31,3805345,3805346,0.032161179929971695,-0.16353145241737366,0.8005052208900452,32.36610794067383,4.921237945556641,13.104281425476074,-0.6314684152603149,-0.7514623999595642,-0.2084895670413971,-1.3715418577194214,-0.880145251750946,3.1643524169921875
32,3805355,3805356,-0.2474660575389862,-0.4151840806007385,0.9849165678024292,42.03828811645508,-2.2104203701019287,14.739267349243164,-0.6209689378738403,-0.7559621930122375,-0.23098844289779663,-1.2686549425125122,-0.5292348265647888,3.2961695194244385
33,3805365,3805366,-0.4147862195968628,-0.6920056939125061,1.0862852334976196,42.940162658691406,-8.841861724853516,16.448951721191406,-0.6389680504798889,-0.7709614634513855,-0.2189890444278717,-1.2022777795791626,-0.09762345254421234,3.446722984313965
34,3805375,3805376,-0.20495620369911194,-0.5395106077194214,0.9503191709518433,34.96283721923828,-11.886677742004395,16.93069076538086,-0.6299684643745422,-0.7619618773460388,-0.22498874366283417,-1.191259741783142,0.3962380588054657,3.623333692550659
35,3805385,3805386,-0.03226414695382118,-0.049369409680366516,0.9507841467857361,22.247760772705078,-9.668156623840332,17.473094940185547,-0.6149692535400391,-0.7739613056182861,-0.21598920226097107,-0.9716473817825317,0.5825403332710266,3.770988702774048
36,3805395,3805396,-0.008868166245520115,-0.04761112108826637,0.9710979461669922,6.483922004699707,-4.48386812210083,18.714263916015625,-0.6194689869880676,-0.7784610390663147,-0.2294885218143463,-0.8946414589881897,0.7393872737884521,3.9438846111297607
37,3805405,3805406,-0.11025791615247726,0.1095556914806366,0.9939292073249817,-13.882585525512695,6.139350891113281,19.305784225463867,-0.6299684643745422,-0.7769611477851868,-0.2189890444278717,-0.7382146716117859,0.734721839427948,4.129146575927734
38,3805415,3805416,-0.09010530263185501,-0.01576274447143078,0.9824526309967041,-32.674800872802734,20.320289611816406,19.25807762145996,-0.6089695692062378,-0.782960832118988,-0.2459876984357834,-0.9812214970588684,0.2767084240913391,4.294188976287842
39,3805425,3805426,-0.09746739268302917,-0.1751152127981186,0.8844196796417236,-50.97062683105469,29.735843658447266,18.43674087524414,-0.6314684152603149,-0.7874606251716614,-0.23548822104930878,-1.063324213027954,-0.04229740798473358,4.4903788566589355
40,3805435,3805436,-0.309650719165802,-0.41455161571502686,0.8837772011756897,-61.118648529052734,39.452552795410156,16.993000030517578,-0.6104694604873657,-0.7844607830047607,-0.2174891233444214,-1.5156749486923218,-0.7260972261428833,4.649683475494385
41,3805445,3805446,-0.29950249195098877,-0.24558775126934052,0.9103878140449524,-66.37592315673828,47.55251693725586,14.660347938537598,-0.6134693026542664,-0.7724613547325134,-0.2294885218143463,-2.023128032684326,-1.5187076330184937,4.780872821807861
42,3805455,3805456,-0.062366776168346405,-0.20242981612682343,0.856177568435669,-58.603729248046875,53.868011474609375,13.167728424072266,-0.6074696183204651,-0.7724613547325134,-0.2294885218143463,-2.3763318061828613,-1.981636881828308,4.935029029846191
43,3805465,3805466,-0.06219528988003731,-0.07404913008213043,0.9291555881500244,-42.621009826660156,53.41255569458008,10.895462989807129,-0.6149692535400391,-0.7739613056182861,-0.23998799920082092,-2.9894096851348877,-2.459899663925171,5.057172775268555
44,3805475,3805476,-0.07349222898483276,0.0529899001121521,0.9664365649223328,-24.074602127075195,51.951786041259766,6.260369777679443,-0.6179690957069397,-0.7559621930122375,-0.23398829996585846,-3.3682870864868164,-2.645998954772949,5.155874729156494
45,3805485,3805486,-0.006390289403498173,0.11406772583723068,0.8479165434837341,0.5951152443885803,38.0322151184082,3.365226984024048,-0.623968780040741,-0.7739613056182861,-0.2369881421327591,-3.959162473678589,-2.821916341781616,5.192365646362305
46,3805495,3805496,0.010261381044983864,-0.030684856697916985,0.7588657736778259,18.166805267333984,23.501100540161133,0.6910085082054138,-0.6509674191474915,-0.7859606742858887,-0.227988600730896,-4.320437431335449,-2.6683030128479004,5.22580099105835
47,3805505,3805506,0.020678779110312462,-0.11982268840074539,0.973700225353241,33.29096984863281,11.4326171875,-2.963271141052246,-0.6254687309265137,-0.7934603095054626,-0.2384880781173706,-4.370792865753174,-2.4569649696350098,5.161901473999023
48,3805515,3805516,0.03701375424861908,-0.3481270968914032,0.9074523448944092,45.60956954956055,-7.543896198272705,-4.380680561065674,-0.6359682083129883,-0.8009599447250366,-0.2369881421327591,-4.305749416351318,-1.9612421989440918,5.145671367645264
49,3805525,3805526,0.0013639385579153895,-0.14524534344673157,0.7282888889312744,51.04648971557617,-23.247880935668945,-3.064192295074463,-0.622468888759613,-0.7964601516723633,-0.23548822104930878,-4.1632232666015625,-1.6165690422058105,5.052970886230469
50,3805535,3805536,-0.013297690078616142,-0.021473338827490807,0.8234562873840332,49.402931213378906,-34.45480728149414,-2.9128658771514893,-0.6044697761535645,-0.8264586329460144,-0.25348731875419617,-3.794412851333618,-1.1001427173614502,5.013637065887451
51,3805545,3805546,-0.051856886595487595,0.03542096167802811,0.8860095143318176,44.024566650390625,-32.17021942138672,-1.4513212442398071,-0.6209689378738403,-0.8339582681655884,-0.2579870820045471,-3.461730480194092,-0.5057799816131592,5.04916524887085
52,3805555,3805556,-0.020282642915844917,0.09364498406648636,0.9799510836601257,31.46432113647461,-19.45970916748047,-0.9453119039535522,-0.6104694604873657,-0.8264586329460144,-0.2654867172241211,-3.2563467025756836,-0.360944539308548,4.930060386657715
53,3805565,3805566,-0.041712578386068344,-0.005300810560584068,0.9740496277809143,14.075227737426758,-7.235519886016846,-1.8786474466323853,-0.6149692535400391,-0.836958110332489,-0.26098695397377014,-3.1083009243011475,-0.23596738278865814,4.851870059967041
54,3805575,3805576,-0.1248478889465332,-0.1750381588935852,1.0791693925857544,-5.060452938079834,-5.1627278327941895,-3.779315948486328,-0.6179690957069397,-0.8279585838317871,-0.2639867961406708,-3.064013719558716,-0.19876103103160858,4.8164591789245605
55,3805585,3805586,-0.25009962916374207,-0.3566094934940338,0.9787101149559021,-20.498384475708008,-6.926154136657715,-4.883703231811523,-0.6089695692062378,-0.8309584259986877,-0.2549872398376465,-3.0150461196899414,-0.49618616700172424,4.680779933929443
56,3805595,3805596,-0.09293417632579803,-0.07015363872051239,0.9538397789001465,-26.79363441467285,5.435948371887207,-5.347106456756592,-0.6059696674346924,-0.8279585838317871,-0.2549872398376465,-3.0550787448883057,-0.8037021160125732,4.606799125671387
57,3805605,3805606,-0.0898621678352356,0.057287223637104034,0.9947712421417236,-26.796838760375977,11.156486511230469,-7.303936958312988,-0.5969701409339905,-0.8339582681655884,-0.2549872398376465,-3.225644111633301,-0.9997366666793823,4.604622840881348
58,3805615,3805616,0.051752764731645584,0.07551592588424683,0.9646432399749756,-17.005300521850586,11.561371803283691,-6.83455228805542,-0.6014699339866638,-0.8204589486122131,-0.2564871609210968,-3.363220691680908,-1.1743601560592651,4.563606262207031
59,3805625,3805626,-0.09527471661567688,0.01791239343583584,0.987391471862793,-5.735927104949951,12.319880485534668,-6.734311580657959,-0.6074696183204651,-0.8384580612182617,-0.2474876195192337,-3.3650739192962646,-1.3206512928009033,4.464025497436523
60,3805635,3805636,0.08591647446155548,-0.015098311007022858,1.0237177610397339,4.470483303070068,11.91524600982666,-7.314469814300537,-0.5954701900482178,-0.8324583768844604,-0.26248687505722046,-3.5518479347229004,-1.2871190309524536,4.43765926361084
61,3805645,3805646,-0.05857367813587189,-0.20655642449855804,1.067148208618164,14.132614135742188,-5.180575847625732,-5.3536787033081055,-0.5999699831008911,-0.8399580121040344,-0.2669866383075714,-3.5582456588745117,-1.2351354360580444,4.35007381439209
62,3805655,3805656,-0.07371925562620163,-0.09577102214097977,1.1124311685562134,22.889551162719727,-11.868844032287598,-4.341659069061279,-0.6014699339866638,-0.850457489490509,-0.2654867172241211,-3.5342376232147217,-0.961475133895874,4.36032247543335
63,3805665,3805666,-0.12094659358263016,-0.14664430916309357,1.0368590354919434,25.913314819335938,-18.111040115356445,-3.140061616897583,-0.6104694604873657,-0.8474575877189636,-0.26248687505722046,-3.2673404216766357,-0.7451573610305786,4.285652160644531
64,3805675,3805676,-0.10849237442016602,-0.196729376912117,0.9867680668830872,22.52811622619629,-27.308942794799805,-2.695797920227051,-0.6074696183204651,-0.8534573316574097,-0.2594870328903198,-2.964784622192383,-0.6786720156669617,4.143411159515381
65,3805685,3805686,-0.025135044008493423,-0.12431255728006363,1.0463491678237915,18.284652709960938,-22.42748260498047,0.5894265174865723,-0.5879706144332886,-0.8579570651054382,-0.2669866383075714,-2.8339357376098633,-0.38226503133773804,4.198582649230957
66,3805695,3805696,-0.008042754605412483,-0.19880852103233337,1.1007883548736572,5.977406024932861,-20.316171646118164,2.3288333415985107,-0.5924703478813171,-0.8414579033851624,-0.27148643136024475,-2.5333592891693115,-0.5923309922218323,4.03432559967041
67,3805705,3805706,-0.0638456791639328,-0.1954226791858673,1.0248408317565918,-1.2868142127990723,-18.12876319885254,3.560892343521118,-0.5834708213806152,-0.8414579033851624,-0.2654867172241211,-2.3490865230560303,-0.49641042947769165,4.089682579040527
68,3805715,3805716,-0.08633938431739807,-0.1733861118555069,1.0806775093078613,-8.483051300048828,-18.114381790161133,0.821903645992279,-0.5864706635475159,-0.8414579033851624,-0.27148643136024475,-2.1744027137756348,-0.5918056964874268,4.095380783081055
69,3805725,3805726,-0.12637627124786377,0.023088017478585243,1.0200440883636475,-8.855287551879883,-26.333520889282227,1.636960506439209,-0.5909704566001892,-0.8459576964378357,-0.26098695397377014,-2.0646915435791016,-0.6660354137420654,4.127738952636719
70,3805735,3805736,-0.14098714292049408,0.05129849910736084,1.0474580526351929,-7.125654697418213,-12.754578590393066,0.505216658115387,-0.5969701409339905,-0.8489575386047363,-0.28198590874671936,-1.7332417964935303,-0.7230380773544312,4.140493392944336
71,3805745,3805746,-0.045987796038389206,0.15436473488807678,1.0370408296585083,5.426706314086914,-5.036856651306152,2.9155733585357666,-0.5969701409339905,-0.8489575386047363,-0.28198590874671936,-1.7160396575927734,-0.7865638732910156,4.14928674697876
72,3805755,3805756,0.045557986944913864,-0.026314759626984596,1.115339756011963,9.010751724243164,10.316186904907227,0.9586933255195618,-0.5969701409339905,-0.8489575386047363,-0.28198590874671936,-1.8756765127182007,-0.5751363039016724,4.2415571212768555
73,3805765,3805766,-0.0772252306342125,-0.06644278764724731,1.0901681184768677,13.357131958007812,12.934538841247559,1.897191047668457,-0.5969701409339905,-0.8489575386047363,-0.28198590874671936,-1.9405370950698853,-0.6075063943862915,4.200923919677734
74,3805775,3805776,-0.09575671702623367,-0.12782686948776245,1.0949863195419312,9.23751163482666,21.565053939819336,-3.3501274585723877,-0.5864706635475159,-0.8654567003250122,-0.28048595786094666,-2.1208767890930176,-0.3473198115825653,4.2431640625
75,3805785,3805786,-0.06126468628644943,0.12344914674758911,1.0576547384262085,18.00018310546875,21.359708786010742,-3.981783866882324,-0.5879706144332886,-0.8609569072723389,-0.2669866383075714,-2.415367364883423,-0.19241410493850708,4.2281928062438965
76,3805795,3805796,-0.02666221745312214,0.0780177041888237,1.1587355136871338,13.838658332824707,13.93332576751709,-7.059795379638672,-0.6014699339866638,-0.8594570159912109,-0.2654867172241211,-2.4792206287384033,-0.2934134900569916,4.081707954406738
77,3805805,3805806,-0.0938052088022232,-0.07659099996089935,1.1503312587738037,14.976269721984863,-5.994874954223633,-7.870090007781982,-0.6029698252677917,-0.8669566512107849,-0.2639867961406708,-2.5164225101470947,-0.1156492531299591,4.014682769775391
78,3805815,3805816,-0.09674626588821411,-0.09913763403892517,1.0733790397644043,17.762516021728516,-9.525522232055664,-8.274737358093262,-0.5969701409339905,-0.851957380771637,-0.27298635244369507,-2.396681547164917,0.09908287972211838,3.945666551589966
79,3805825,3805826,-0.02380523830652237,-0.05763992667198181,1.0710792541503906,22.4786376953125,-14.748827934265137,-6.334121227264404,-0.5834708213806152,-0.8684565424919128,-0.277486115694046,-2.2031333446502686,0.3026006817817688,3.861546754837036
80,3805835,3805836,-0.08847431093454361,0.0031911032274365425,1.1497342586517334,23.506860733032227,-19.04625701904297,-8.162090301513672,-0.5924703478813171,-0.844457745552063,-0.277486115694046,-2.0026214122772217,0.6884881258010864,3.83077073097229
81,3805845,3805846,-0.07278934121131897,-0.008961926214396954,1.0927321910858154,16.594541549682617,-34.98255920410156,-9.016793251037598,-0.5909704566001892,-0.851957380771637,-0.2759861946105957,-1.764028549194336,0.7166343927383423,3.6979806423187256
82,3805855,3805856,-0.08822473138570786,0.09179500490427017,1.0643370151519775,11.251524925231934,-32.47385787963867,-8.546133995056152,-0.5849707126617432,-0.851957380771637,-0.26998651027679443,-1.3582336902618408,0.8643674850463867,3.602159261703491
83,3805865,3805866,-0.08686513453722,-0.009905359707772732,1.1791348457336426,1.794691801071167,-29.388225555419922,-12.266875267028809,-0.5804709792137146,-0.850457489490509,-0.277486115694046,-1.1464505195617676,0.8202178478240967,3.471658229827881
84,3805875,3805876,-0.01440003328025341,-0.08913513273000717,1.1494405269622803,-4.266709327697754,-24.865856170654297,-13.48893928527832,-0.5834708213806152,-0.844457745552063,-0.26848655939102173,-0.7715272903442383,0.8743568658828735,3.3534412384033203
85,3805885,3805886,0.03185087442398071,-0.07635005563497543,1.0407253503799438,-4.787878513336182,-18.418426513671875,-15.254585266113281,-0.5834708213806152,-0.8564571738243103,-0.277486115694046,-0.7237116098403931,0.810009241104126,3.196530818939209
86,3805895,3805896,0.0008166292100213468,0.048444963991642,0.9578244090080261,-4.242178916931152,-16.320863723754883,-16.429821014404297,-0.5849707126617432,-0.8459576964378357,-0.27298635244369507,-0.45414555072784424,0.809958279132843,3.053417205810547
87,3805905,3805906,-0.03028598055243492,-0.013444424606859684,1.1247377395629883,-6.417250633239746,-5.638383388519287,-18.984201431274414,-0.5849707126617432,-0.8459576964378357,-0.27298635244369507,-0.29158398509025574,0.7882338166236877,2.881770610809326
88,3805915,3805916,0.028041960671544075,0.06028198450803757,1.0874111652374268,-1.6868351697921753,-6.098602771759033,-18.251699447631836,-0.5834708213806152,-0.850457489490509,-0.25048747658729553,-0.3336312472820282,0.7953048944473267,2.6869606971740723
89,3805925,3805926,-0.01144504640251398,0.10485057532787323,1.0478487014770508,4.1326904296875,4.040672779083252,-18.04629898071289,-0.5834708213806152,-0.850457489490509,-0.27148643136024475,-0.4509478509426117,0.8109586238861084,2.489785671234131
90,3805935,3805936,-0.08973380923271179,-0.13902942836284637,1.1886725425720215,6.461226463317871,-2.2472012042999268,-18.052968978881836,-0.5969701409339905,-0.8429578542709351,-0.27298635244369507,-0.4228912889957428,0.8942188024520874,2.310190439224243
91,3805945,3805946,-0.10025852173566818,-0.01616782881319523,1.1775847673416138,11.584209442138672,4.358260631561279,-16.598600387573242,-0.5924703478813171,-0.8474575877189636,-0.277486115694046,-0.42683953046798706,0.8955931663513184,2.1301043033599854
92,3805955,3805956,-0.1571325808763504,-0.12482073903083801,1.170272707939148,8.429424285888672,0.18135161697864532,-17.154817581176758,-0.5939702987670898,-0.8489575386047363,-0.26998651027679443,-0.4311459958553314,1.0434372425079346,1.963092565536499
93,3805965,3805966,-0.2512136399745941,-0.32490265369415283,1.1267668008804321,13.281671524047852,-9.89873218536377,-15.417084693908691,-0.5969701409339905,-0.8429578542709351,-0.26098695397377014,-0.3280544877052307,1.2080005407333374,1.8017758131027222
94,3805975,3805976,-0.2545979917049408,-0.14796707034111023,1.1539467573165894,15.517674446105957,-7.306450366973877,-13.832319259643555,-0.5999699831008911,-0.851957380771637,-0.2669866383075714,-0.18765728175640106,1.4182238578796387,1.6531826257705688
95,3805985,3805986,-0.11922412365674973,-0.1223755031824112,1.1408088207244873,18.40396499633789,-10.147317886352539,-14.73183822631836,-0.6029698252677917,-0.836958110332489,-0.26998651027679443,-0.04187243431806564,1.5281935930252075,1.5262748003005981
96,3805995,3805996,-0.12131840735673904,0.03702784329652786,1.0676910877227783,26.364553451538086,-12.697235107421875,-12.086807250976562,-0.5954701900482178,-0.8354582190513611,-0.2384880781173706,0.1240319311618805,1.599916696548462,1.4115437269210815
97,3806005,3806006,-0.0638570487499237,0.037454310804605484,0.9829884767532349,28.193880081176758,-3.668485164642334,-9.48702621459961,-0.6014699339866638,-0.8354582190513611,-0.25348731875419617,0.1486385613679886,1.9597898721694946,1.2779628038406372
98,3806015,3806016,-0.09813093394041061,0.09055133908987045,1.1081326007843018,29.619993209838867,8.563142776489258,-8.04479694366455,-0.6179690957069397,-0.8249587416648865,-0.2579870820045471,0.21840699017047882,2.268327236175537,1.2028052806854248
99,3806025,3806026,0.041939761489629745,0.021456165239214897,0.949004054069519,25.54224395751953,11.591869354248047,-3.272195339202881,-0.6134693026542664,-0.8324583768844604,-0.26848655939102173,0.036893635988235474,2.6781582832336426,1.1143622398376465
100,3806035,3806036,0.004882574547082186,-0.011015474796295166,0.9221600294113159,19.447668075561523,12.780013084411621,1.6081973314285278,-0.616469144821167,-0.8354582190513611,-0.25348731875419617,-0.03239667788147926,2.713263511657715,1.1470993757247925
101,3806045,3806046,-0.0877150222659111,-0.07832437008619308,0.9882255792617798,8.138352394104004,11.026888847351074,4.06303596496582,-0.5999699831008911,-0.8339582681655884,-0.2549872398376465,-0.1605157107114792,2.953688859939575,1.1610692739486694
102,3806055,3806056,-0.10069175809621811,-0.04406384751200676,1.0318721532821655,-4.978882789611816,10.031344413757324,6.287455081939697,-0.6059696674346924,-0.8279585838317871,-0.2579870820045471,-0.3341100215911865,2.976966142654419,1.1930813789367676
103,3806065,3806066,-0.1348118633031845,0.18281689286231995,1.2094309329986572,-12.014869689941406,8.340075492858887,8.546341896057129,-0.6119694113731384,-0.8279585838317871,-0.2639867961406708,-0.41922974586486816,2.84169340133667,1.2799837589263916
104,3806075,3806076,-0.0947374626994133,-0.19078882038593292,1.0356128215789795,-16.95261573791504,10.427826881408691,10.443706512451172,-0.6149692535400391,-0.8219588994979858,-0.25198739767074585,-0.3037993013858795,2.7597403526306152,1.4386398792266846
105,3806085,3806086,-0.08148384839296341,-0.20788677036762238,1.0006481409072876,-26.500732421875,8.685136795043945,10.8601713180542,-0.623968780040741,-0.8249587416648865,-0.25198739767074585,-0.46398693323135376,2.5487759113311768,1.529175043106079
106,3806095,3806096,-0.011307289823889732,-0.09951955080032349,0.9265651702880859,-37.71577072143555,6.41117000579834,13.61727523803711,-0.6014699339866638,-0.8204589486122131,-0.26248687505722046,-0.5171347856521606,2.1623477935791016,1.6734905242919922
107,3806105,3806106,-0.046045832335948944,0.08237168937921524,0.9663217067718506,-42.285797119140625,4.112555503845215,14.801651000976562,-0.6179690957069397,-0.8159592151641846,-0.2549872398376465,-0.6147680282592773,1.9238507747650146,1.7769283056259155
108,3806115,3806116,-0.16203585267066956,0.03972751274704933,1.0286922454833984,-43.71708297729492,3.9196619987487793,13.320905685424805,-0.6089695692062378,-0.8249587416648865,-0.2459876984357834,-0.6188908219337463,1.42219877243042,1.9449517726898193
109,3806125,3806126,0.05474955216050148,-0.06374680250883102,0.964330792427063,-44.328269958496094,9.956703186035156,12.504257202148438,-0.6179690957069397,-0.8069596290588379,-0.23398829996585846,-0.6629165410995483,0.7831425070762634,2.1064324378967285
110,3806135,3806136,-0.10463439673185349,-0.5472304821014404,0.974158763885498,-40.48538589477539,4.800868034362793,10.947648048400879,-0.6029698252677917,-0.8159592151641846,-0.2459876984357834,-0.7098904848098755,0.7246842980384827,2.1837198734283447
111,3806145,3806146,-0.10650784522294998,-0.020588343963027,1.0071605443954468,-29.176239013671875,6.238056659698486,9.296196937561035,-0.6074696183204651,-0.8084595799446106,-0.24148792028427124,-0.7978054285049438,0.29161345958709717,2.279252767562866
112,3806155,3806156,-0.08009185642004013,-0.17820443212985992,0.9659837484359741,-15.105748176574707,-0.9622578024864197,7.141490936279297,-0.6194689869880676,-0.7964601516723633,-0.2474876195192337,-0.6960324048995972,0.1351201981306076,2.390174388885498
113,3806165,3806166,-0.22811082005500793,-0.8286487460136414,0.9494078159332275,-0.28894373774528503,-5.715970516204834,7.379159450531006,-0.6209689378738403,-0.8009599447250366,-0.23098844289779663,-0.6507457494735718,0.005962220951914787,2.468508243560791
114,3806175,3806176,-0.1591547578573227,-0.2750246524810791,0.9426563382148743,20.86271095275879,-7.997087001800537,5.41466760635376,-0.6209689378738403,-0.797960102558136,-0.23998799920082092,-0.618328869342804,0.247667133808136,2.5043931007385254
115,3806185,3806186,-0.03620601445436478,-0.0778198167681694,0.9697912931442261,36.862735748291016,-3.9974005222320557,5.036643981933594,-0.6134693026542664,-0.8084595799446106,-0.2384880781173706,-0.5251946449279785,0.7017962336540222,2.535905122756958
116,3806195,3806196,-0.07412812113761902,-0.14084012806415558,1.016269564628601,46.17201232910156,-11.643611907958984,5.922619819641113,-0.6329683661460876,-0.8249587416648865,-0.25198739767074585,-0.390723317861557,1.066044807434082,2.6032633781433105
117,3806205,3806206,-0.15746033191680908,-0.5244407057762146,1.074104905128479,44.772891998291016,-13.479580879211426,8.735937118530273,-0.6254687309265137,-0.8144592642784119,-0.25348731875419617,-0.26864519715309143,1.3431624174118042,2.6879656314849854
118,3806215,3806216,-0.1943291872739792,-0.20647980272769928,1.0872201919555664,31.70261573791504,-11.71081829071045,9.766946792602539,-0.6104694604873657,-0.8324583768844604,-0.25348731875419617,-0.0828724279999733,1.9076441526412964,2.7615740299224854
119,3806225,3806226,-0.030475400388240814,0.019976817071437836,0.955100417137146,10.153471946716309,-9.63066577911377,10.93057918548584,-0.6134693026542664,-0.80545973777771,-0.2474876195192337,0.003898045513778925,2.1586556434631348,2.848170757293701
120,3806235,3806236,-0.07674674689769745,0.03816280514001846,1.0014021396636963,-10.206597328186035,-4.036608695983887,14.169780731201172,-0.6179690957069397,-0.8249587416648865,-0.2459876984357834,0.09162295609712601,2.011063814163208,2.992522716522217
121,3806245,3806246,-0.040076714009046555,-0.12071499973535538,0.9269706606864929,-31.29189682006836,2.7101070880889893,17.54587173461914,-0.6179690957069397,-0.8219588994979858,-0.2459876984357834,0.1605810672044754,1.629115343093872,3.1856768131256104
122,3806255,3806256,-0.0605744831264019,-0.1942141205072403,1.030253529548645,-44.00051498413086,7.620053291320801,19.746572494506836,-0.6104694604873657,-0.8204589486122131,-0.24448777735233307,0.1827569454908371,1.393344759941101,3.3628554344177246
123,3806265,3806266,-0.09312805533409119,-0.06027000769972801,0.9482893943786621,-57.4549560546875,19.83414077758789,21.460094451904297,-0.6074696183204651,-0.8144592642784119,-0.2474876195192337,-0.0859120711684227,0.7767100930213928,3.557645082473755
124,3806275,3806276,0.05356590822339058,-0.3352329134941101,0.9317213296890259,-63.50371551513672,27.222774505615234,19.761348724365234,-0.5909704566001892,-0.7949602603912354,-0.23998799920082092,-0.27304062247276306,0.3653814494609833,3.739727735519409
125,3806285,3806286,-0.0237503070384264,-0.15469768643379211,1.0582787990570068,-59.666229248046875,22.698314666748047,19.26839828491211,-0.6134693026542664,-0.7994599938392639,-0.2294885218143463,-0.6159334182739258,-0.3996850252151489,3.9424636363983154
126,3806295,3806296,-0.08185160160064697,0.09604522585868835,0.9937373399734497,-45.11682891845703,20.316232681274414,18.047080993652344,-0.6089695692062378,-0.7889605164527893,-0.23998799920082092,-0.9598413109779358,-1.1246650218963623,4.130471706390381
127,3806305,3806306,-0.03530639782547951,-0.07352270931005478,1.0051454305648804,-28.46053123474121,13.254802703857422,14.122135162353516,-0.6089695692062378,-0.7799609899520874,-0.2369881421327591,-0.940275251865387,-1.2320314645767212,4.2782182693481445
128,3806315,3806316,-0.03790513053536415,-0.24551083147525787,0.8986437916755676,-4.834841728210449,1.0396156311035156,13.015636444091797,-0.6104694604873657,-0.7754611968994141,-0.23248836398124695,-1.0463850498199463,-1.50800359249115,4.418251037597656
129,3806325,3806326,-0.10810216516256332,-0.26027506589889526,0.9215335249900818,22.139270782470703,5.230856895446777,12.106668472290039,-0.6194689869880676,-0.7964601516723633,-0.23548822104930878,-0.9772424101829529,-1.3688685894012451,4.536250114440918
130,3806335,3806336,-0.11900389194488525,-0.11577945202589035,0.9882078170776367,41.101173400878906,0.8672499060630798,11.554058074951172,-0.6254687309265137,-0.7814609408378601,-0.23248836398124695,-1.035051703453064,-0.8578485250473022,4.632608413696289
131,3806345,3806346,-0.18051452934741974,-0.40603363513946533,0.9468153715133667,49.46231460571289,-4.169623374938965,13.579432487487793,-0.623968780040741,-0.7949602603912354,-0.23998799920082092,-1.032387375831604,-0.4344136714935303,4.754151821136475
132,3806355,3806356,-0.17878401279449463,-0.3584459125995636,0.8852452039718628,45.0952033996582,-1.1216176748275757,12.939526557922363,-0.616469144821167,-0.8084595799446106,-0.23248836398124695,-0.8831743597984314,-0.12952300906181335,4.897315502166748
133,3806365,3806366,-0.093231700360775,0.05878009274601936,1.0331547260284424,32.164451599121094,4.853208541870117,11.998976707458496,-0.6074696183204651,-0.8114594221115112,-0.23548822104930878,-0.8836000561714172,0.43971526622772217,5.014663219451904
134,3806375,3806376,-0.022830449044704437,0.06173037737607956,1.0224202871322632,11.92690372467041,7.748280048370361,11.368983268737793,-0.616469144821167,-0.80545973777771,-0.24448777735233307,-1.0027791261672974,0.5812727212905884,5.150461673736572
135,3806385,3806386,-0.1154877170920372,-0.0009282830287702382,0.963334321975708,-11.12093448638916,4.686494827270508,10.366199493408203,-0.6089695692062378,-0.8129593133926392,-0.2369881421327591,-1.1058824062347412,0.445992648601532,5.272613048553467
136,3806395,3806396,-0.17646420001983643,-0.1821015477180481,1.1079868078231812,-35.33910369873047,1.4868725538253784,9.856512069702148,-0.6104694604873657,-0.80545973777771,-0.2384880781173706,-1.1586246490478516,0.07356297969818115,5.383565902709961
137,3806405,3806406,0.019376039505004883,-0.11119281500577927,1.0232911109924316,-55.76755905151367,0.8164176940917969,8.168107986450195,-0.6014699339866638,-0.8114594221115112,-0.24448777735233307,-1.137837529182434,-0.30339765548706055,5.4683332443237305
138,3806415,3806416,0.04535093158483505,-0.21298915147781372,0.8675932288169861,-66.27437591552734,-5.350188732147217,7.039064884185791,-0.5939702987670898,-0.8009599447250366,-0.23998799920082092,-1.100166916847229,-1.0577830076217651,5.553220748901367
139,3806425,3806426,0.029871266335248947,-0.1029280349612236,0.8643278479576111,-62.62736511230469,-10.148305892944336,8.864139556884766,-0.5969701409339905,-0.797960102558136,-0.2369881421327591,-0.9906064867973328,-1.493665337562561,5.621098041534424
140,3806435,3806436,-0.04636494442820549,0.05816838517785072,0.9553779363632202,-48.18721389770508,-2.2366371154785156,8.441957473754883,-0.5984700918197632,-0.7874606251716614,-0.2294885218143463,-1.0641371011734009,-2.194767475128174,5.721421718597412
141,3806445,3806446,-0.3488374650478363,-0.6661180853843689,0.963933527469635,-29.388336181640625,3.975240468978882,8.801414489746094,-0.6044697761535645,-0.7874606251716614,-0.22648866474628448,-1.103888750076294,-2.4744017124176025,5.805275917053223
142,3806455,3806456,-0.24681109189987183,-0.23940213024616241,0.9111274480819702,5.900174140930176,19.115406036376953,7.826478004455566,-0.5999699831008911,-0.7799609899520874,-0.23398829996585846,-1.1578072309494019,-2.6605024337768555,5.880761623382568
143,3806465,3806466,0.13593646883964539,-0.11494947969913483,0.917184054851532,26.235824584960938,17.696002960205078,4.755330562591553,-0.6104694604873657,-0.7934603095054626,-0.23548822104930878,-1.3689889907836914,-2.402329921722412,5.9499664306640625
144,3806475,3806476,0.021379299461841583,-0.06263452023267746,0.9787964224815369,46.84008026123047,11.22522258758545,4.551117420196533,-0.6119694113731384,-0.7919603586196899,-0.23998799920082092,-1.4589866399765015,-2.143386125564575,5.978275775909424
145,3806485,3806486,0.05393228679895401,-0.46214166283607483,1.0092111825942993,56.215511322021484,6.645784378051758,3.0525498390197754,-0.623968780040741,-0.8189590573310852,-0.24298784136772156,-1.6192330121994019,-1.4499523639678955,6.026364326477051
146,3806495,3806496,-0.06052489951252937,-0.48736798763275146,1.0204817056655884,53.40454864501953,-10.590158462524414,-0.01791675016283989,-0.6119694113731384,-0.8069596290588379,-0.23998799920082092,-1.5407856702804565,-1.0665934085845947,6.022902488708496
147,3806505,3806506,-0.141961008310318,-0.672408401966095,0.8361840844154358,44.18406295776367,-30.714078903198242,0.20970219373703003,-0.6029698252677917,-0.8099594712257385,-0.23998799920082092,-1.2515581846237183,-0.5077019929885864,6.000506401062012
148,3806515,3806516,-0.1632126271724701,-0.49250298738479614,0.8249602317810059,25.912111282348633,-36.95055389404297,1.9264990091323853,-0.6029698252677917,-0.8219588994979858,-0.24898754060268402,-0.8391430974006653,-0.18599297106266022,5.988375663757324
149,3806525,3806526,-0.06530012935400009,-0.00606540497392416,0.9292481541633606,8.79251766204834,-33.726993560791016,2.7567710876464844,-0.5924703478813171,-0.8144592642784119,-0.2474876195192337,-0.6131802797317505,-0.08371773362159729,6.041058540344238
150,3806535,3806536,-0.07845647633075714,0.047849901020526886,1.0224430561065674,-9.523870468139648,-30.48081398010254,3.6531083583831787,-0.6029698252677917,-0.8159592151641846,-0.2549872398376465,-0.2226983904838562,-0.1905674785375595,6.060150623321533
151,3806545,3806546,-0.19375863671302795,-0.02611594833433628,1.0170212984085083,-21.00164794921875,-23.135753631591797,3.779818296432495,-0.5954701900482178,-0.8174591064453125,-0.24448777735233307,0.060365449637174606,-0.2406960427761078,6.096670627593994
152,3806555,3806556,-0.06253666430711746,0.03833305463194847,0.952671468257904,-24.677242279052734,-11.162014961242676,2.5144100189208984,-0.5744712948799133,-0.8084595799446106,-0.25048747658729553,0.24899445474147797,-0.5545985102653503,6.132800102233887
153,3806565,3806566,-0.0847063809633255,-0.013836907222867012,0.889373779296875,-22.844667434692383,-5.896014213562012,0.5502729415893555,-0.5894705057144165,-0.8174591064453125,-0.2474876195192337,0.2946845591068268,-0.8611299395561218,6.158958911895752
154,3806575,3806576,-0.016295162960886955,-0.10781712085008621,0.9333746433258057,-15.68073844909668,13.69498348236084,-0.1759253442287445,-0.5924703478813171,-0.80545973777771,-0.25048747658729553,0.25761157274246216,-0.9453875422477722,6.159127712249756
155,3806585,3806586,-0.026728352531790733,-0.025001006200909615,1.1172529458999634,-3.5407440662384033,28.0953426361084,0.01692906953394413,-0.5924703478813171,-0.80545973777771,-0.25048747658729553,-0.09990239143371582,-1.0897427797317505,6.186700344085693
156,3806595,3806596,-0.08884725719690323,0.1741192489862442,1.0399113893508911,2.5146145820617676,35.23481369018555,0.005837291479110718,-0.5924703478813171,-0.80545973777771,-0.25048747658729553,-0.3925463855266571,-1.088013768196106,6.175709247589111
157,3806605,3806606,-0.06431496888399124,-0.2796400189399719,1.0432021617889404,-2.556094169616699,27.32162857055664,-1.1546847820281982,-0.5834708213806152,-0.8144592642784119,-0.2474876195192337,-0.8084408640861511,-1.0909502506256104,6.181177616119385
158,3806615,3806616,-0.02494419738650322,-0.2298126518726349,0.974419891834259,-1.0402379035949707,17.0212459564209,-0.6153826713562012,-0.5939702987670898,-0.8039597868919373,-0.23998799920082092,-0.9210485219955444,-1.1133233308792114,6.140775203704834
159,3806625,3806626,-0.02671259641647339,-0.21700836718082428,0.974554717540741,7.132023334503174,8.055912017822266,-0.7424890995025635,-0.5954701900482178,-0.8084595799446106,-0.25048747658729553,-1.0930471420288086,-1.0407569408416748,6.138687610626221
160,3806635,3806636,-0.0331219919025898,-0.16664902865886688,0.8659490942955017,16.64422607421875,-8.140852928161621,0.7766663432121277,-0.5999699831008911,-0.8069596290588379,-0.23998799920082092,-1.060027003288269,-0.9608384370803833,6.126058101654053
161,3806645,3806646,-0.025644799694418907,0.010074700228869915,0.8801251649856567,26.478206634521484,-14.862483024597168,4.789101600646973,-0.6074696183204651,-0.8174591064453125,-0.25048747658729553,-0.8401862382888794,-0.7207536101341248,6.125263214111328
162,3806655,3806656,-0.06685762107372284,0.08654869347810745,1.0096242427825928,22.725767135620117,-26.67715835571289,6.745342254638672,-0.5864706635475159,-0.8324583768844604,-0.25048747658729553,-0.6111215949058533,-0.4530172348022461,6.1753458976745605
163,3806665,3806666,-0.053803011775016785,-0.11710774898529053,1.019729495048523,14.924676895141602,-30.60993003845215,7.523819446563721,-0.5864706635475159,-0.8234587907791138,-0.2474876195192337,-0.2725770175457001,-0.3526352345943451,6.242198467254639
164,3806675,3806676,0.0018827262101694942,-0.03634670004248619,0.9878650903701782,5.20098876953125,-31.14229965209961,6.766427993774414,-0.5789710283279419,-0.836958110332489,-0.2579870820045471,-0.051139552146196365,-0.2500855326652527,6.332752704620361
165,3806685,3806686,0.00942017138004303,-0.06281780451536179,0.8723847270011902,-6.26751708984375,-31.15384864807129,6.437726020812988,-0.5849707126617432,-0.8219588994979858,-0.2459876984357834,0.39055493474006653,-0.2544514834880829,6.378551959991455
166,3806695,3806696,0.09978487342596054,0.011258255690336227,0.8822637796401978,-10.368677139282227,-17.001052856445312,5.713406562805176,-0.5804709792137146,-0.8234587907791138,-0.2564871609210968,0.5603259205818176,-0.4579557776451111,6.466660976409912
167,3806705,3806706,-3.685163028421812e-05,-0.41446638107299805,1.0716229677200317,-18.452775955200195,-19.221792221069336,3.885704755783081,-0.5759711861610413,-0.8249587416648865,-0.24898754060268402,0.5759028196334839,-0.7485485672950745,6.55057430267334
168,3806715,3806716,-0.14055459201335907,-0.3001755475997925,1.0921555757522583,-18.39593505859375,-2.2213809490203857,1.591369390487671,-0.5684715509414673,-0.8294585347175598,-0.2594870328903198,0.7339408993721008,-0.9352391958236694,6.580306053161621
169,3806725,3806726,-0.12650546431541443,-0.2633622884750366,0.9182363748550415,-15.151017189025879,-8.854255676269531,-0.8813148140907288,-0.5714713931083679,-0.8324583768844604,-0.2654867172241211,0.8192943334579468,-1.0974116325378418,6.573930263519287
170,3806735,3806736,-0.045824430882930756,-0.7227659821510315,0.9140729308128357,-14.280975341796875,5.432682991027832,-6.231459617614746,-0.5639718174934387,-0.8339582681655884,-0.26098695397377014,0.8234057426452637,-1.2912870645523071,6.564018726348877
171,3806745,3806746,0.049279481172561646,-0.15271583199501038,0.8843915462493896,3.1570160388946533,10.234935760498047,-5.817139625549316,-0.5819708704948425,-0.8279585838317871,-0.2579870820045471,0.6983596086502075,-1.3220971822738647,6.501489639282227
172,3806755,3806756,0.001024513621814549,-0.16113270819187164,1.0167268514633179,18.09894371032715,19.822874069213867,-8.03982925415039,-0.5759711861610413,-0.8339582681655884,-0.26098695397377014,0.5117466449737549,-1.0011804103851318,6.401052474975586
173,3806765,3806766,0.032036300748586655,-0.0734744518995285,1.0487730503082275,42.409339904785156,39.73876953125,-8.187591552734375,-0.577471137046814,-0.8414579033851624,-0.26248687505722046,0.0981343612074852,-0.7823294997215271,6.35551643371582
174,3806775,3806776,-0.006297668907791376,-0.38467931747436523,1.1226177215576172,51.64654541015625,27.379642486572266,-10.531982421875,-0.5684715509414673,-0.8384580612182617,-0.277486115694046,-0.08080629259347916,-0.2406052201986313,6.215803146362305
175,3806785,3806786,-0.14180493354797363,-0.06667544692754745,1.093847393989563,54.408226013183594,29.175273895263672,-13.296907424926758,-0.5864706635475159,-0.8564571738243103,-0.2744862735271454,-0.4042952060699463,0.02264423295855522,6.148696422576904
176,3806795,3806796,-0.12305556237697601,-0.13697388768196106,1.052543044090271,42.69015121459961,8.993932723999023,-15.276077270507812,-0.5864706635475159,-0.8474575877189636,-0.26848655939102173,-0.5585235953330994,0.6531630158424377,5.98213005065918
177,3806805,3806806,-0.08590640872716904,-0.10353797674179077,1.113909363746643,33.527099609375,-11.668264389038086,-14.815784454345703,-0.5909704566001892,-0.8609569072723389,-0.26998651027679443,-0.5927948951721191,1.16741144657135,5.810192108154297
178,3806815,3806816,-0.07464462518692017,-0.11459807306528091,1.0491799116134644,22.28095054626465,-22.044294357299805,-15.030714988708496,-0.5849707126617432,-0.8669566512107849,-0.27298635244369507,-0.35841137170791626,1.2871907949447632,5.669210910797119
179,3806825,3806826,-0.0022128543350845575,-0.34971189498901367,0.9837521910667419,1.2048903703689575,-37.84757995605469,-11.47945785522461,-0.5684715509414673,-0.8624568581581116,-0.2654867172241211,-0.07459470629692078,1.3927462100982666,5.528655529022217
180,3806835,3806836,-0.09674593806266785,-0.1678985208272934,1.1033389568328857,-14.360703468322754,-39.81278610229492,-10.463659286499023,-0.5669716596603394,-0.8699564933776855,-0.2759861946105957,0.2066369503736496,1.3856313228607178,5.402273178100586
181,3806845,3806846,-0.11579397320747375,-0.10525160282850266,1.0577095746994019,-29.338281631469727,-32.81450271606445,-10.77418041229248,-0.5729713439941406,-0.8459576964378357,-0.2639867961406708,0.7272323369979858,1.1092796325683594,5.291889190673828
182,3806855,3806856,-0.0310586579144001,0.2603072226047516,0.954622745513916,-34.0579833984375,-23.267011642456055,-10.171719551086426,-0.5609719157218933,-0.8399580121040344,-0.26098695397377014,0.9861631393432617,0.8482587337493896,5.175091743469238
183,3806865,3806866,0.05683284252882004,0.1536591649055481,1.092400074005127,-38.1087532043457,-9.886545181274414,-11.393339157104492,-0.5744712948799133,-0.8414579033851624,-0.2594870328903198,1.1320210695266724,0.5073758363723755,5.063270092010498
184,3806875,3806876,-0.0472511351108551,0.18741334974765778,1.185560703277588,-26.8572998046875,6.926010608673096,-7.547094821929932,-0.5684715509414673,-0.8384580612182617,-0.2474876195192337,1.1944791078567505,0.01960918679833412,4.980035305023193
185,3806885,3806886,-0.03364459425210953,0.017360279336571693,1.0673274993896484,-20.634170532226562,16.47816276550293,-8.966538429260254,-0.5759711861610413,-0.8429578542709351,-0.2639867961406708,1.0895271301269531,-0.038647785782814026,4.855105876922607
186,3806895,3806896,-0.06172962114214897,-0.20327968895435333,1.0285860300064087,-5.170530796051025,28.30162811279297,-8.634363174438477,-0.5729713439941406,-0.8399580121040344,-0.26998651027679443,0.7765536308288574,-0.12301003187894821,4.7477288246154785
187,3806905,3806906,-0.18818798661231995,-0.05883988365530968,1.1205737590789795,6.613624572753906,30.693408966064453,-11.178679466247559,-0.5804709792137146,-0.844457745552063,-0.2594870328903198,0.44044774770736694,-0.06129460781812668,4.636864185333252
188,3806915,3806916,-0.17324809730052948,0.004466979298740625,1.0913082361221313,16.395658493041992,27.003036499023438,-11.801257133483887,-0.5924703478813171,-0.850457489490509,-0.25348731875419617,0.205978661775589,0.09379689395427704,4.509228706359863
189,3806925,3806926,-0.09516629576683044,0.03536785766482353,1.0516830682754517,19.393781661987305,14.661867141723633,-14.404114723205566,-0.5834708213806152,-0.8354582190513611,-0.2564871609210968,-0.025773968547582626,0.2656949460506439,4.378844738006592
190,3806935,3806936,-0.08186817169189453,0.03816579282283783,1.0550740957260132,24.43809700012207,5.7113423347473145,-14.040006637573242,-0.6089695692062378,-0.8459576964378357,-0.25198739767074585,-0.03063249960541725,0.502888560295105,4.234494686126709
191,3806945,3806946,-0.06242308020591736,0.08027153462171555,1.1074532270431519,29.003549575805664,-0.9118943214416504,-14.50209903717041,-0.5909704566001892,-0.8399580121040344,-0.26098695397377014,-0.05642855167388916,0.6829400062561035,4.110085964202881
192,3806955,3806956,-0.028439318761229515,0.0567544624209404,1.092120885848999,31.269718170166016,-7.564366340637207,-10.741883277893066,-0.5969701409339905,-0.8429578542709351,-0.26998651027679443,0.023473381996154785,0.9232206344604492,3.991719961166382
193,3806965,3806966,-0.06747183948755264,0.018777996301651,1.0469986200332642,23.030153274536133,-1.6791398525238037,-11.320552825927734,-0.5909704566001892,-0.836958110332489,-0.26098695397377014,0.08987695723772049,1.372592806816101,3.849170446395874
194,3806975,3806976,-0.15690697729587555,0.03235495090484619,1.066860556602478,10.794672966003418,-1.0570759773254395,-14.004922866821289,-0.5954701900482178,-0.8324583768844604,-0.25048747658729553,0.10797863453626633,1.566270351409912,3.7239739894866943
195,3806985,3806986,-0.14625048637390137,-0.22655035555362701,1.0302103757858276,-7.7461090087890625,1.9406307935714722,-17.272762298583984,-0.6074696183204651,-0.8324583768844604,-0.2384880781173706,0.1573588103055954,1.5264073610305786,3.5931859016418457
196,3806995,3806996,-0.06638885289430618,-0.1030382439494133,1.0113707780838013,-21.90953826904297,1.2493071556091309,-18.638587951660156,-0.5924703478813171,-0.8264586329460144,-0.24448777735233307,0.18002888560295105,1.35464608669281,3.431643009185791
197,3807005,3807006,-0.04265878349542618,0.023193493485450745,0.9832926392555237,-32.79415512084961,2.093186140060425,-20.169010162353516,-0.577471137046814,-0.8264586329460144,-0.2564871609210968,0.14072416722774506,1.1759566068649292,3.224688768386841
198,3807015,3807016,-0.012917548418045044,0.008995536714792252,0.9933858513832092,-29.956632614135742,3.3722825050354004,-19.014225006103516,-0.5789710283279419,-0.8249587416648865,-0.2639867961406708,0.07054558396339417,0.6735954284667969,3.0466043949127197
199,3807025,3807026,-0.07142838090658188,0.029462946578860283,1.0441242456436157,-21.415447235107422,7.806338787078857,-20.972501754760742,-0.5879706144332886,-0.8219588994979858,-0.25198739767074585,0.0939895436167717,0.4288225471973419,2.8558995723724365
200,3807035,3807036,-0.0618060827255249,-0.3398895561695099,1.0088974237442017,-10.293387413024902,12.600879669189453,-20.68133544921875,-0.6044697761535645,-0.8204589486122131,-0.24448777735233307,0.040890298783779144,0.33753636479377747,2.6409285068511963
201,3807045,3807046,-0.0185382217168808,-0.14641569554805756,1.0408375263214111,5.567117214202881,17.380033493041992,-17.379390716552734,-0.6029698252677917,-0.8219588994979858,-0.2459876984357834,-0.2286594808101654,0.3307287395000458,2.4175422191619873
202,3807055,3807056,-0.04724821075797081,-0.4951285421848297,1.0348546504974365,18.94512367248535,25.405786514282227,-15.022842407226562,-0.6194689869880676,-0.8264586329460144,-0.2654867172241211,-0.30728164315223694,0.5602959990501404,2.252190113067627
203,3807065,3807066,0.012637855485081673,-0.4200787842273712,1.027244210243225,25.635671615600586,17.369441986083984,-12.972370147705078,-0.616469144821167,-0.8234587907791138,-0.24148792028427124,-0.6586606502532959,0.7193968296051025,2.1022286415100098
204,3807075,3807076,-0.08230903744697571,0.04635106772184372,1.0883417129516602,28.638256072998047,13.111455917358398,-10.202080726623535,-0.6194689869880676,-0.8384580612182617,-0.25348731875419617,-0.6977483630180359,1.157712459564209,1.9820294380187988
205,3807085,3807086,-0.07646755129098892,-0.0262158140540123,0.9844845533370972,25.34307861328125,7.184156894683838,-6.182311534881592,-0.6209689378738403,-0.8339582681655884,-0.25198739767074585,-0.7339903712272644,1.3696024417877197,1.9066452980041504
206,3807095,3807096,-0.13440977036952972,0.03622289001941681,1.110287070274353,10.330445289611816,2.1828203201293945,-3.7605717182159424,-0.6014699339866638,-0.8264586329460144,-0.2474876195192337,-0.6834194660186768,1.5533084869384766,1.8675302267074585
207,3807105,3807106,-0.10105647146701813,-0.020516717806458473,1.0770312547683716,-8.979106903076172,-0.24127718806266785,-1.5309743881225586,-0.6344682574272156,-0.8354582190513611,-0.25048747658729553,-0.7216283082962036,1.5154269933700562,1.8390851020812988
208,3807115,3807116,-0.08073075115680695,0.02317928709089756,1.0348539352416992,-23.23850440979004,-6.647332668304443,0.8766657710075378,-0.5999699831008911,-0.8129593133926392,-0.25198739767074585,-0.6813392639160156,1.2183574438095093,1.8424180746078491
209,3807125,3807126,-0.0910642221570015,0.0004461911739781499,0.9224847555160522,-29.466447830200195,-9.590167999267578,4.657833576202393,-0.6044697761535645,-0.8204589486122131,-0.2474876195192337,-0.6513049006462097,1.054177165031433,1.8551244735717773
210,3807135,3807136,-0.06791339814662933,0.06790535897016525,0.9014644026756287,-30.655941009521484,-0.4368775486946106,6.822402477264404,-0.5954701900482178,-0.8174591064453125,-0.2564871609210968,-0.6084754467010498,0.7513349056243896,1.9084358215332031
211,3807145,3807146,-0.0028634737245738506,0.09431445598602295,1.0309547185897827,-26.910537719726562,9.06771469116211,6.570013046264648,-0.6269686222076416,-0.8159592151641846,-0.2459876984357834,-0.6376380324363708,0.42212656140327454,1.9770320653915405
212,3807155,3807156,-0.012936674058437347,0.033558573573827744,0.9753527641296387,-25.151975631713867,10.657659530639648,9.217889785766602,-0.6134693026542664,-0.8024598360061646,-0.24448777735233307,-0.6971453428268433,0.20730344951152802,2.067812442779541
213,3807165,3807166,0.04511002451181412,-0.21773560345172882,0.8893718123435974,-22.218442916870117,12.625761032104492,12.190752029418945,-0.6104694604873657,-0.8084595799446106,-0.24448777735233307,-0.9322330355644226,-0.11095918715000153,2.155508279800415
214,3807175,3807176,-0.05395108461380005,-0.151596799492836,0.9438817501068115,-22.210968017578125,11.637381553649902,11.849631309509277,-0.6179690957069397,-0.8129593133926392,-0.2459876984357834,-1.006064772605896,-0.19802474975585938,2.290187120437622
215,3807185,3807186,0.10841412097215652,0.08569566905498505,0.9484131336212158,-14.261443138122559,-3.389669179916382,12.642691612243652,-0.6194689869880676,-0.8084595799446106,-0.2384880781173706,-1.0830750465393066,-0.5020409226417542,2.4098563194274902
216,3807195,3807196,0.1202840805053711,0.2526232600212097,0.9247233867645264,-1.7279479503631592,-6.703336715698242,11.241275787353516,-0.6179690957069397,-0.8099594712257385,-0.23998799920082092,-1.0352857112884521,-0.551195502281189,2.53871488571167
217,3807205,3807206,0.1481543630361557,0.09380203485488892,0.8996604084968567,7.180684566497803,-14.28876781463623,8.640522956848145,-0.6179690957069397,-0.8159592151641846,-0.24298784136772156,-0.8535634279251099,-0.4944208264350891,2.6552486419677734
218,3807215,3807216,0.07311289757490158,-0.10954564064741135,0.9458852410316467,18.092912673950195,-23.748178482055664,7.328710079193115,-0.5984700918197632,-0.8204589486122131,-0.24448777735233307,-0.6132903099060059,-0.2943108081817627,2.7514755725860596
219,3807225,3807226,0.030733317136764526,-0.4378555119037628,0.9850848317146301,22.398887634277344,-18.317306518554688,5.173768043518066,-0.616469144821167,-0.8114594221115112,-0.24448777735233307,-0.5569349527359009,-0.1186915934085846,2.8105623722076416
220,3807235,3807236,0.04183732718229294,-0.22491875290870667,0.9808619022369385,19.048065185546875,-24.10879135131836,4.8442559242248535,-0.616469144821167,-0.8294585347175598,-0.2564871609210968,-0.1984516978263855,0.05754575505852699,2.865386724472046
221,3807245,3807246,0.019591934978961945,0.2688957452774048,1.0026862621307373,13.519328117370605,-14.791138648986816,4.719715118408203,-0.6059696674346924,-0.8219588994979858,-0.2579870820045471,-0.031004222109913826,0.29468411207199097,2.9142260551452637
222,3807255,3807256,0.023390771821141243,-0.09568964689970016,1.0574908256530762,-3.313778877258301,-9.476826667785645,3.214505672454834,-0.5954701900482178,-0.8354582190513611,-0.25348731875419617,0.16458261013031006,0.19800934195518494,2.952317476272583
223,3807265,3807266,-0.11567860096693039,-0.12142421305179596,1.0279415845870972,-14.124015808105469,2.0160515308380127,3.5928590297698975,-0.6119694113731384,-0.8249587416648865,-0.2459876984357834,0.07149399071931839,0.02431637793779373,2.9760828018188477
224,3807275,3807276,-0.10192474722862244,-0.05539233982563019,1.0656853914260864,-22.490083694458008,15.596599578857422,0.23164942860603333,-0.6089695692062378,-0.8159592151641846,-0.25198739767074585,-0.0778125748038292,-0.014295581728219986,3.000264883041382
225,3807285,3807286,-0.07517102360725403,-0.034726668149232864,1.0541136264801025,-18.120527267456055,18.73029899597168,1.1914221048355103,-0.5939702987670898,-0.8189590573310852,-0.24898754060268402,-0.211851105093956,-0.35323718190193176,3.0023930072784424
226,3807295,3807296,-0.1486595869064331,-0.15397615730762482,1.0058989524841309,-13.093708992004395,23.54098892211914,0.03835487365722656,-0.5939702987670898,-0.8009599447250366,-0.24898754060268402,-0.34959694743156433,-0.5325772762298584,3.0073280334472656
227,3807305,3807306,-0.10127519071102142,-0.08748286217451096,0.9933578372001648,-6.282881259918213,24.724292755126953,0.36025044322013855,-0.6014699339866638,-0.8024598360061646,-0.24148792028427124,-0.7536580562591553,-0.6105538606643677,3.006962537765503
228,3807315,3807316,-0.17256107926368713,-0.011525915004312992,1.0349535942077637,1.5643696784973145,28.330503463745117,1.2829731702804565,-0.6179690957069397,-0.8099594712257385,-0.24298784136772156,-1.1041333675384521,-0.6428239941596985,3.0087101459503174
229,3807325,3807326,-0.17179444432258606,-0.18663692474365234,1.0746147632598877,7.708652019500732,17.309642791748047,-0.27303463220596313,-0.616469144821167,-0.80545973777771,-0.2384880781173706,-1.2560937404632568,-0.5545795559883118,3.01418137550354
230,3807335,3807336,-0.06926681101322174,-0.6264061331748962,1.0446007251739502,14.513357162475586,10.189594268798828,0.21913251280784607,-0.6134693026542664,-0.8174591064453125,-0.25048747658729553,-1.3515585660934448,-0.37255457043647766,3.013198137283325
231,3807345,3807346,-0.0870765671133995,-0.4853796064853668,0.9348656535148621,20.116037368774414,-0.12249898910522461,0.44894155859947205,-0.6104694604873657,-0.80545973777771,-0.24448777735233307,-1.3696955442428589,-0.24451254308223724,3.010343074798584
232,3807355,3807356,-0.03644251823425293,-0.1550838053226471,0.9734603762626648,23.192522048950195,-9.464471817016602,-0.43566474318504333,-0.622468888759613,-0.8114594221115112,-0.24148792028427124,-1.2891731262207031,-0.10634281486272812,3.0076606273651123
233,3807365,3807366,-0.03039627894759178,-0.1405680924654007,0.9519603252410889,28.04766845703125,-16.55419158935547,3.1755542755126953,-0.622468888759613,-0.8114594221115112,-0.24448777735233307,-1.1401880979537964,0.23470807075500488,3.0223708152770996
234,3807375,3807376,0.006578956730663776,-0.02317587472498417,0.9284282922744751,31.3193302154541,-12.706482887268066,5.918202877044678,-0.6089695692062378,-0.8099594712257385,-0.2549872398376465,-1.0232497453689575,0.43046438694000244,3.051722526550293
235,3807385,3807386,0.050848159939050674,0.03749239817261696,1.0034501552581787,24.80353546142578,-6.148810863494873,6.75465202331543,-0.616469144821167,-0.8084595799446106,-0.25048747658729553,-0.8993018269538879,0.8875889778137207,3.12288498878479
236,3807395,3807396,0.03438570722937584,-0.26353564858436584,1.0250359773635864,13.428356170654297,-10.844648361206055,7.1775803565979,-0.6194689869880676,-0.7994599938392639,-0.2474876195192337,-0.9891791939735413,0.9174214601516724,3.178387403488159
237,3807405,3807406,-0.04230798780918121,-0.45899152755737305,0.8549501299858093,-0.5857887864112854,-17.556123733520508,7.382526397705078,-0.6104694604873657,-0.8204589486122131,-0.24148792028427124,-0.6447482705116272,0.882473349571228,3.2339577674865723
238,3807415,3807416,-0.19544097781181335,-0.545718789100647,0.6786425709724426,-8.141676902770996,-17.525991439819336,8.549626350402832,-0.6074696183204651,-0.8114594221115112,-0.25348731875419617,-0.4259621500968933,0.814922571182251,3.3020856380462646
239,3807425,3807426,-0.0767560675740242,-0.29409661889076233,0.8532650470733643,-10.176255226135254,-7.796755313873291,6.896454334259033,-0.6074696183204651,-0.8114594221115112,-0.25348731875419617,-0.22151966392993927,0.7371068000793457,3.3826005458831787
240,3807435,3807436,-0.044118549674749374,-0.15072622895240784,0.941936194896698,-4.667211532592773,-4.04892635345459,6.408930778503418,-0.6074696183204651,-0.8114594221115112,-0.25348731875419617,-0.12776637077331543,0.7552111148834229,3.4627859592437744
241,3807445,3807446,-0.027636956423521042,0.039135269820690155,0.896682858467102,3.0816707611083984,7.314723968505859,6.7174787521362305,-0.6014699339866638,-0.8084595799446106,-0.2474876195192337,-0.24715742468833923,0.733216404914856,3.52984356880188
242,3807455,3807456,-0.08722563087940216,-0.0603775829076767,0.9715070724487305,4.006554126739502,23.874603271484375,3.1207807064056396,-0.6194689869880676,-0.8234587907791138,-0.25048747658729553,-0.5117018818855286,0.7830172181129456,3.5863516330718994
243,3807465,3807466,0.03158397227525711,-0.590934693813324,0.6556930541992188,5.482173919677734,27.547414779663086,0.3012501895427704,-0.6074696183204651,-0.8264586329460144,-0.25348731875419617,-0.9025194644927979,0.7903829216957092,3.607144355773926
244,3807475,3807476,-0.13742773234844208,-0.300194650888443,0.9173370003700256,3.950014591217041,17.44847297668457,-0.503969132900238,-0.6119694113731384,-0.8159592151641846,-0.25198739767074585,-0.963455855846405,0.8000816106796265,3.615792751312256
245,3807485,3807486,-0.2077043503522873,0.013392440974712372,1.0799195766448975,-6.3787407875061035,8.020739555358887,-2.665862560272217,-0.6029698252677917,-0.8279585838317871,-0.2639867961406708,-1.117919921875,0.7899090647697449,3.6015355587005615
246,3807495,3807496,-0.12193930149078369,0.09518681466579437,1.051966905593872,-13.442011833190918,-0.6959449052810669,-5.144052982330322,-0.5969701409339905,-0.836958110332489,-0.2579870820045471,-1.1178661584854126,0.7651510238647461,3.576509952545166
247,3807505,3807506,-0.07184412330389023,0.14700570702552795,0.9576232433319092,-19.42055320739746,-7.005459308624268,-5.90696907043457,-0.6134693026542664,-0.8294585347175598,-0.2594870328903198,-1.0424069166183472,0.5641571283340454,3.525702714920044
248,3807515,3807516,-0.019059158861637115,0.13034607470035553,0.9840675592422485,-20.468090057373047,-16.928634643554688,-7.102567195892334,-0.5984700918197632,-0.8294585347175598,-0.26248687505722046,-0.8341889381408691,0.3071081042289734,3.4641451835632324
249,3807525,3807526,-0.02840529941022396,0.09173814207315445,0.9646244645118713,-14.407772064208984,-15.80750846862793,-7.461695671081543,-0.5894705057144165,-0.8114594221115112,-0.2594870328903198,-0.7670981884002686,0.022007877007126808,3.3704402446746826
250,3807535,3807536,-0.06295578926801682,-0.007367327343672514,1.0126686096191406,-8.765486717224121,-11.617462158203125,-8.883800506591797,-0.6029698252677917,-0.8309584259986877,-0.2579870820045471,-0.5144711136817932,-0.09114794433116913,3.2937817573547363
251,3807545,3807546,-0.09308083355426788,-0.11786293238401413,0.9259881377220154,-3.2332229614257812,-10.400619506835938,-7.487460613250732,-0.5954701900482178,-0.8174591064453125,-0.2594870328903198,-0.5298992395401001,0.033691830933094025,3.2173595428466797
252,3807555,3807556,-0.15920643508434296,-0.05151263624429703,1.0521574020385742,1.0616347789764404,-8.004240989685059,-6.919180393218994,-0.6089695692062378,-0.8339582681655884,-0.24898754060268402,-0.36924728751182556,-0.001300476724281907,3.1447811126708984
253,3807565,3807566,-0.09858434647321701,-0.1518794149160385,1.0011729001998901,4.63074254989624,-4.68344783782959,-9.171443939208984,-0.5954701900482178,-0.8204589486122131,-0.2564871609210968,-0.25829267501831055,0.033987611532211304,3.076389789581299
254,3807575,3807576,-0.006962886080145836,0.018582837656140327,1.003198504447937,7.963564872741699,-3.7807254791259766,-9.238543510437012,-0.6014699339866638,-0.8234587907791138,-0.25048747658729553,-0.18172721564769745,0.1280011683702469,2.9930076599121094
255,3807585,3807586,-0.08599194884300232,-0.08116565644741058,0.9246641397476196,12.11998176574707,-3.690701961517334,-9.926980018615723,-0.5924703478813171,-0.8234587907791138,-0.2594870328903198,-0.18839848041534424,0.20995274186134338,2.8985493183135986
256,3807595,3807596,-0.1584351658821106,0.13127891719341278,0.9876915812492371,11.625772476196289,1.0533503293991089,-11.527961730957031,-0.5999699831008911,-0.8279585838317871,-0.2579870820045471,-0.14342500269412994,0.32875192165374756,2.7978501319885254
257,3807605,3807606,-0.03051776811480522,0.09955012053251266,0.9993497729301453,8.356773376464844,0.7172242403030396,-10.783646583557129,-0.6179690957069397,-0.8309584259986877,-0.26098695397377014,-0.14049246907234192,0.41843587160110474,2.686696767807007
258,3807615,3807616,-0.03798844665288925,0.08167580515146255,0.9879616498947144,4.570030212402344,1.1451562643051147,-11.12525749206543,-0.6029698252677917,-0.8279585838317871,-0.2579870820045471,-0.149651899933815,0.5920824408531189,2.5761308670043945
259,3807625,3807626,-0.009195564314723015,0.07494379580020905,1.0052589178085327,-7.3629865646362305,-2.4477005004882812,-13.606677055358887,-0.616469144821167,-0.8174591064453125,-0.2594870328903198,-0.1965550035238266,0.4860039949417114,2.4499220848083496
260,3807635,3807636,-0.13693250715732574,-0.44309407472610474,1.0657662153244019,-22.334627151489258,-4.960024356842041,-13.394309997558594,-0.6014699339866638,-0.8264586329460144,-0.25348731875419617,-0.1262272447347641,0.4555680453777313,2.3151772022247314
261,3807645,3807646,-0.13821180164813995,-0.5724828839302063,0.9494317770004272,-28.37737274169922,-17.119136810302734,-10.755040168762207,-0.6014699339866638,-0.8204589486122131,-0.25048747658729553,-0.09479164332151413,0.030592285096645355,2.185032367706299
262,3807655,3807656,-0.2114577442407608,-0.5852632522583008,1.040406584739685,-28.482934951782227,-16.607345581054688,-10.201316833496094,-0.5969701409339905,-0.8099594712257385,-0.24898754060268402,0.18235990405082703,-0.09089560806751251,2.080986738204956
263,3807665,3807666,-0.1545107066631317,-0.18478362262248993,1.0789443254470825,-28.795400619506836,-19.34114646911621,-12.012506484985352,-0.5999699831008911,-0.8219588994979858,-0.2549872398376465,0.06078445166349411,-0.503870964050293,1.9730221033096313
264,3807675,3807676,-0.19006508588790894,-0.13512036204338074,1.0305852890014648,-21.054195404052734,-21.43376922607422,-11.76812744140625,-0.5849707126617432,-0.8189590573310852,-0.2459876984357834,0.4017380177974701,-0.784758448600769,1.8568495512008667
265,3807685,3807686,-0.12708887457847595,-0.06483785063028336,1.0268681049346924,-9.525369644165039,-6.20245361328125,-13.071876525878906,-0.5924703478813171,-0.8324583768844604,-0.25048747658729553,0.6406596899032593,-0.9118169546127319,1.731308102607727
266,3807695,3807696,-0.07502459734678268,-0.283725768327713,1.0068243741989136,2.088109016418457,-5.148213863372803,-14.530158042907715,-0.5909704566001892,-0.8129593133926392,-0.25198739767074585,0.6300796270370483,-0.9146720170974731,1.594359040260315
267,3807705,3807706,-0.06025968864560127,-0.19760802388191223,1.033307671546936,15.102404594421387,12.934165954589844,-14.254754066467285,-0.5984700918197632,-0.8084595799446106,-0.2474876195192337,0.5518192052841187,-0.7938318252563477,1.4456872940063477
268,3807715,3807716,0.017317844554781914,-0.032127462327480316,0.9563778042793274,21.6011962890625,22.680404663085938,-16.226043701171875,-0.5999699831008911,-0.8219588994979858,-0.24898754060268402,0.335368812084198,-0.5807124972343445,1.3020251989364624
269,3807725,3807726,0.08311200886964798,-0.18540596961975098,0.9363918900489807,29.32779884338379,23.643592834472656,-13.422144889831543,-0.6074696183204651,-0.8174591064453125,-0.25048747658729553,0.16138288378715515,-0.3224170207977295,1.1427091360092163
270,3807735,3807736,0.034190624952316284,-0.013080339878797531,0.9627943634986877,26.598352432250977,25.987279891967773,-12.256319999694824,-0.6119694113731384,-0.8129593133926392,-0.2459876984357834,-0.14194932579994202,-0.08749131858348846,1.0156346559524536
271,3807745,3807746,0.043715864419937134,-0.0244307741522789,0.9401236772537231,19.63920021057129,28.388521194458008,-11.01368236541748,-0.6134693026542664,-0.8174591064453125,-0.24148792028427124,-0.4578802287578583,0.13716532289981842,0.9001642465591431
272,3807755,3807756,0.030485857278108597,0.016176605597138405,1.0267590284347534,10.192373275756836,14.148702621459961,-7.709786891937256,-0.6299684643745422,-0.8099594712257385,-0.24898754060268402,-0.6021279692649841,0.31409063935279846,0.7931841611862183
273,3807765,3807766,-0.026906587183475494,-0.025746872648596764,1.0913100242614746,-3.714958667755127,5.560401439666748,-5.241244792938232,-0.623968780040741,-0.8069596290588379,-0.23998799920082092,-0.6636347770690918,0.36102283000946045,0.720378041267395
274,3807775,3807776,-0.09025371074676514,-0.04454100877046585,0.958737850189209,-15.434684753417969,-12.570188522338867,-3.6115260124206543,-0.6209689378738403,-0.8219588994979858,-0.24898754060268402,-0.5795857906341553,0.19444513320922852,0.6722906827926636
275,3807785,3807786,-0.06312549859285355,0.11784157156944275,1.0503945350646973,-23.714704513549805,-24.235647201538086,-1.7645238637924194,-0.6119694113731384,-0.8159592151641846,-0.24298784136772156,-0.4004385769367218,0.017745869234204292,0.6354257464408875
276,3807795,3807796,-0.10157545655965805,-0.056097935885190964,1.0268263816833496,-29.90535545349121,-34.73563766479492,-3.328251361846924,-0.5999699831008911,-0.8159592151641846,-0.2459876984357834,-0.03611993417143822,-0.2836090624332428,0.6107147336006165
277,3807805,3807806,-0.09612418711185455,-0.22195085883140564,0.9972805380821228,-23.321462631225586,-47.7635612487793,-2.868924617767334,-0.5864706635475159,-0.80545973777771,-0.2384880781173706,0.23132304847240448,-0.4431220293045044,0.5787301659584045
278,3807815,3807816,-0.05453392490744591,-0.02979736402630806,1.0505999326705933,-10.965141296386719,-41.6475944519043,-2.359415054321289,-0.5999699831008911,-0.8099594712257385,-0.24298784136772156,0.8542965650558472,-0.6689354777336121,0.5470706224441528
279,3807825,3807826,-0.015449916012585163,-0.007513299584388733,0.9917629361152649,3.2120044231414795,-23.343652725219727,-2.0835037231445312,-0.5819708704948425,-0.8159592151641846,-0.2459876984357834,1.2912085056304932,-0.7477900385856628,0.5282700061798096
280,3807835,3807836,-0.11153161525726318,0.10924769192934036,0.9806030988693237,13.23283576965332,-8.960114479064941,0.17088064551353455,-0.5939702987670898,-0.8189590573310852,-0.25198739767074585,1.1846041679382324,-0.6913691163063049,0.5390739440917969
281,3807845,3807846,-0.013953660614788532,0.2051987648010254,0.9546171426773071,17.0091495513916,11.518531799316406,-2.96484637260437,-0.6029698252677917,-0.8189590573310852,-0.2459876984357834,1.2228753566741943,-0.4476476311683655,0.524013102054596
282,3807855,3807856,0.06267324835062027,0.14654840528964996,0.9643529057502747,18.70226287841797,16.62617301940918,-3.599357843399048,-0.5984700918197632,-0.8294585347175598,-0.23548822104930878,1.082468867301941,-0.37118980288505554,0.5087822675704956
283,3807865,3807866,0.022497262805700302,0.08930543810129166,0.9382199048995972,12.071954727172852,26.776607513427734,-5.933943271636963,-0.6059696674346924,-0.8309584259986877,-0.2369881421327591,0.736226499080658,-0.1114811897277832,0.46384960412979126
284,3807875,3807876,0.06039716303348541,-0.05467269569635391,1.0453771352767944,4.269733905792236,26.222192764282227,-11.747946739196777,-0.6044697761535645,-0.8294585347175598,-0.2474876195192337,0.5501118302345276,-0.11914872378110886,0.4027394950389862
285,3807885,3807886,0.017545809969305992,-0.30493274331092834,0.9392231702804565,2.2058513164520264,19.42383575439453,-13.454573631286621,-0.6074696183204651,-0.8234587907791138,-0.25348731875419617,0.41082772612571716,-0.06429073959589005,0.27438274025917053
286,3807895,3807896,-0.05398544669151306,-0.03208903968334198,0.8614560961723328,1.4085201025009155,16.660079956054688,-12.654584884643555,-0.5999699831008911,-0.8309584259986877,-0.2549872398376465,0.26175305247306824,-0.030989009886980057,0.1385263055562973
287,3807905,3807906,-0.08537189662456512,0.22175286710262299,1.0250451564788818,-2.8292763233184814,9.478888511657715,-13.622429847717285,-0.6044697761535645,-0.8234587907791138,-0.2594870328903198,0.05633136257529259,-0.04724096134305,0.014011078514158726
288,3807915,3807916,0.04050372168421745,-0.33864814043045044,0.979526937007904,-4.180276870727539,1.6630568504333496,-13.291213989257812,-0.6074696183204651,-0.8204589486122131,-0.2594870328903198,0.001911908620968461,-0.10021894425153732,-0.11777716130018234
289,3807925,3807926,0.056846488267183304,-0.1845483034849167,0.892556369304657,2.5801663398742676,-9.650874137878418,-11.385871887207031,-0.5984700918197632,-0.8234587907791138,-0.25048747658729553,0.10731837153434753,-0.10286860913038254,-0.2523796260356903
290,3807935,3807936,0.08059293031692505,-0.19378317892551422,0.9095533490180969,7.365177631378174,-11.479479789733887,-8.597532272338867,-0.6044697761535645,-0.8354582190513611,-0.2594870328903198,0.23517271876335144,-0.02267632819712162,-0.366940975189209
291,3807945,3807946,-0.022152837365865707,-0.10433696210384369,1.0837993621826172,11.944939613342285,-2.8503293991088867,-7.3347649574279785,-0.5909704566001892,-0.8489575386047363,-0.28198590874671936,0.3177624046802521,0.12948289513587952,-0.4597475826740265
292,3807955,3807956,0.10655271261930466,-0.36745646595954895,1.0393826961517334,10.897456169128418,-1.7554360628128052,-6.738034248352051,-0.5999699831008911,-0.8459576964378357,-0.2669866383075714,0.3237142264842987,0.17646390199661255,-0.5170078873634338
293,3807965,3807966,-0.027055226266384125,-0.13158369064331055,0.9920480251312256,10.477043151855469,-3.499391555786133,-6.339694976806641,-0.6029698252677917,-0.8429578542709351,-0.24898754060268402,0.3992913067340851,0.3674027621746063,-0.591529130935669
294,3807975,3807976,-0.04150508716702461,-0.18682564795017242,0.9668269753456116,2.046379804611206,5.03880500793457,-7.775022029876709,-0.6014699339866638,-0.8354582190513611,-0.2594870328903198,0.402431458234787,0.322258859872818,-0.6385313868522644
295,3807985,3807986,-0.10895580798387527,-0.059875812381505966,1.0515024662017822,-6.904761791229248,15.684524536132812,-10.925385475158691,-0.5909704566001892,-0.8399580121040344,-0.2549872398376465,0.2711772620677948,0.3579068183898926,-0.7247350811958313
296,3807995,3807996,0.04008372873067856,-0.4144800007343292,1.0348923206329346,-11.719056129455566,16.325551986694336,-12.841021537780762,-0.5969701409339905,-0.8429578542709351,-0.2549872398376465,0.0577106811106205,0.2105686366558075,-0.8271011710166931
297,3808005,3808006,-0.027372654527425766,-0.2855685353279114,1.0163755416870117,-8.005969047546387,18.010345458984375,-12.05446720123291,-0.5834708213806152,-0.844457745552063,-0.25048747658729553,-0.18764951825141907,0.1262853890657425,-0.9522448778152466
298,3808015,3808016,-0.07866628468036652,-0.2566263675689697,0.9994235634803772,-3.8693394660949707,20.235347747802734,-11.605183601379395,-0.6014699339866638,-0.8324583768844604,-0.2564871609210968,-0.39414137601852417,0.0998057872056961,-1.0759522914886475
299,3808025,3808026,0.022057946771383286,-0.22055566310882568,1.0232406854629517,-1.226090908050537,26.88475227355957,-9.8065824508667,-0.6044697761535645,-0.8384580612182617,-0.26848655939102173,-0.2954612970352173,0.049429140985012054,-1.1929059028625488
300,3808035,3808036,-0.005685831885784864,-0.21357300877571106,1.1284308433532715,8.510570526123047,19.49441146850586,-10.714439392089844,-0.6089695692062378,-0.8339582681655884,-0.2639867961406708,-0.6327322721481323,0.10726694762706757,-1.2936937808990479
301,3808045,3808046,-0.10567128658294678,-0.23315086960792542,1.066843867301941,10.72822380065918,5.7708024978637695,-8.937654495239258,-0.6044697761535645,-0.844457745552063,-0.2564871609210968,-0.7397629022598267,0.255540668964386,-1.4019869565963745
302,3808055,3808056,-0.18466612696647644,-0.16113586723804474,1.1395984888076782,11.161559104919434,0.5197349786758423,-8.691514015197754,-0.6134693026542664,-0.8384580612182617,-0.2564871609210968,-0.7157276272773743,0.3483608663082123,-1.4965983629226685
303,3808065,3808066,-0.17594893276691437,0.03612593188881874,1.133902668952942,10.29765796661377,-11.035383224487305,-7.994690418243408,-0.6059696674346924,-0.8339582681655884,-0.2549872398376465,-0.6345890760421753,0.44259193539619446,-1.585796594619751
304,3808075,3808076,-0.13853836059570312,-0.028566639870405197,1.0736932754516602,5.054940700531006,-12.844940185546875,-8.215734481811523,-0.6059696674346924,-0.8429578542709351,-0.27298635244369507,-0.4457167088985443,0.49063172936439514,-1.667291522026062
305,3808085,3808086,-0.08125083893537521,-0.0762995257973671,1.0368613004684448,2.293869972229004,-24.427799224853516,-8.631658554077148,-0.6179690957069397,-0.8309584259986877,-0.24898754060268402,-0.2153329700231552,0.5527496337890625,-1.745832920074463
306,3808095,3808096,-0.09304455667734146,-0.0008692899718880653,1.0157058238983154,-1.991936206817627,-24.692203521728516,-5.960484981536865,-0.6074696183204651,-0.8294585347175598,-0.25348731875419617,0.03207254037261009,0.5550626516342163,-1.823276162147522
307,3808105,3808106,-0.0011857396457344294,0.05937379226088524,0.9510532021522522,-9.500274658203125,-18.675495147705078,-5.004201412200928,-0.6029698252677917,-0.8309584259986877,-0.24898754060268402,0.11045864224433899,0.4572563171386719,-1.8856817483901978
308,3808115,3808116,-0.17369791865348816,0.11435649544000626,1.0899852514266968,-13.556291580200195,-7.199819087982178,-5.350915431976318,-0.6119694113731384,-0.8249587416648865,-0.2669866383075714,0.33298903703689575,0.3431917726993561,-1.9331560134887695
309,3808125,3808126,-0.07415661960840225,-0.01439950056374073,0.9967920184135437,-15.358675956726074,-6.902390956878662,-1.7243403196334839,-0.6179690957069397,-0.8159592151641846,-0.2459876984357834,0.37129348516464233,0.2553064823150635,-1.9757684469223022
310,3808135,3808136,-0.010164092294871807,-0.0176625307649374,1.0139750242233276,-14.88056468963623,1.4072730541229248,-2.1209681034088135,-0.6059696674346924,-0.8129593133926392,-0.2459876984357834,0.4038909077644348,0.1437249481678009,-1.9945712089538574
311,3808145,3808146,-0.07777609676122665,-0.1364588737487793,1.1230589151382446,-13.08349323272705,2.189952850341797,-4.278812408447266,-0.6059696674346924,-0.8189590573310852,-0.24898754060268402,0.3020017743110657,0.051059793680906296,-2.022787570953369
312,3808155,3808156,-0.06368130445480347,-0.4445851147174835,1.0288583040237427,-7.053565979003906,-1.4861136674880981,-4.622416973114014,-0.6104694604873657,-0.8174591064453125,-0.2384880781173706,0.29316505789756775,-0.13112100958824158,-2.0589308738708496
313,3808165,3808166,-0.051092665642499924,-0.10264018923044205,1.1102186441421509,10.078482627868652,6.847486972808838,-3.1933536529541016,-0.6149692535400391,-0.8249587416648865,-0.23998799920082092,0.30193018913269043,-0.11867319792509079,-2.103745222091675
314,3808175,3808176,-0.11849081516265869,-0.4159190058708191,1.0572714805603027,24.232799530029297,9.171745300292969,-1.8792012929916382,-0.6209689378738403,-0.8189590573310852,-0.24298784136772156,0.3015698492527008,0.1443198025226593,-2.1379849910736084
315,3808185,3808186,-0.10978638380765915,-0.21877989172935486,1.0705773830413818,35.27095413208008,16.434797286987305,0.8862225413322449,-0.6119694113731384,-0.8249587416648865,-0.24898754060268402,0.07177750766277313,0.3993493318557739,-2.1478090286254883
316,3808195,3808196,-0.10096853226423264,-0.2296396940946579,0.9991679787635803,30.441486358642578,18.40719223022461,1.6229544878005981,-0.6254687309265137,-0.8264586329460144,-0.25348731875419617,-0.09301808476448059,0.65528804063797,-2.123455286026001
317,3808205,3808206,-0.07805981487035751,-0.38655194640159607,0.9430466890335083,12.074483871459961,13.789691925048828,0.13355691730976105,-0.6269686222076416,-0.8339582681655884,-0.25198739767074585,-0.23879030346870422,0.9956693053245544,-2.10697603225708
318,3808215,3808216,-0.11236804723739624,-0.3735407888889313,0.9557313323020935,-4.668769836425781,-5.372157573699951,-1.3647211790084839,-0.6149692535400391,-0.8309584259986877,-0.2549872398376465,-0.4068746268749237,1.0375646352767944,-2.1074469089508057
319,3808225,3808226,-0.06564304977655411,-0.34840771555900574,0.963365375995636,-19.657730102539062,-18.60173988342285,-2.9698326587677,-0.6194689869880676,-0.8264586329460144,-0.26248687505722046,-0.16262654960155487,0.8879294395446777,-2.116023540496826
320,3808235,3808236,-0.0005638900329358876,0.13078297674655914,1.122576355934143,-27.845218658447266,-30.073251724243164,-5.651600360870361,-0.6104694604873657,-0.8234587907791138,-0.2594870328903198,0.15997406840324402,0.6278179287910461,-2.1476552486419678
321,3808245,3808246,0.11480095237493515,0.1396951973438263,0.9610645771026611,-28.21306610107422,-47.25492477416992,-7.898073673248291,-0.6044697761535645,-0.8174591064453125,-0.25348731875419617,0.37812235951423645,0.3822399079799652,-2.2181034088134766
322,3808255,3808256,0.03510240092873573,0.10419563204050064,0.9493603110313416,-22.521947860717773,-52.04893112182617,-6.765035629272461,-0.5984700918197632,-0.8144592642784119,-0.25348731875419617,0.9742175936698914,0.02974012866616249,-2.2802658081054688
323,3808265,3808266,-0.04139335826039314,0.08523747324943542,0.9796714186668396,-18.2791805267334,-35.125022888183594,-5.906682014465332,-0.5984700918197632,-0.8144592642784119,-0.25348731875419617,1.4432352781295776,-0.23387575149536133,-2.3432114124298096
324,3808275,3808276,-0.04700547456741333,-0.05543401837348938,0.9700295329093933,-13.93363094329834,-14.528843879699707,-7.003663539886475,-0.5984700918197632,-0.8144592642784119,-0.25348731875419617,1.6085399389266968,-0.2214716225862503,-2.4292261600494385
325,3808285,3808286,-0.22107155621051788,-0.16140247881412506,1.0312124490737915,-4.116220474243164,2.7343568801879883,-7.017594337463379,-0.5984700918197632,-0.8144592642784119,-0.25348731875419617,1.6298884153366089,-0.3984498679637909,-2.499800682067871
326,3808295,3808296,-0.13049031794071198,-0.05716397985816002,0.9612078666687012,-2.25921893119812,25.452695846557617,-9.365823745727539,-0.6149692535400391,-0.8189590573310852,-0.2549872398376465,1.422336220741272,-0.46675002574920654,-2.5784692764282227
327,3808305,3808306,-0.139475017786026,-0.32507380843162537,0.9877143502235413,-1.7782514095306396,28.309602737426758,-8.415266036987305,-0.6074696183204651,-0.8024598360061646,-0.2474876195192337,1.2382690906524658,-0.44181153178215027,-2.675055503845215
328,3808315,3808316,-0.011694777756929398,-0.09638705104589462,0.92319256067276,-2.608135461807251,34.0200080871582,-7.648289680480957,-0.6149692535400391,-0.8099594712257385,-0.26098695397377014,0.9399185180664062,-0.41771894693374634,-2.766911506652832
329,3808325,3808326,-0.05014079436659813,-0.0026626507751643658,1.100024938583374,-4.985881328582764,36.51335144042969,-9.868265151977539,-0.623968780040741,-0.8129593133926392,-0.24898754060268402,0.5503889322280884,-0.41957151889801025,-2.8535025119781494
330,3808335,3808336,-0.07192530483007431,-0.2589159607887268,1.006593108177185,1.4933278560638428,21.362564086914062,-9.671140670776367,-0.622468888759613,-0.8084595799446106,-0.25048747658729553,0.2500292658805847,-0.39728352427482605,-2.9589571952819824
331,3808345,3808346,-0.2323247790336609,-0.5394904613494873,1.0636183023452759,8.81779956817627,3.1905205249786377,-6.558852672576904,-0.6149692535400391,-0.8219588994979858,-0.2459876984357834,0.20251066982746124,-0.3365963399410248,-3.0581395626068115
332,3808355,3808356,-0.3156489133834839,-0.5637378096580505,1.1330450773239136,12.750785827636719,3.8101859092712402,-4.717657089233398,-0.6149692535400391,-0.8249587416648865,-0.26098695397377014,0.1772886961698532,-0.2612014412879944,-3.1260828971862793
333,3808365,3808366,-0.18033652007579803,-0.019429074600338936,1.0898936986923218,12.046477317810059,4.957979202270508,-1.8520944118499756,-0.6179690957069397,-0.8129593133926392,-0.24898754060268402,0.11492373049259186,-0.1560709923505783,-3.1678178310394287
334,3808375,3808376,-0.0314229391515255,-0.17747436463832855,1.0067263841629028,10.886863708496094,11.317075729370117,4.034478664398193,-0.6089695692062378,-0.8159592151641846,-0.2459876984357834,0.08566024899482727,-0.07089609652757645,-3.1712207794189453
335,3808385,3808386,-0.05360536649823189,-0.6134434938430786,1.0690213441848755,10.419795036315918,20.429920196533203,11.154105186462402,-0.622468888759613,-0.8174591064453125,-0.24148792028427124,-0.13244445621967316,0.08503556996583939,-3.1137592792510986
336,3808395,3808396,0.06477279961109161,-0.2994519770145416,0.929634153842926,9.764883995056152,21.78001594543457,17.259523391723633,-0.6209689378738403,-0.8159592151641846,-0.23398829996585846,-0.32813090085983276,0.23830920457839966,-2.989225387573242
337,3808405,3808406,0.01677544414997101,0.07395841926336288,0.900800347328186,2.554178237915039,9.821260452270508,21.643646240234375,-0.6209689378738403,-0.8129593133926392,-0.24298784136772156,-0.4740660488605499,0.31827667355537415,-2.8027074337005615
338,3808415,3808416,0.00015791204350534827,0.09439574182033539,0.8960014581680298,-7.331381797790527,-5.023996353149414,23.096965789794922,-0.6284685730934143,-0.8144592642784119,-0.2294885218143463,-0.4668688178062439,0.2580777704715729,-2.582834243774414
339,3808425,3808426,-0.06460896134376526,0.27271604537963867,1.0943950414657593,-14.625692367553711,-10.196124076843262,23.137985229492188,-0.6074696183204651,-0.8144592642784119,-0.24448777735233307,-0.3462534248828888,0.1319590061903,-2.353893518447876
340,3808435,3808436,0.05283942073583603,-0.06263943016529083,0.9917340278625488,-16.3785457611084,-14.25843334197998,22.572229385375977,-0.6209689378738403,-0.8189590573310852,-0.2459876984357834,-0.21358121931552887,0.009353161789476871,-2.119713544845581
341,3808445,3808446,0.07105983048677444,-0.10119704157114029,0.9642727375030518,-12.055176734924316,-18.990005493164062,22.814136505126953,-0.6029698252677917,-0.8159592151641846,-0.2639867961406708,-0.03653248772025108,-0.22868221998214722,-1.8815422058105469
342,3808455,3808456,-0.04971509054303169,-0.3955381512641907,0.9245378375053406,-8.739242553710938,-14.071197509765625,20.165084838867188,-0.616469144821167,-0.8174591064453125,-0.24448777735233307,0.1250886619091034,-0.3368391692638397,-1.6544301509857178
343,3808465,3808466,-0.12637490034103394,-0.7755684852600098,1.0959248542785645,-6.7421345710754395,-9.78176498413086,16.570213317871094,-0.6104694604873657,-0.8294585347175598,-0.25048747658729553,0.22375644743442535,-0.4054567515850067,-1.4574130773544312
344,3808475,3808476,-0.0970303937792778,-0.43844687938690186,1.0782792568206787,0.45761972665786743,5.430357456207275,15.699788093566895,-0.6044697761535645,-0.8174591064453125,-0.24448777735233307,0.218785360455513,-0.46399986743927,-1.2868016958236694
345,3808485,3808486,-0.18506690859794617,-0.0035565015859901905,1.0492531061172485,6.005407810211182,11.852517127990723,13.804191589355469,-0.5999699831008911,-0.8159592151641846,-0.24898754060268402,0.18171048164367676,-0.42568057775497437,-1.139753818511963
346,3808495,3808496,-0.10478401184082031,-0.012841562740504742,1.078485131263733,8.646782875061035,23.05818748474121,8.832051277160645,-0.6089695692062378,-0.8219588994979858,-0.2459876984357834,-0.08692275732755661,-0.38319021463394165,-1.0089675188064575
347,3808505,3808506,-0.08667698502540588,-0.2781018018722534,0.980941653251648,12.38071060180664,16.227964401245117,5.565038204193115,-0.6134693026542664,-0.8204589486122131,-0.24448777735233307,-0.31186777353286743,-0.2126108705997467,-0.9268302321434021
348,3808515,3808516,-0.07971274107694626,-0.25520259141921997,0.9538947939872742,14.488471031188965,14.889034271240234,1.2150641679763794,-0.6104694604873657,-0.8174591064453125,-0.2564871609210968,-0.3940698504447937,-0.012342442758381367,-0.8848275542259216
349,3808525,3808526,-0.09642929583787918,-0.01931288279592991,1.085504174232483,18.531982421875,15.206360816955566,-4.4123616218566895,-0.623968780040741,-0.8219588994979858,-0.26098695397377014,-0.6609237790107727,0.2314249724149704,-0.8768553733825684
350,3808535,3808536,0.006144652608782053,0.04683700576424599,0.9692967534065247,24.10144805908203,5.386439800262451,-6.763917922973633,-0.6194689869880676,-0.8294585347175598,-0.25048747658729553,-0.6282961964607239,0.34351789951324463,-0.9273700714111328
351,3808545,3808546,0.01063301507383585,0.06481793522834778,0.9948951601982117,26.08365821838379,0.19625921547412872,-7.000851631164551,-0.6209689378738403,-0.851957380771637,-0.26098695397377014,-0.697529673576355,0.5837641954421997,-0.9924213290214539
352,3808555,3808556,-0.05536272004246712,-0.04748617112636566,0.9978935122489929,27.486913681030273,-3.460466146469116,-6.576402187347412,-0.6179690957069397,-0.8249587416648865,-0.26098695397377014,-0.6964882016181946,0.9267317652702332,-1.0609750747680664
353,3808565,3808566,-0.11542997509241104,-0.26188141107559204,1.0549534559249878,20.571104049682617,-7.77130651473999,-4.912967205047607,-0.6119694113731384,-0.8279585838317871,-0.27298635244369507,-0.6211127638816833,1.0875383615493774,-1.131730318069458
354,3808575,3808576,-0.06891508400440216,-0.1854371279478073,0.9534362554550171,3.6605851650238037,-8.220396041870117,-3.7679555416107178,-0.622468888759613,-0.8414579033851624,-0.2594870328903198,-0.5048399567604065,1.2719042301177979,-1.1804622411727905
355,3808585,3808586,-0.09481223672628403,-0.05192733556032181,1.072481393814087,-13.10549259185791,-2.5801875591278076,-4.035378456115723,-0.6134693026542664,-0.8354582190513611,-0.25348731875419617,-0.43829789757728577,1.1739979982376099,-1.2263456583023071
356,3808595,3808596,-0.04155683144927025,-0.12627895176410675,0.9205042123794556,-29.709888458251953,5.113473415374756,-6.158415794372559,-0.6089695692062378,-0.8339582681655884,-0.2579870820045471,-0.4868653416633606,0.8159157633781433,-1.2845525741577148
357,3808605,3808606,-0.2237154245376587,-0.1570611298084259,1.200241208076477,-42.82688903808594,6.33935022354126,-9.661301612854004,-0.6059696674346924,-0.836958110332489,-0.2579870820045471,-0.6198059916496277,0.638153076171875,-1.346463680267334
358,3808615,3808616,-0.22086234390735626,-0.43669700622558594,0.9776151776313782,-46.29212951660156,13.45484447479248,-12.382817268371582,-0.6179690957069397,-0.8429578542709351,-0.2579870820045471,-0.7535659074783325,0.09443659335374832,-1.4573771953582764
359,3808625,3808626,-0.07480048388242722,-0.06869535893201828,1.0287443399429321,-40.582969665527344,10.892224311828613,-14.422364234924316,-0.6254687309265137,-0.8294585347175598,-0.2594870328903198,-0.8443565964698792,-0.42333072423934937,-1.5863349437713623
360,3808635,3808636,-0.0526699423789978,-0.041674062609672546,1.00714910030365,-21.17131996154785,6.004550457000732,-13.515348434448242,-0.622468888759613,-0.8264586329460144,-0.25048747658729553,-0.8083732724189758,-0.4510447382926941,-1.6889210939407349
361,3808645,3808646,-0.2533388137817383,-0.5527592301368713,1.1179180145263672,1.0120209455490112,-9.488740921020508,-13.511204719543457,-0.6284685730934143,-0.8234587907791138,-0.25048747658729553,-0.8319029808044434,-0.5954815745353699,-1.8234729766845703
362,3808655,3808656,-0.3281828761100769,-0.8118016123771667,1.2045572996139526,21.70626449584961,-9.93941593170166,-12.310766220092773,-0.622468888759613,-0.8204589486122131,-0.24148792028427124,-0.7136420607566833,-0.45779088139533997,-1.9504976272583008
363,3808665,3808666,-0.20499220490455627,-0.38120418787002563,1.0864782333374023,30.256317138671875,-3.0581142902374268,-13.383667945861816,-0.6254687309265137,-0.8144592642784119,-0.2564871609210968,-0.6881887912750244,-0.07339998334646225,-2.0618107318878174
364,3808675,3808676,-0.11420393735170364,-0.287218302488327,1.1443696022033691,32.56122970581055,-2.9499025344848633,-15.284051895141602,-0.6449677348136902,-0.8339582681655884,-0.2549872398376465,-0.6333000659942627,0.24683499336242676,-2.199557065963745
365,3808685,3808686,-0.12602965533733368,-0.4400736391544342,1.1694632768630981,27.99018669128418,2.4639811515808105,-16.263822555541992,-0.6284685730934143,-0.8264586329460144,-0.2474876195192337,-0.7047465443611145,0.5425373911857605,-2.3567285537719727
366,3808695,3808696,-0.09914624691009521,-0.4301368296146393,1.1502418518066406,22.096450805664062,6.555060386657715,-15.938546180725098,-0.6254687309265137,-0.8294585347175598,-0.2564871609210968,-0.7092551589012146,0.8240100741386414,-2.5157477855682373
367,3808705,3808706,-0.07756835222244263,-0.14896154403686523,1.0194737911224365,8.752723693847656,9.504777908325195,-14.922088623046875,-0.6479675769805908,-0.8189590573310852,-0.25198739767074585,-0.7789139747619629,0.8900788426399231,-2.689690351486206
368,3808715,3808716,-0.07882513105869293,-0.02072870545089245,1.0398705005645752,-9.3956880569458,12.640115737915039,-12.5603609085083,-0.6374680995941162,-0.8174591064453125,-0.24448777735233307,-0.8995288014411926,0.8473759889602661,-2.845423698425293
369,3808725,3808726,-0.07090146839618683,-0.09285615384578705,0.9769142270088196,-26.943967819213867,10.201988220214844,-10.596202850341797,-0.6404679417610168,-0.8144592642784119,-0.24448777735233307,-0.957014799118042,0.654282808303833,-2.971327543258667
370,3808735,3808736,-0.0559706948697567,-0.10671068727970123,1.0154433250427246,-40.18943786621094,7.615488052368164,-8.600592613220215,-0.6389680504798889,-0.8099594712257385,-0.24298784136772156,-1.1099061965942383,0.4231764078140259,-3.0641582012176514
371,3808745,3808746,-0.05802757292985916,-0.05256296694278717,1.000404953956604,-45.796607971191406,4.170016765594482,-7.923020839691162,-0.6284685730934143,-0.7934603095054626,-0.24148792028427124,-1.2166306972503662,-0.11652415245771408,-3.168656826019287
372,3808755,3808756,-0.11257211118936539,-0.35487717390060425,1.0556676387786865,-45.93395233154297,-3.3437421321868896,-5.772045135498047,-0.623968780040741,-0.797960102558136,-0.23098844289779663,-1.1666579246520996,-0.2705545425415039,-3.1910407543182373
373,3808765,3808766,-0.15120378136634827,-0.32248738408088684,1.0742237567901611,-43.16754150390625,-12.544903755187988,-2.780623435974121,-0.622468888759613,-0.7964601516723633,-0.2384880781173706,-1.0658913850784302,-0.7782468795776367,-3.2459685802459717
374,3808775,3808776,-0.19084866344928741,-0.43938642740249634,0.9911007881164551,-37.327110290527344,-17.122974395751953,-0.6112481355667114,-0.6284685730934143,-0.7874606251716614,-0.23548822104930878,-0.9115502834320068,-1.1545888185501099,-3.2586543560028076
375,3808785,3808786,-0.10622193664312363,-0.07481616735458374,1.044443964958191,-24.29816436767578,-18.913326263427734,0.17296764254570007,-0.622468888759613,-0.7994599938392639,-0.2384880781173706,-0.7556890845298767,-1.5903654098510742,-3.2727692127227783
376,3808795,3808796,0.005956233013421297,-0.10208284109830856,0.9622095227241516,-7.004672527313232,-9.502419471740723,2.1697940826416016,-0.622468888759613,-0.7994599938392639,-0.2294885218143463,-0.49012255668640137,-1.6246209144592285,-3.2337896823883057
377,3808805,3808806,-0.020228160545229912,-0.057234324514865875,0.9972854256629944,10.4484224319458,-6.601783275604248,5.844858646392822,-0.622468888759613,-0.7964601516723633,-0.22648866474628448,-0.35769280791282654,-1.586188554763794,-3.1902990341186523
378,3808815,3808816,-0.05468479171395302,0.007241057697683573,0.9482772350311279,24.39539909362793,2.218999147415161,8.73469066619873,-0.6299684643745422,-0.8099594712257385,-0.23398829996585846,-0.3433953523635864,-1.3614428043365479,-3.1090712547302246
379,3808825,3808826,-0.23196208477020264,-0.3848437964916229,1.0187385082244873,28.5274715423584,9.283763885498047,11.269707679748535,-0.623968780040741,-0.8069596290588379,-0.2459876984357834,-0.3825215697288513,-1.137186884880066,-3.0220284461975098
380,3808835,3808836,-0.17763268947601318,-0.4153372347354889,1.006900668144226,23.38101577758789,16.674484252929688,13.387201309204102,-0.6359682083129883,-0.8129593133926392,-0.2459876984357834,-0.5930772423744202,-0.8381928205490112,-2.8906872272491455
381,3808845,3808846,-0.08419140428304672,-0.07967124879360199,0.9366835355758667,12.837890625,23.669086456298828,13.986517906188965,-0.6209689378738403,-0.836958110332489,-0.2579870820045471,-0.851174533367157,-0.5997541546821594,-2.7460215091705322
382,3808855,3808856,-0.031936224550008774,-0.13640423119068146,0.9714990258216858,-3.064119338989258,27.549285888671875,13.359811782836914,-0.6299684643745422,-0.8189590573310852,-0.2459876984357834,-0.9771625399589539,-0.6427837014198303,-2.6449499130249023
383,3808865,3808866,-0.1610863357782364,-0.5210410356521606,0.9671518802642822,-19.914466857910156,23.617876052856445,10.125204086303711,-0.616469144821167,-0.8144592642784119,-0.2474876195192337,-1.2574968338012695,-0.7331548929214478,-2.5227715969085693
384,3808875,3808876,-0.05853543058037758,-0.2598634660243988,1.020135521888733,-31.511444091796875,13.228779792785645,6.482842922210693,-0.622468888759613,-0.8114594221115112,-0.2564871609210968,-1.3401378393173218,-1.0608477592468262,-2.4655184745788574
385,3808885,3808886,-0.04791248217225075,-0.1676773875951767,0.9182329773902893,-34.72037124633789,2.4956116676330566,4.134485244750977,-0.6149692535400391,-0.8039597868919373,-0.26098695397377014,-1.3981181383132935,-1.4269534349441528,-2.4222562313079834
386,3808895,3808896,-0.073525570333004,-0.14028459787368774,1.1006056070327759,-31.761760711669922,-3.912048816680908,2.2163894176483154,-0.6269686222076416,-0.8129593133926392,-0.24898754060268402,-1.3196139335632324,-1.862866759300232,-2.4129586219787598
387,3808905,3808906,-0.1791742593050003,-0.5279672741889954,1.0391077995300293,-23.937637329101562,-8.678299903869629,0.6891034841537476,-0.6149692535400391,-0.8189590573310852,-0.23398829996585846,-1.3755184412002563,-2.0722076892852783,-2.3556747436523438
388,3808915,3808916,-0.17134210467338562,-0.3091074824333191,0.9687865376472473,-12.5125732421875,-13.663969993591309,0.9226680397987366,-0.6329683661460876,-0.8189590573310852,-0.24898754060268402,-1.1979237794876099,-2.271366596221924,-2.3584699630737305
389,3808925,3808926,-0.09305790811777115,0.04092070460319519,1.0606689453125,-2.7880709171295166,-18.170724868774414,0.0026459668297320604,-0.6179690957069397,-0.8159592151641846,-0.2549872398376465,-0.9326882362365723,-2.1505353450775146,-2.3326125144958496
390,3808935,3808936,-0.037255458533763885,-0.12530560791492462,1.0034457445144653,6.707765579223633,-18.36798858642578,-2.561760663986206,-0.6119694113731384,-0.8309584259986877,-0.24298784136772156,-0.7390679121017456,-2.165555715560913,-2.325894355773926
391,3808945,3808946,-0.02459542453289032,-0.35094141960144043,1.0572389364242554,16.301591873168945,-21.31555938720703,-2.6190402507781982,-0.6314684152603149,-0.8204589486122131,-0.2474876195192337,-0.6650499701499939,-2.0913748741149902,-2.3051834106445312
392,3808955,3808956,-0.008136746473610401,-0.016357310116291046,1.0138700008392334,25.858415603637695,-12.458695411682129,-2.3899548053741455,-0.622468888759613,-0.8294585347175598,-0.25348731875419617,-0.3727005124092102,-1.925526738166809,-2.3532934188842773
393,3808965,3808966,-0.021491937339305878,-0.06970798969268799,1.0728429555892944,26.561891555786133,3.671130418777466,-1.8944083452224731,-0.6254687309265137,-0.8204589486122131,-0.2564871609210968,-0.29648876190185547,-1.5220152139663696,-2.352548837661743
394,3808975,3808976,0.0009350875043310225,-0.5562891960144043,0.9909511208534241,20.19159507751465,17.591386795043945,-0.9186937808990479,-0.6209689378738403,-0.8159592151641846,-0.23998799920082092,-0.4645225405693054,-1.4477020502090454,-2.363154411315918
395,3808985,3808986,0.02853281982243061,-0.43377572298049927,0.9461432695388794,12.967811584472656,17.394121170043945,1.6228574514389038,-0.6254687309265137,-0.8174591064453125,-0.24448777735233307,-0.6902631521224976,-1.3190686702728271,-2.361201524734497
396,3808995,3808996,-0.054598983377218246,-0.1312008649110794,0.9354017376899719,-2.8154261112213135,7.936048984527588,3.1149675846099854,-0.6179690957069397,-0.8159592151641846,-0.2459876984357834,-0.7039897441864014,-1.2445508241653442,-2.387727975845337
397,3809005,3809006,-0.14652085304260254,-0.2364225685596466,0.8705870509147644,-17.096731185913086,1.5934207439422607,4.414741039276123,-0.6089695692062378,-0.8099594712257385,-0.23998799920082092,-0.8094564080238342,-1.4230023622512817,-2.367020606994629
398,3809015,3809016,-0.1156044751405716,-0.9569209814071655,0.9946271777153015,-27.599525451660156,1.9232667684555054,3.704636812210083,-0.6014699339866638,-0.8204589486122131,-0.25348731875419617,-0.7586056590080261,-1.7182729244232178,-2.3560726642608643
399,3809025,3809026,0.0591195672750473,-0.7826517224311829,1.070473074913025,-30.000810623168945,-5.653319358825684,3.319765090942383,-0.6119694113731384,-0.8159592151641846,-0.25198739767074585,-0.7190997004508972,-1.9560264348983765,-2.3174490928649902
400,3809035,3809036,0.017276016995310783,-0.12462283670902252,0.9711745381355286,-22.17576789855957,-14.49271011352539,5.659520149230957,-0.6044697761535645,-0.80545973777771,-0.2564871609210968,-0.5696393251419067,-2.3007190227508545,-2.3005588054656982
401,3809045,3809046,-0.049489576369524,-0.1478671282529831,1.0184128284454346,-9.911065101623535,-6.024794101715088,6.833705425262451,-0.6119694113731384,-0.8129593133926392,-0.24898754060268402,-0.5160850882530212,-2.333688974380493,-2.2041616439819336
402,3809055,3809056,-0.1070089340209961,-0.40613776445388794,1.1392040252685547,5.210423946380615,-3.4337234497070312,5.483057975769043,-0.6074696183204651,-0.8084595799446106,-0.2384880781173706,-0.46162134408950806,-2.3736889362335205,-2.1334688663482666
403,3809065,3809066,-0.06588204205036163,-0.10203541815280914,1.0302051305770874,24.25044822692871,-1.8980003595352173,6.53621244430542,-0.6089695692062378,-0.8159592151641846,-0.2639867961406708,-0.4446240961551666,-2.115838050842285,-2.053443431854248
404,3809075,3809076,-0.2477259337902069,-0.1628057360649109,1.1600837707519531,36.640380859375,-2.9845991134643555,7.957635879516602,-0.6254687309265137,-0.8174591064453125,-0.24448777735233307,-0.5038976073265076,-2.0510640144348145,-1.9872186183929443
405,3809085,3809086,-0.2618277072906494,-0.2034664750099182,1.1701254844665527,41.2506217956543,6.1052350997924805,4.91831111907959,-0.6254687309265137,-0.8174591064453125,-0.24448777735233307,-0.5452043414115906,-1.5393325090408325,-1.891001582145691
406,3809095,3809096,-0.13640323281288147,-0.46509483456611633,1.1125658750534058,41.090789794921875,2.373448371887207,4.273552894592285,-0.6254687309265137,-0.8174591064453125,-0.24448777735233307,-0.6209568381309509,-1.3457534313201904,-1.8523489236831665
407,3809105,3809106,-0.2050389051437378,-0.27619194984436035,1.0506410598754883,33.342994689941406,-1.5059926509857178,6.3184380531311035,-0.6344682574272156,-0.8114594221115112,-0.25348731875419617,-0.524391233921051,-0.911980390548706,-1.8476109504699707
408,3809115,3809116,-0.3106610178947449,-0.14658847451210022,1.0679564476013184,23.60681915283203,-2.9236087799072266,6.612839698791504,-0.6299684643745422,-0.8249587416648865,-0.2459876984357834,-0.541519820690155,-0.6261733770370483,-1.7905372381210327
409,3809125,3809126,-0.1133926510810852,-0.022390561178326607,1.0379644632339478,10.969559669494629,0.17508681118488312,4.65737247467041,-0.6194689869880676,-0.8114594221115112,-0.2564871609210968,-0.535054087638855,-0.376832515001297,-1.7235115766525269
410,3809135,3809136,-0.08098242431879044,0.008221616968512535,1.051401972770691,-3.1009738445281982,1.9351685047149658,2.409867763519287,-0.6179690957069397,-0.8189590573310852,-0.24898754060268402,-0.5524020791053772,-0.27707886695861816,-1.671197772026062
411,3809145,3809146,-0.060340214520692825,-0.000494153646286577,0.9473810195922852,-11.419059753417969,2.8951518535614014,3.158754825592041,-0.623968780040741,-0.7949602603912354,-0.2459876984357834,-0.6070243716239929,-0.43530046939849854,-1.641181468963623
412,3809155,3809156,-0.07386717945337296,0.08037833124399185,0.949314296245575,-17.20286750793457,5.176692008972168,3.2711172103881836,-0.6209689378738403,-0.8069596290588379,-0.2459876984357834,-0.6256230473518372,-0.6302257776260376,-1.62026047706604
413,3809165,3809166,-0.05303698033094406,0.10969745367765427,0.9781652688980103,-22.339628219604492,11.378705024719238,0.8100585341453552,-0.623968780040741,-0.8099594712257385,-0.24898754060268402,-0.7017224431037903,-0.7714591026306152,-1.5941342115402222
414,3809175,3809176,-0.015269177034497261,0.12377652525901794,1.0266703367233276,-20.26146697998047,11.008249282836914,-2.9963033199310303,-0.616469144821167,-0.7994599938392639,-0.2384880781173706,-0.8108434677124023,-1.0729960203170776,-1.5993932485580444
415,3809185,3809186,-0.03564200550317764,0.06223295256495476,1.003745675086975,-9.405153274536133,5.0568437576293945,-3.533196449279785,-0.616469144821167,-0.8174591064453125,-0.2384880781173706,-0.8894753456115723,-1.2690497636795044,-1.6324859857559204
416,3809195,3809196,-0.1690848469734192,0.009235210716724396,1.0064175128936768,7.3130879402160645,-0.09106449037790298,-2.7642738819122314,-0.6254687309265137,-0.80545973777771,-0.24148792028427124,-0.8370549082756042,-1.2387645244598389,-1.6836841106414795
417,3809205,3809206,-0.11788154393434525,-0.2654074728488922,1.0657774209976196,23.929473876953125,0.562648355960846,-2.916271448135376,-0.6389680504798889,-0.8039597868919373,-0.2369881421327591,-0.8946833610534668,-1.0816701650619507,-1.7070022821426392
418,3809215,3809216,-0.12374774366617203,-0.11124175041913986,1.0655220746994019,36.120174407958984,-6.599818706512451,-1.931886076927185,-0.623968780040741,-0.8069596290588379,-0.23998799920082092,-0.8728814125061035,-0.8361680507659912,-1.7325915098190308
419,3809225,3809226,-0.15178154408931732,-0.19399462640285492,0.9859740734100342,48.67018127441406,-11.937397956848145,-0.6361417174339294,-0.6314684152603149,-0.8174591064453125,-0.23548822104930878,-0.6921390891075134,-0.3775847852230072,-1.7583037614822388
420,3809235,3809236,-0.3417544364929199,-0.34441038966178894,1.0224440097808838,52.92894744873047,-13.574313163757324,0.7632313370704651,-0.6284685730934143,-0.8204589486122131,-0.2474876195192337,-0.545539140701294,0.36043065786361694,-1.7537529468536377
421,3809245,3809246,-0.36755937337875366,-0.14657604694366455,1.1478660106658936,44.847084045410156,-9.271346092224121,2.2660083770751953,-0.6329683661460876,-0.8219588994979858,-0.24898754060268402,-0.48896318674087524,0.6285801529884338,-1.7591238021850586
422,3809255,3809256,-0.2271846979856491,-0.24872803688049316,1.0849299430847168,28.420669555664062,-0.539151668548584,1.2705672979354858,-0.6434678435325623,-0.8264586329460144,-0.25348731875419617,-0.5262872576713562,1.1348330974578857,-1.7268948554992676
423,3809265,3809266,-0.0989665761590004,0.04486288130283356,1.1629374027252197,9.435894966125488,2.404977798461914,0.37457340955734253,-0.6314684152603149,-0.8234587907791138,-0.2594870328903198,-0.5653440356254578,1.1342447996139526,-1.7283594608306885
424,3809275,3809276,-0.07634188234806061,0.07954027503728867,1.0381145477294922,-7.023845195770264,7.638033390045166,-0.9552733898162842,-0.6269686222076416,-0.8099594712257385,-0.2459876984357834,-0.5888323187828064,1.2161462306976318,-1.7242618799209595
425,3809285,3809286,-0.08668211102485657,-0.17192019522190094,1.0393458604812622,-18.664892196655273,12.158045768737793,-0.18749497830867767,-0.6269686222076416,-0.8159592151641846,-0.2369881421327591,-0.698542058467865,1.0467276573181152,-1.7332558631896973
426,3809295,3809296,-0.11597107350826263,-0.15282469987869263,0.9772213697433472,-21.727741241455078,8.663619995117188,1.4829354286193848,-0.6209689378738403,-0.8279585838317871,-0.25198739767074585,-0.8836002945899963,0.9092047214508057,-1.7281663417816162
427,3809305,3809306,-0.05549679324030876,-0.09172733873128891,0.9441445469856262,-20.383316040039062,-2.4032766819000244,2.7206156253814697,-0.6149692535400391,-0.8159592151641846,-0.23998799920082092,-0.955078125,0.6115611791610718,-1.712025761604309
428,3809315,3809316,-0.22495529055595398,-0.25027886033058167,1.1042917966842651,-18.823871612548828,-9.388482093811035,7.180670738220215,-0.6269686222076416,-0.8129593133926392,-0.23998799920082092,-0.7671299576759338,0.47615450620651245,-1.651140570640564
429,3809325,3809326,-0.20217682421207428,-0.574362576007843,1.0302348136901855,-9.150349617004395,-6.2154951095581055,11.429680824279785,-0.6344682574272156,-0.8114594221115112,-0.24148792028427124,-0.7010942697525024,0.35602492094039917,-1.5669435262680054
430,3809335,3809336,-0.13455301523208618,-0.258710116147995,1.0980664491653442,0.5259938836097717,-3.2493395805358887,12.55469799041748,-0.6314684152603149,-0.8204589486122131,-0.2474876195192337,-0.7322964072227478,0.1861310452222824,-1.4681397676467896
431,3809345,3809346,-0.23929180204868317,-0.12468355894088745,1.0690678358078003,10.201480865478516,-5.400033473968506,15.580753326416016,-0.6344682574272156,-0.8234587907791138,-0.24448777735233307,-0.7422633767127991,0.39298123121261597,-1.3268225193023682
432,3809355,3809356,-0.1860405057668686,-0.16407524049282074,1.0285576581954956,17.361188888549805,-10.384134292602539,19.308168411254883,-0.6269686222076416,-0.8159592151641846,-0.2549872398376465,-0.6316710114479065,0.5818111300468445,-1.150450348854065
433,3809365,3809366,-0.2804248034954071,-0.35028403997421265,1.1108988523483276,21.052453994750977,-7.680113792419434,22.755327224731445,-0.6194689869880676,-0.8144592642784119,-0.2384880781173706,-0.5863670706748962,0.7026496529579163,-0.9617335796356201
434,3809375,3809376,-0.17980381846427917,-0.35274970531463623,1.0673640966415405,19.86944580078125,-0.39940541982650757,23.441686630249023,-0.6329683661460876,-0.8219588994979858,-0.2369881421327591,-0.5241490006446838,0.9965327382087708,-0.733981728553772
435,3809385,3809386,-0.11523710936307907,-0.17635418474674225,1.0200258493423462,14.216034889221191,4.966436386108398,21.471694946289062,-0.616469144821167,-0.8264586329460144,-0.25348731875419617,-0.6117860674858093,1.0194981098175049,-0.529636025428772
436,3809395,3809396,-0.05360622704029083,0.09049410372972488,1.0604838132858276,7.749103546142578,0.8430232405662537,18.90452003479004,-0.6299684643745422,-0.8189590573310852,-0.24898754060268402,-0.5630878210067749,1.2343047857284546,-0.30378684401512146
437,3809405,3809406,-0.11829683929681778,-0.22868700325489044,0.9451510906219482,3.0779314041137695,-4.305649280548096,16.751489639282227,-0.6254687309265137,-0.8294585347175598,-0.2564871609210968,-0.5431414246559143,1.207855224609375,-0.11800774931907654
438,3809415,3809416,-0.25267624855041504,-0.13096919655799866,1.120595097541809,-0.21912267804145813,-4.320592403411865,15.54356861114502,-0.622468888759613,-0.8294585347175598,-0.26248687505722046,-0.6262461543083191,1.1964105367660522,0.02263864129781723
439,3809425,3809426,-0.1593351513147354,-0.1268250197172165,0.9929540753364563,-7.601399898529053,3.7460429668426514,12.295811653137207,-0.6254687309265137,-0.8174591064453125,-0.2474876195192337,-0.6175009608268738,1.169581413269043,0.1695292890071869
440,3809435,3809436,-0.05072367563843727,0.003141180844977498,1.0036128759384155,-16.545513153076172,0.34475913643836975,9.466038703918457,-0.616469144821167,-0.8144592642784119,-0.2474876195192337,-0.7083048224449158,1.0820614099502563,0.2803850471973419
441,3809445,3809446,-0.08353988826274872,-0.0394236296415329,0.934123694896698,-19.353376388549805,-6.822727680206299,6.362549304962158,-0.6344682574272156,-0.8084595799446106,-0.25048747658729553,-0.6449244022369385,0.8859294652938843,0.3875254690647125
442,3809455,3809456,-0.1089031845331192,0.049313999712467194,0.9212812185287476,-12.646592140197754,-8.194998741149902,3.088388442993164,-0.6254687309265137,-0.8144592642784119,-0.2474876195192337,-0.6635778546333313,0.7907410860061646,0.43123921751976013
443,3809465,3809466,-0.04833405464887619,0.2446056753396988,1.0717201232910156,-6.864428997039795,-6.671366214752197,-1.5505173206329346,-0.6269686222076416,-0.8159592151641846,-0.24898754060268402,-0.5295665860176086,0.6520143151283264,0.4666006565093994
444,3809475,3809476,-0.025131067261099815,-0.0017618144629523158,1.0584378242492676,0.9196188449859619,-12.38737678527832,-4.028764247894287,-0.6134693026542664,-0.8144592642784119,-0.24448777735233307,-0.36466169357299805,0.6283751726150513,0.4696977436542511
445,3809485,3809486,0.01810409501194954,-0.3247479498386383,0.941540002822876,10.644815444946289,-21.72911834716797,-4.249690055847168,-0.6194689869880676,-0.8174591064453125,-0.2474876195192337,-0.1743517816066742,0.7434229254722595,0.44659388065338135
446,3809495,3809496,-0.0031539658084511757,-0.08742483705282211,0.8737398386001587,15.20881462097168,-26.648656845092773,-3.0591492652893066,-0.6149692535400391,-0.8279585838317871,-0.23998799920082092,0.13907800614833832,0.8247342705726624,0.4270300567150116
447,3809505,3809506,-0.08231478184461594,-0.0759006142616272,1.0075414180755615,17.959692001342773,-25.577280044555664,-4.246762275695801,-0.6254687309265137,-0.8174591064453125,-0.25348731875419617,0.008287903852760792,0.7647582292556763,0.2926025986671448
448,3809515,3809516,-0.036410342901945114,-0.3227352797985077,1.0044047832489014,14.421428680419922,-17.149595260620117,-5.04157018661499,-0.6104694604873657,-0.8294585347175598,-0.26248687505722046,0.25273412466049194,0.995055079460144,0.2484491914510727
449,3809525,3809526,-0.0020001574885100126,-0.23881132900714874,0.8781852722167969,13.237545013427734,-11.447423934936523,-4.355038166046143,-0.6179690957069397,-0.8309584259986877,-0.2549872398376465,0.43129128217697144,1.177829384803772,0.21022377908229828
450,3809535,3809536,-0.1463155597448349,-0.11639195680618286,0.9921318888664246,12.199519157409668,-4.259923458099365,-3.4528965950012207,-0.6194689869880676,-0.8144592642784119,-0.2564871609210968,0.5585154891014099,1.343306541442871,0.1813150942325592
451,3809545,3809546,-0.08711892366409302,-0.27393341064453125,0.9788199663162231,4.567585468292236,6.9427409172058105,-3.21138072013855,-0.6194689869880676,-0.8294585347175598,-0.23548822104930878,0.5276541709899902,1.4336919784545898,0.14266468584537506
452,3809555,3809556,-0.08621834218502045,-0.3876141905784607,1.0644782781600952,-3.10860013961792,15.164017677307129,-4.154582977294922,-0.6104694604873657,-0.8324583768844604,-0.24448777735233307,0.35609033703804016,1.474015235900879,0.09290751814842224
453,3809565,3809566,-0.09175097197294235,-0.16798190772533417,1.010392665863037,-12.110353469848633,16.581541061401367,-3.293320417404175,-0.6119694113731384,-0.8279585838317871,-0.26098695397377014,0.18520770967006683,1.3703089952468872,0.06320663541555405
454,3809575,3809576,-0.027703959494829178,0.0578240342438221,1.0117442607879639,-24.387237548828125,15.417473793029785,-0.60218745470047,-0.6179690957069397,-0.8399580121040344,-0.2549872398376465,0.018633654341101646,1.092009425163269,0.05687761679291725
455,3809585,3809586,-0.1777009665966034,-0.12467100471258163,0.9334968328475952,-30.299903869628906,7.777789115905762,-1.2356181144714355,-0.6104694604873657,-0.8324583768844604,-0.2564871609210968,-0.16764630377292633,0.8791142106056213,0.04049629718065262
456,3809595,3809596,-0.21718008816242218,-0.11585379391908646,1.115479588508606,-28.350000381469727,-1.9400291442871094,0.2064419984817505,-0.5999699831008911,-0.8249587416648865,-0.2579870820045471,-0.09311296045780182,0.5535501837730408,0.08276630938053131
457,3809605,3809606,-0.25129231810569763,-0.3420678675174713,1.0460563898086548,-19.26468276977539,-3.1621618270874023,2.0467612743377686,-0.6014699339866638,-0.8234587907791138,-0.2564871609210968,-0.0849626213312149,0.4705300033092499,0.0768619254231453
458,3809615,3809616,-0.12048010528087616,-0.26072362065315247,1.1070858240127563,-8.204536437988281,-3.806689977645874,1.9684337377548218,-0.6029698252677917,-0.8219588994979858,-0.23998799920082092,-0.04344868287444115,0.24838010966777802,0.10699203610420227
459,3809625,3809626,-0.14762917160987854,-0.021597519516944885,1.0512081384658813,5.576313018798828,-9.479203224182129,4.407483100891113,-0.6179690957069397,-0.8279585838317871,-0.25198739767074585,0.0012397082755342126,0.2507931590080261,0.13088516891002655
460,3809635,3809636,-0.019285663962364197,-0.0649685189127922,0.9446262121200562,9.934356689453125,-18.25421142578125,3.822098731994629,-0.6029698252677917,-0.8279585838317871,-0.24898754060268402,0.017249086871743202,0.45815509557724,0.1391085833311081
461,3809645,3809646,-0.2577937841415405,-0.014619787223637104,1.11090087890625,15.075898170471191,-31.042566299438477,2.193596363067627,-0.6194689869880676,-0.8294585347175598,-0.2474876195192337,0.3390643000602722,0.6508759260177612,0.18810412287712097
462,3809655,3809656,-0.2913629114627838,-0.1779860556125641,1.1121208667755127,17.412872314453125,-23.17478370666504,0.4306268095970154,-0.616469144821167,-0.8294585347175598,-0.24448777735233307,0.6239856481552124,0.8924368023872375,0.18920348584651947
463,3809665,3809666,-0.17212744057178497,-0.11183919757604599,1.0946680307388306,18.228458404541016,-17.703960418701172,1.3643192052841187,-0.6029698252677917,-0.836958110332489,-0.26098695397377014,0.8890411853790283,1.0236074924468994,0.20754913985729218
464,3809675,3809676,-0.1685124784708023,-0.35828760266304016,0.9183233976364136,11.371126174926758,-12.714760780334473,1.1764554977416992,-0.5969701409339905,-0.8219588994979858,-0.26098695397377014,0.9267253279685974,1.1124221086502075,0.20217867195606232
465,3809685,3809686,-0.2546497881412506,-0.32565873861312866,1.1472305059432983,0.9204061627388,1.0085828304290771,1.700371503829956,-0.6089695692062378,-0.8309584259986877,-0.25198739767074585,1.0177295207977295,1.1982749700546265,0.21681100130081177
466,3809695,3809696,-0.24193662405014038,-0.24164918065071106,1.1540312767028809,-11.813130378723145,21.87563705444336,0.8471379280090332,-0.6119694113731384,-0.836958110332489,-0.24898754060268402,0.8278059363365173,1.0836621522903442,0.21796384453773499
467,3809705,3809706,-0.11225751042366028,-0.06626670807600021,1.0589879751205444,-26.24921417236328,28.289108276367188,-0.3771858215332031,-0.6044697761535645,-0.8384580612182617,-0.2564871609210968,0.6464107036590576,0.9802740216255188,0.23276714980602264
