,timestamp_start,timestamp_end,acc.x,acc.y,acc.z,gyro.x,gyro.y,gyro.z,mag.x,mag.y,mag.z,stabilizer.pitch,stabilizer.roll,stabilizer.yaw
0,157971,157972,-0.08437145501375198,0.14487753808498383,1.0863295793533325,-0.1869392991065979,-19.597129821777344,0.4464082419872284,-0.5939702987670898,-0.8309584259986877,-0.28798559308052063,-1.361633539199829,5.437509059906006,-1.3676872253417969
1,157981,157982,-0.08841896057128906,0.13085158169269562,1.051095962524414,-10.675127983093262,-6.741578578948975,0.12076171487569809,-0.5879706144332886,-0.8219588994979858,-0.26998651027679443,-0.9719358682632446,5.272316932678223,-1.2672324180603027
2,157991,157992,-0.021505791693925858,0.05760243907570839,0.9725455641746521,-15.408012390136719,4.4789252281188965,2.1153860092163086,-0.5909704566001892,-0.8429578542709351,-0.26098695397377014,-1.01987886428833,5.217928409576416,-1.3094322681427002
3,158001,158002,-0.06467629224061966,-0.10802285373210907,1.0216877460479736,-17.48849868774414,17.908767700195312,4.2309675216674805,-0.5954701900482178,-0.8264586329460144,-0.27148643136024475,-1.3173352479934692,5.100528240203857,-1.4270899295806885
4,158011,158012,-0.29129573702812195,-0.04954681918025017,1.047424554824829,-19.799217224121094,25.469120025634766,6.418259143829346,-0.5924703478813171,-0.8234587907791138,-0.2654867172241211,-1.000619649887085,3.5114402770996094,-1.3937828540802002
5,158021,158022,-0.38568106293678284,0.041047096252441406,1.0463755130767822,-23.443994522094727,29.016386032104492,9.217690467834473,-0.5879706144332886,-0.8249587416648865,-0.27298635244369507,-1.3933777809143066,3.398308038711548,-1.370587706565857
6,158031,158032,-0.26525023579597473,0.05987025052309036,1.0732182264328003,-18.16991424560547,28.89879608154297,11.80384349822998,-0.5954701900482178,-0.8114594221115112,-0.277486115694046,-1.1870774030685425,3.0897717475891113,-0.9705319404602051
7,158041,158042,-0.11453483253717422,0.05849433317780495,1.0851225852966309,-4.697131156921387,23.587827682495117,14.028034210205078,-0.5984700918197632,-0.8204589486122131,-0.27148643136024475,-1.724928855895996,3.092604160308838,-0.9479725956916809
8,158051,158052,-0.10423298925161362,-0.1429528445005417,1.0153859853744507,9.515591621398926,25.499725341796875,14.253271102905273,-0.6014699339866638,-0.8114594221115112,-0.26848655939102173,-1.9480259418487549,3.226229667663574,-0.7567798495292664
9,158061,158062,-0.1331557184457779,-0.1643068492412567,0.9685701727867126,27.193204879760742,17.905683517456055,13.320723533630371,-0.6119694113731384,-0.8039597868919373,-0.2579870820045471,-1.9221529960632324,3.398942708969116,-0.4727976322174072
10,158071,158072,-0.08469118177890778,-0.02395341917872429,0.9815347194671631,39.87059783935547,15.012443542480469,11.714678764343262,-0.6209689378738403,-0.8069596290588379,-0.2579870820045471,-2.2858145236968994,3.9296987056732178,-0.3700439929962158
11,158081,158082,-0.089903824031353,-0.05794171988964081,1.0111041069030762,43.528411865234375,11.174640655517578,10.588062286376953,-0.6269686222076416,-0.8099594712257385,-0.2669866383075714,-2.3183858394622803,4.124605655670166,-0.25729358196258545
12,158091,158092,-0.20938599109649658,-0.1272425651550293,0.9731127023696899,38.946842193603516,-0.10758939385414124,12.270535469055176,-0.6314684152603149,-0.8144592642784119,-0.27148643136024475,-2.2274365425109863,4.7635178565979,-0.0211043544113636
13,158101,158102,-0.28484201431274414,-0.10338693857192993,0.9548871517181396,30.776952743530273,-15.275094032287598,14.651241302490234,-0.6194689869880676,-0.80545973777771,-0.27148643136024475,-2.192934274673462,5.21707010269165,0.11550278961658478
14,158111,158112,-0.4226357340812683,-0.11753755062818527,0.9209148287773132,14.824512481689453,-20.602924346923828,16.39957618713379,-0.6089695692062378,-0.8159592151641846,-0.26098695397377014,-2.0488193035125732,5.152195930480957,0.14350280165672302
15,158121,158122,-0.26696446537971497,-0.05452170595526695,0.909349799156189,-3.549814224243164,-20.204387664794922,17.42701530456543,-0.6269686222076416,-0.8159592151641846,-0.26998651027679443,-1.7279733419418335,5.277124881744385,0.3407033383846283
16,158131,158132,-0.1273815631866455,0.05489027127623558,0.9826236963272095,-17.26632308959961,-19.032617568969727,16.255916595458984,-0.6119694113731384,-0.8099594712257385,-0.26098695397377014,-1.42418372631073,5.143014907836914,0.5169077515602112
17,158141,158142,-0.7510183453559875,-0.40347662568092346,0.9103610515594482,-31.534549713134766,-20.46617889404297,13.372772216796875,-0.6134693026542664,-0.7994599938392639,-0.2564871609210968,-1.1927233934402466,4.9104790687561035,0.6611052751541138
18,158151,158152,-0.9133535027503967,-0.7864922285079956,0.8918236494064331,-41.512542724609375,-14.22743034362793,11.943351745605469,-0.6149692535400391,-0.8009599447250366,-0.26098695397377014,-0.9933647513389587,4.471560955047607,0.7546343207359314
19,158161,158162,-0.2791304886341095,-0.173112154006958,0.9439246654510498,-43.314109802246094,-2.108579397201538,10.953946113586426,-0.6044697761535645,-0.80545973777771,-0.2564871609210968,-0.8760454058647156,3.931755542755127,0.8392583131790161
20,158171,158172,-0.06058618798851967,0.089658223092556,0.9498724937438965,-39.48301696777344,5.698023796081543,12.221263885498047,-0.6119694113731384,-0.7949602603912354,-0.26098695397377014,-0.898459255695343,3.8603343963623047,0.9923887848854065
21,158181,158182,-0.08104951679706573,0.009419036097824574,0.9199333786964417,-26.37263298034668,17.3903751373291,11.432743072509766,-0.6134693026542664,-0.790460467338562,-0.25048747658729553,-0.8042824268341064,3.2953872680664062,1.1606924533843994
22,158191,158192,-0.09516236186027527,-0.01764334924519062,0.8994320631027222,-11.837822914123535,28.312105178833008,9.988903045654297,-0.623968780040741,-0.7889605164527893,-0.24898754060268402,-1.0980925559997559,3.0880930423736572,1.2415611743927002
23,158201,158202,-0.08400173485279083,-0.0832441970705986,0.9661877751350403,1.190663456916809,36.65856170654297,8.584653854370117,-0.6284685730934143,-0.7874606251716614,-0.2474876195192337,-1.3525999784469604,3.098473072052002,1.3839794397354126
24,158211,158212,-0.04820834845304489,-0.002067905617877841,0.9469672441482544,11.96091365814209,39.28690719604492,5.350563049316406,-0.6284685730934143,-0.7874606251716614,-0.2474876195192337,-1.6361898183822632,3.1490185260772705,1.516722321510315
25,158221,158222,-0.0862974151968956,-0.009477921761572361,0.8864762187004089,22.082231521606445,38.828086853027344,3.5569865703582764,-0.6284685730934143,-0.7874606251716614,-0.2474876195192337,-2.0752272605895996,3.3552887439727783,1.5805972814559937
26,158231,158232,-0.07116876542568207,-0.26107797026634216,0.8689786195755005,23.437454223632812,34.13228988647461,2.6281161308288574,-0.6284685730934143,-0.7874606251716614,-0.2474876195192337,-2.2669711112976074,3.5926332473754883,1.6948492527008057
27,158241,158242,-0.05848972126841545,-0.14079460501670837,0.8752328157424927,17.70509910583496,21.183876037597656,0.1696600764989853,-0.6299684643745422,-0.7919603586196899,-0.2579870820045471,-2.593763589859009,3.7218403816223145,1.7180958986282349
28,158251,158252,-0.09563571214675903,-0.02597123198211193,0.8583795428276062,5.1281633377075195,6.82680606842041,-1.4184503555297852,-0.6194689869880676,-0.8024598360061646,-0.24448777735233307,-2.565927505493164,3.843597412109375,1.7804433107376099
29,158261,158262,-0.06880524754524231,-0.051191847771406174,0.8446959853172302,-10.835480690002441,-5.3822922706604,-1.3858568668365479,-0.6344682574272156,-0.8084595799446106,-0.2474876195192337,-2.7347300052642822,3.8630433082580566,1.7341071367263794
30,158271,158272,-0.05553962662816048,-0.0596691370010376,0.8429957032203674,-30.105541229248047,-11.8041410446167,-2.0495238304138184,-0.6314684152603149,-0.7994599938392639,-0.2474876195192337,-2.67340087890625,3.5896999835968018,1.6886084079742432
31,158281,158282,-0.2315516620874405,-0.11111918091773987,0.8285325169563293,-38.204925537109375,-14.2538480758667,-3.9651377201080322,-0.6134693026542664,-0.7964601516723633,-0.2474876195192337,-2.3320748805999756,3.1704111099243164,1.6937953233718872
32,158291,158292,-0.22619211673736572,-0.1216711699962616,0.917281985282898,-38.783451080322266,-8.204336166381836,-6.269755840301514,-0.616469144821167,-0.7964601516723633,-0.25348731875419617,-2.1506431102752686,2.7309157848358154,1.6435177326202393
33,158301,158302,-0.12712085247039795,-0.0801076740026474,0.9577416181564331,-28.272945404052734,9.626479148864746,-6.958502769470215,-0.6149692535400391,-0.7949602603912354,-0.2459876984357834,-2.0315263271331787,2.437204599380493,1.6106054782867432
34,158311,158312,-0.07440406829118729,-0.06935792416334152,0.8685362339019775,-13.704399108886719,25.23878288269043,-6.945773601531982,-0.6209689378738403,-0.7799609899520874,-0.23398829996585846,-2.3190112113952637,2.2017974853515625,1.518593192100525
35,158321,158322,-0.21831586956977844,-0.06060141697525978,0.9278336763381958,-2.0351524353027344,33.599056243896484,-6.2692484855651855,-0.6209689378738403,-0.7769611477851868,-0.2369881421327591,-2.580446720123291,2.0997700691223145,1.4657214879989624
36,158331,158332,-0.14295025169849396,-0.04613281413912773,0.8219709992408752,5.36651086807251,39.34727478027344,-6.327338695526123,-0.622468888759613,-0.7874606251716614,-0.25348731875419617,-2.702794075012207,2.15647554397583,1.4652620553970337
37,158341,158342,-0.03955656662583351,-0.03462394326925278,0.8355910778045654,10.273222923278809,38.44424057006836,-6.062091827392578,-0.6434678435325623,-0.790460467338562,-0.24448777735233307,-3.27360200881958,2.3586747646331787,1.4265533685684204
38,158351,158352,-0.7837032675743103,-0.36092111468315125,0.8665725588798523,8.069652557373047,23.781890869140625,-3.3054187297821045,-0.6284685730934143,-0.7814609408378601,-0.2594870328903198,-3.3640851974487305,2.381493091583252,1.3973569869995117
39,158361,158362,-1.3308799266815186,-0.3405776619911194,0.9925664067268372,0.6856305003166199,10.1858549118042,-1.5301655530929565,-0.6359682083129883,-0.7859606742858887,-0.2459876984357834,-3.647643566131592,2.4009392261505127,1.3568271398544312
40,158371,158372,-0.8907657861709595,-0.20683354139328003,0.9640042781829834,-13.520124435424805,-3.234517812728882,-2.012791872024536,-0.6389680504798889,-0.7949602603912354,-0.25198739767074585,-3.431612253189087,2.3020222187042236,1.346173882484436
41,158381,158382,-0.5226349830627441,-0.6176096796989441,0.809368371963501,-21.11806869506836,-13.031893730163574,-2.8939402103424072,-0.6344682574272156,-0.7964601516723633,-0.24448777735233307,-3.4762866497039795,2.046837329864502,1.2831679582595825
42,158391,158392,-0.16456803679466248,-0.38757506012916565,0.8466042280197144,-29.91156768798828,-23.408916473388672,-3.930479049682617,-0.6359682083129883,-0.7919603586196899,-0.25198739767074585,-3.324467658996582,1.6536966562271118,1.1948202848434448
43,158401,158402,-0.16090138256549835,-0.061609089374542236,0.8656991124153137,-30.02448081970215,-18.913312911987305,-5.8675923347473145,-0.6194689869880676,-0.7964601516723633,-0.25348731875419617,-2.997070550918579,1.4592454433441162,1.1850242614746094
44,158411,158412,-0.13251668214797974,-0.007302813231945038,0.8910925984382629,-22.529348373413086,-15.047564506530762,-7.7484540939331055,-0.6404679417610168,-0.790460467338562,-0.23548822104930878,-2.855487823486328,1.1147185564041138,1.0977797508239746
45,158421,158422,-0.07652644068002701,-0.037026748061180115,0.8854384422302246,-13.131170272827148,-5.964996337890625,-9.636197090148926,-0.622468888759613,-0.790460467338562,-0.2564871609210968,-2.6637794971466064,0.9730916619300842,1.0327976942062378
46,158431,158432,-0.28759634494781494,-0.07767427712678909,0.9049065113067627,1.351406455039978,6.0545454025268555,-11.986364364624023,-0.6209689378738403,-0.782960832118988,-0.2459876984357834,-2.5764925479888916,0.8702425956726074,0.9316595196723938
47,158441,158442,-0.38538944721221924,-0.10604054480791092,0.7943796515464783,13.824687004089355,18.467430114746094,-13.991378784179688,-0.6374680995941162,-0.7784610390663147,-0.25348731875419617,-2.6872923374176025,0.9914194345474243,0.8351384401321411
48,158451,158452,-0.1954227238893509,-0.1257558912038803,0.9320643544197083,16.618263244628906,30.381364822387695,-15.470191955566406,-0.6299684643745422,-0.7769611477851868,-0.23398829996585846,-2.844717502593994,1.1589382886886597,0.7004891633987427
49,158461,158462,-0.14919154345989227,-0.30767765641212463,0.8596631288528442,12.72087287902832,40.29137420654297,-16.982973098754883,-0.6434678435325623,-0.7934603095054626,-0.23548822104930878,-3.263444423675537,1.1850169897079468,0.519429087638855
50,158471,158472,-0.17124593257904053,-0.3822762370109558,0.9158321022987366,5.560580253601074,41.819480895996094,-17.68990707397461,-0.6209689378738403,-0.797960102558136,-0.2459876984357834,-3.435081958770752,1.3278716802597046,0.3404632806777954
51,158481,158482,-0.09094517678022385,-0.7731985449790955,0.9378317594528198,-2.8754923343658447,35.51018524169922,-17.631193161010742,-0.6314684152603149,-0.7964601516723633,-0.24448777735233307,-3.989321708679199,1.3427172899246216,0.18419702351093292
52,158491,158492,-0.6121019124984741,-0.44776251912117004,0.9073120355606079,-9.185478210449219,23.129711151123047,-15.61674690246582,-0.6554672122001648,-0.7934603095054626,-0.25348731875419617,-4.245158672332764,1.236690878868103,-0.010865805670619011
53,158501,158502,-0.2622024118900299,-0.10147176682949066,0.9233434796333313,-13.93170166015625,6.380059242248535,-13.671761512756348,-0.6389680504798889,-0.7889605164527893,-0.26098695397377014,-4.271597862243652,1.0342706441879272,-0.21346843242645264
54,158511,158512,-0.07728373259305954,-0.5148136615753174,0.9523691534996033,-14.393893241882324,-10.796361923217773,-11.303165435791016,-0.6344682574272156,-0.790460467338562,-0.24448777735233307,-4.371253490447998,0.8040795922279358,-0.36523351073265076
55,158521,158522,-0.24248890578746796,-0.6130252480506897,0.9008298516273499,-16.142396926879883,-20.34848976135254,-9.77698802947998,-0.6434678435325623,-0.7934603095054626,-0.2474876195192337,-4.178554534912109,0.690185010433197,-0.4694468677043915
56,158531,158532,-0.42154455184936523,-0.9884640574455261,0.9149535894393921,-12.435914039611816,-28.791799545288086,-7.901668548583984,-0.6254687309265137,-0.7964601516723633,-0.2564871609210968,-3.9094936847686768,0.5264407992362976,-0.5767604112625122
57,158541,158542,-0.8777920007705688,-0.30955079197883606,0.8989254832267761,-9.458809852600098,-31.93906021118164,-4.13261079788208,-0.6314684152603149,-0.7964601516723633,-0.25048747658729553,-3.5345358848571777,0.41972023248672485,-0.6595472693443298
58,158551,158552,-0.7875931262969971,-0.03921006992459297,0.9255548119544983,-12.787294387817383,-27.5931453704834,-2.1774818897247314,-0.6209689378738403,-0.8009599447250366,-0.26098695397377014,-3.301422595977783,0.24284832179546356,-0.7105132937431335
59,158561,158562,-0.303681880235672,-0.01094090472906828,0.9717689156532288,-18.748950958251953,-15.13481616973877,-3.2523369789123535,-0.6344682574272156,-0.7964601516723633,-0.2384880781173706,-3.054520845413208,0.06015526130795479,-0.7449631094932556
60,158571,158572,-0.11198250204324722,-0.029601523652672768,0.9762799143791199,-15.944427490234375,-2.2144992351531982,-4.154428958892822,-0.6344682574272156,-0.7964601516723633,-0.26248687505722046,-2.949876308441162,-0.1445203721523285,-0.7867650985717773
61,158581,158582,-0.012719030492007732,0.10242822021245956,1.0080134868621826,-8.061727523803711,7.674661636352539,-4.050339221954346,-0.623968780040741,-0.797960102558136,-0.25198739767074585,-3.089002847671509,-0.2641620635986328,-0.7890564799308777
62,158591,158592,-0.014619396068155766,-0.014778573997318745,0.9511227011680603,3.5120716094970703,8.159457206726074,-4.310822486877441,-0.6344682574272156,-0.7934603095054626,-0.25048747658729553,-3.0914621353149414,-0.29101985692977905,-0.8401902914047241
63,158601,158602,-0.11564721167087555,-0.2579880356788635,0.9061987996101379,14.004627227783203,3.398688316345215,-5.867579460144043,-0.6359682083129883,-0.7889605164527893,-0.2459876984357834,-3.2775774002075195,-0.2139727920293808,-0.8497218489646912
64,158611,158612,-0.1198178380727768,-0.20286476612091064,0.9085421562194824,20.122230529785156,-1.7735446691513062,-6.146317958831787,-0.622468888759613,-0.7934603095054626,-0.24448777735233307,-3.2768988609313965,-0.0024804826825857162,-0.8942097425460815
65,158621,158622,-0.08778221905231476,-0.06343502551317215,0.9235157370567322,24.097753524780273,-5.461616516113281,-7.91118860244751,-0.6299684643745422,-0.8069596290588379,-0.26098695397377014,-2.9877400398254395,0.07026786357164383,-1.0795820951461792
66,158631,158632,-0.13543668389320374,-0.053388554602861404,0.9676737785339355,23.98183822631836,-2.0808231830596924,-8.338312149047852,-0.6344682574272156,-0.8024598360061646,-0.25348731875419617,-3.1370270252227783,0.40331530570983887,-1.067328691482544
67,158641,158642,-0.13046352565288544,-0.058553218841552734,0.9497993588447571,20.50613784790039,6.140933036804199,-9.757608413696289,-0.6329683661460876,-0.8129593133926392,-0.26098695397377014,-2.9474899768829346,0.48761799931526184,-1.2572213411331177
68,158651,158652,-0.10101848095655441,-0.12278375774621964,0.945200502872467,12.463447570800781,13.609662055969238,-11.043343544006348,-0.622468888759613,-0.8084595799446106,-0.26248687505722046,-3.037273406982422,0.7013154029846191,-1.346927523612976
69,158661,158662,-0.12890507280826569,-0.30423030257225037,0.9912494421005249,1.9422996044158936,13.050366401672363,-10.476701736450195,-0.6329683661460876,-0.8219588994979858,-0.24898754060268402,-3.1715595722198486,0.7488192915916443,-1.4652456045150757
70,158671,158672,-0.1966599076986313,-0.3884975016117096,0.8895756602287292,-4.333076477050781,8.585043907165527,-8.381485939025879,-0.6269686222076416,-0.8159592151641846,-0.25198739767074585,-3.257459878921509,0.7426525950431824,-1.5761886835098267
71,158681,158682,-0.3197689354419708,-0.312673956155777,0.9408097267150879,-9.225931167602539,7.635168075561523,-6.136082649230957,-0.6329683661460876,-0.8219588994979858,-0.26098695397377014,-3.4450650215148926,0.6433011293411255,-1.6374247074127197
72,158691,158692,-0.49985918402671814,-0.28722554445266724,1.022294521331787,-14.72055721282959,5.807227611541748,-3.8268589973449707,-0.6284685730934143,-0.8084595799446106,-0.25348731875419617,-3.37203049659729,0.4597017467021942,-1.7562590837478638
73,158701,158702,-0.30356884002685547,-0.19184286892414093,0.943597137928009,-14.541568756103516,6.886541843414307,-2.674417734146118,-0.6299684643745422,-0.8099594712257385,-0.2579870820045471,-3.325645923614502,0.3106484115123749,-1.8215105533599854
74,158711,158712,-0.0711289793252945,0.046233076602220535,0.9023035168647766,-10.601241111755371,0.5370454788208008,-4.137052536010742,-0.6254687309265137,-0.8204589486122131,-0.2564871609210968,-3.4444427490234375,0.056572187691926956,-1.8667125701904297
75,158721,158722,-0.17552976310253143,-0.1280512511730194,0.8954141139984131,-13.297418594360352,-8.50013256072998,-5.883560657501221,-0.6314684152603149,-0.8144592642784119,-0.2654867172241211,-3.3474316596984863,-0.10995983332395554,-1.9500858783721924
76,158731,158732,-0.4025198519229889,-0.43449828028678894,1.0809805393218994,-11.008620262145996,-10.260738372802734,-8.173309326171875,-0.6269686222076416,-0.8069596290588379,-0.24898754060268402,-3.242121458053589,-0.2037913203239441,-2.008779764175415
77,158741,158742,-0.21006882190704346,-0.24895811080932617,1.0142306089401245,-5.086112976074219,-14.265473365783691,-5.251290321350098,-0.622468888759613,-0.8114594221115112,-0.2654867172241211,-2.945997714996338,-0.1742260903120041,-2.1020538806915283
78,158751,158752,-0.09840312600135803,-0.03529471904039383,1.023848533630371,2.361083507537842,-8.910139083862305,-5.378352642059326,-0.6209689378738403,-0.8159592151641846,-0.26098695397377014,-2.8304929733276367,-0.24897468090057373,-2.1594440937042236
79,158761,158762,-0.016104258596897125,0.07148997485637665,1.051978349685669,12.48587417602539,-6.4320549964904785,-2.7005984783172607,-0.6314684152603149,-0.8294585347175598,-0.26848655939102173,-2.773888111114502,-0.10585109144449234,-2.1759183406829834
80,158771,158772,-0.04045699164271355,0.015105079859495163,1.093122959136963,18.752971649169922,-6.1221842765808105,-1.9318093061447144,-0.6104694604873657,-0.8264586329460144,-0.277486115694046,-2.731559991836548,-0.12233176082372665,-2.231717824935913
81,158781,158782,0.020981982350349426,0.08135237544775009,1.0224636793136597,19.649168014526367,-11.155961036682129,-0.538101851940155,-0.623968780040741,-0.8279585838317871,-0.26998651027679443,-2.620861768722534,0.2220219522714615,-2.223421812057495
82,158791,158792,-0.13305866718292236,-0.12862199544906616,1.0309715270996094,14.951936721801758,-10.864944458007812,-0.4022503197193146,-0.622468888759613,-0.8294585347175598,-0.26848655939102173,-2.54852032661438,0.23761172592639923,-2.250490427017212
83,158801,158802,-0.2365190088748932,-0.12516476213932037,1.0818424224853516,16.704030990600586,-7.852869987487793,-0.6823323369026184,-0.6329683661460876,-0.8279585838317871,-0.2669866383075714,-2.42561936378479,0.38610348105430603,-2.263394594192505
84,158811,158812,-0.27455034852027893,-0.18135003745555878,1.036706566810608,20.647306442260742,-3.199596405029297,-0.03961602598428726,-0.6194689869880676,-0.8414579033851624,-0.26848655939102173,-2.2943191528320312,0.43850284814834595,-2.3089048862457275
85,158821,158822,-0.07921364903450012,-0.0014473771443590522,1.0644142627716064,21.429494857788086,4.819342136383057,-0.8136508464813232,-0.6194689869880676,-0.8384580612182617,-0.26848655939102173,-2.3483598232269287,0.6803665161132812,-2.2874579429626465
86,158831,158832,-0.04159827530384064,0.12161308526992798,1.1679121255874634,19.59654998779297,6.6562395095825195,2.3269355297088623,-0.6179690957069397,-0.8159592151641846,-0.2669866383075714,-2.4804470539093018,0.847087562084198,-2.271954298019409
87,158841,158842,-0.08663664758205414,0.03800724446773529,1.1234395503997803,8.193652153015137,7.548349857330322,2.6182849407196045,-0.6119694113731384,-0.8399580121040344,-0.2639867961406708,-2.491314172744751,1.0546648502349854,-2.2584471702575684
88,158851,158852,-0.15483422577381134,-0.1458645761013031,1.0406382083892822,-4.4430623054504395,-0.4810379147529602,1.169657826423645,-0.6209689378738403,-0.8219588994979858,-0.26998651027679443,-2.5642285346984863,1.0503603219985962,-2.2384684085845947
89,158861,158862,-0.20812177658081055,-0.34522390365600586,1.0609649419784546,-10.773119926452637,-5.485626697540283,0.45794135332107544,-0.6284685730934143,-0.8294585347175598,-0.2654867172241211,-2.5469162464141846,0.9667102098464966,-2.2336394786834717
90,158871,158872,-0.33911192417144775,-0.3534340262413025,1.0196361541748047,-10.54049301147461,-11.377602577209473,-0.18247538805007935,-0.6269686222076416,-0.8249587416648865,-0.26998651027679443,-2.4992165565490723,0.8340795040130615,-2.233689546585083
91,158881,158882,-0.3109103739261627,-0.3181091845035553,1.0445375442504883,-12.089266777038574,-22.914270401000977,1.5188629627227783,-0.6119694113731384,-0.8249587416648865,-0.26098695397377014,-2.2231335639953613,0.689312756061554,-2.2672016620635986
92,158891,158892,-0.4580712616443634,-0.23254619538784027,1.0753228664398193,-8.468324661254883,-24.832088470458984,-0.7450363039970398,-0.6284685730934143,-0.8234587907791138,-0.27148643136024475,-1.91810142993927,0.5644059181213379,-2.2774770259857178
93,158901,158902,-0.3701706528663635,-0.0531599335372448,1.0724319219589233,0.48977071046829224,-23.7141170501709,-1.4364292621612549,-0.6179690957069397,-0.8309584259986877,-0.26098695397377014,-1.6764439344406128,0.5409440398216248,-2.281064510345459
94,158911,158912,-0.4628254771232605,0.05582616850733757,1.099700689315796,6.516279697418213,-15.813886642456055,-2.1347780227661133,-0.6254687309265137,-0.8234587907791138,-0.27148643136024475,-1.459568738937378,0.4937531352043152,-2.3053009510040283
95,158921,158922,-0.3074192404747009,0.15913543105125427,1.0957621335983276,15.65664291381836,-15.996095657348633,-2.8148036003112793,-0.622468888759613,-0.8144592642784119,-0.2654867172241211,-1.3485405445098877,0.6421771049499512,-2.314423084259033
96,158931,158932,-0.07903828471899033,-0.0367753803730011,0.9932065606117249,22.476900100708008,-8.082717895507812,-4.522006511688232,-0.6119694113731384,-0.8219588994979858,-0.2639867961406708,-1.2276784181594849,0.7673068046569824,-2.343566656112671
97,158941,158942,-0.09485207498073578,-0.15487663447856903,0.97727370262146,33.52359390258789,-0.10630393773317337,-6.670938491821289,-0.6179690957069397,-0.8069596290588379,-0.25198739767074585,-1.1510905027389526,1.0557904243469238,-2.3971076011657715
98,158951,158952,-0.11662662774324417,-0.1744532734155655,0.9281918406486511,32.63383102416992,9.293749809265137,-6.6129374504089355,-0.6329683661460876,-0.8099594712257385,-0.26098695397377014,-1.2218948602676392,1.5654308795928955,-2.454115629196167
99,158961,158962,-0.20654064416885376,-0.3442735970020294,0.9435517191886902,21.119661331176758,17.269214630126953,-7.321355819702148,-0.6329683661460876,-0.8219588994979858,-0.25198739767074585,-1.2963947057724,1.683095932006836,-2.5235917568206787
100,158971,158972,-0.08146189153194427,-0.3108269274234772,0.9688637852668762,4.6756463050842285,17.647573471069336,-8.677190780639648,-0.6359682083129883,-0.8309584259986877,-0.26098695397377014,-1.5141582489013672,1.852768063545227,-2.589395761489868
101,158981,158982,-0.2995832562446594,-0.3334859311580658,1.0406463146209717,-8.063257217407227,6.586080074310303,-8.058940887451172,-0.6254687309265137,-0.8204589486122131,-0.26248687505722046,-1.4945333003997803,1.862174391746521,-2.694675922393799
102,158991,158992,-0.3475552797317505,-0.42798227071762085,1.0272778272628784,-21.205347061157227,-2.6108078956604004,-8.233543395996094,-0.6149692535400391,-0.8249587416648865,-0.2639867961406708,-1.539766550064087,1.6566776037216187,-2.7720906734466553
103,159001,159002,-0.23988154530525208,-0.3567146360874176,1.0408722162246704,-32.98137664794922,-10.117198944091797,-7.448911666870117,-0.6134693026542664,-0.8174591064453125,-0.27148643136024475,-1.4385842084884644,1.392572045326233,-2.8585023880004883
104,159011,159012,-0.16151931881904602,-0.44427043199539185,0.9761494994163513,-37.1511116027832,-14.170909881591797,-7.158783912658691,-0.6134693026542664,-0.8144592642784119,-0.2564871609210968,-1.244634747505188,1.1268055438995361,-2.9464468955993652
105,159021,159022,-0.12279412150382996,-0.11524930596351624,0.9333239793777466,-32.53066635131836,-16.367015838623047,-9.024909019470215,-0.623968780040741,-0.8159592151641846,-0.2639867961406708,-1.147783637046814,0.6456098556518555,-3.0146543979644775
106,159031,159032,-0.17147056758403778,-0.07752889394760132,1.0806742906570435,-24.102338790893555,-14.05186653137207,-8.550309181213379,-0.623968780040741,-0.8219588994979858,-0.2639867961406708,-0.9605441689491272,0.4156203866004944,-3.1130354404449463
107,159041,159042,-0.1542862504720688,0.03469301760196686,1.1123827695846558,-0.4071793556213379,-5.268744468688965,-10.789294242858887,-0.616469144821167,-0.8084595799446106,-0.2654867172241211,-0.8133717775344849,0.22897140681743622,-3.209622621536255
108,159051,159052,-0.09104019403457642,0.04162038862705231,1.1102238893508911,23.23573112487793,-0.29212677478790283,-9.400558471679688,-0.6254687309265137,-0.8114594221115112,-0.2654867172241211,-0.7843574285507202,0.4944727420806885,-3.3390958309173584
109,159061,159062,-0.06314468383789062,0.23291856050491333,1.1250510215759277,43.74737548828125,9.926117897033691,-9.038671493530273,-0.6344682574272156,-0.8144592642784119,-0.25348731875419617,-0.9486634731292725,0.8224278092384338,-3.4257724285125732
110,159071,159072,-0.09448442608118057,0.09001367539167404,1.109480619430542,59.53695297241211,14.695328712463379,-5.6485419273376465,-0.6179690957069397,-0.8339582681655884,-0.2549872398376465,-1.1422666311264038,1.380077600479126,-3.5058350563049316
111,159081,159082,-0.19706934690475464,0.1532631665468216,1.0820990800857544,61.170387268066406,20.65481185913086,-4.939840316772461,-0.6329683661460876,-0.8339582681655884,-0.2669866383075714,-1.1459205150604248,1.9449442625045776,-3.5657427310943604
112,159091,159092,-0.27466195821762085,0.0848287045955658,1.2543216943740845,43.63463592529297,18.88617515563965,-3.4602138996124268,-0.6404679417610168,-0.8324583768844604,-0.2594870328903198,-1.4428964853286743,2.523787021636963,-3.5937581062316895
113,159101,159102,-0.43111348152160645,-0.6407834887504578,0.9835202097892761,17.309581756591797,19.617923736572266,-3.1052751541137695,-0.6449677348136902,-0.8159592151641846,-0.26098695397377014,-1.6581015586853027,2.8065261840820312,-3.6065146923065186
114,159111,159112,-0.47388985753059387,-0.3141539692878723,0.9522664546966553,-11.24105453491211,11.40251350402832,-1.6283098459243774,-0.6374680995941162,-0.8174591064453125,-0.25348731875419617,-1.6886875629425049,2.8595800399780273,-3.6233930587768555
115,159121,159122,-1.1263450384140015,-0.12134763598442078,1.020566701889038,-31.5380916595459,-2.2509825229644775,-0.11125228554010391,-0.6419678926467896,-0.7919603586196899,-0.23998799920082092,-1.7154293060302734,2.529688835144043,-3.6148104667663574
116,159131,159132,-1.1483063697814941,-0.17539788782596588,0.9694153666496277,-50.7580451965332,-17.38767433166504,0.6859422326087952,-0.6419678926467896,-0.7919603586196899,-0.23998799920082092,-1.7009291648864746,2.275803327560425,-3.6305394172668457
117,159141,159142,-0.46841931343078613,-0.43257075548171997,1.0899418592453003,-56.1193733215332,-31.489543914794922,2.1218812465667725,-0.6419678926467896,-0.7919603586196899,-0.23998799920082092,-1.4255305528640747,1.5338451862335205,-3.6022369861602783
118,159151,159152,-0.6922821998596191,-0.3827224373817444,1.0115031003952026,-55.426795959472656,-44.17855453491211,4.077925205230713,-0.6419678926467896,-0.7919603586196899,-0.23998799920082092,-1.0041980743408203,1.2481006383895874,-3.614417552947998
119,159161,159162,-0.42006587982177734,-0.3336125910282135,0.9724721312522888,-45.73753356933594,-50.60462951660156,5.981930255889893,-0.623968780040741,-0.8039597868919373,-0.26098695397377014,-0.44019919633865356,0.625175416469574,-3.563568115234375
120,159171,159172,-0.2589762806892395,-0.3732213079929352,0.935886561870575,-34.195884704589844,-54.08243179321289,7.234226226806641,-0.6179690957069397,-0.7919603586196899,-0.24298784136772156,0.20658200979232788,0.10330256074666977,-3.4890284538269043
121,159181,159182,-0.09834536164999008,-0.1308467984199524,0.9447864890098572,-22.590213775634766,-41.89179611206055,7.503472805023193,-0.6179690957069397,-0.7949602603912354,-0.24898754060268402,0.496487557888031,-0.01805981434881687,-3.4503750801086426
122,159191,159192,-0.12457089126110077,-0.11721716821193695,1.0047794580459595,-5.256759166717529,-23.498178482055664,5.791228294372559,-0.6074696183204651,-0.80545973777771,-0.25348731875419617,0.9071505665779114,-0.2082645446062088,-3.378850221633911
123,159201,159202,-0.0895925834774971,-0.05465054512023926,0.9980036020278931,13.131738662719727,-3.1686737537384033,4.076947212219238,-0.6254687309265137,-0.7964601516723633,-0.2474876195192337,1.0479035377502441,-0.09314703941345215,-3.348142623901367
124,159211,159212,-0.06365099549293518,-0.26067617535591125,0.9939836859703064,25.772262573242188,13.050220489501953,3.7040493488311768,-0.623968780040741,-0.7949602603912354,-0.23398829996585846,0.96834796667099,0.11322937905788422,-3.3173389434814453
125,159221,159222,-0.006611659191548824,-0.08346042037010193,0.9502727389335632,30.927705764770508,28.38347816467285,1.114034652709961,-0.6314684152603149,-0.790460467338562,-0.24448777735233307,0.6341984272003174,0.3997982144355774,-3.2791523933410645
126,159231,159232,0.06972460448741913,-0.017178861424326897,0.9283817410469055,25.569442749023438,39.695125579833984,-0.517136812210083,-0.6359682083129883,-0.7889605164527893,-0.2549872398376465,0.37776708602905273,0.5542517304420471,-3.230558395385742
127,159241,159242,-0.06768764555454254,0.015270405448973179,1.0026190280914307,12.658477783203125,42.15787887573242,-2.804197072982788,-0.6254687309265137,-0.7964601516723633,-0.2564871609210968,-0.07455280423164368,0.7857057452201843,-3.2288787364959717
128,159251,159252,-0.4688682556152344,-0.006411136128008366,1.1100057363510132,-1.0183249711990356,35.685367584228516,-3.8927032947540283,-0.6359682083129883,-0.7919603586196899,-0.2549872398376465,-0.37129974365234375,0.8606273531913757,-3.2556262016296387
129,159261,159262,-0.6952073574066162,0.005855749361217022,0.9183745384216309,-11.734368324279785,26.02939796447754,-4.14050817489624,-0.6404679417610168,-0.7964601516723633,-0.2474876195192337,-0.8900713920593262,0.7397623062133789,-3.249023675918579
130,159271,159272,-1.0775188207626343,-0.282846599817276,1.155794620513916,-17.988279342651367,8.956082344055176,-3.6023736000061035,-0.6344682574272156,-0.7934603095054626,-0.25048747658729553,-1.0188543796539307,0.47963619232177734,-3.2609617710113525
131,159281,159282,-1.1708792448043823,-0.44391509890556335,1.0477648973464966,-18.840129852294922,-7.05734920501709,-0.6097174882888794,-0.6419678926467896,-0.7889605164527893,-0.2549872398376465,-1.0052815675735474,0.431941419839859,-3.3320226669311523
132,159291,159292,-0.7307791113853455,-0.4356290400028229,1.1606128215789795,-18.13143539428711,-22.33427619934082,1.5536726713180542,-0.6269686222076416,-0.8039597868919373,-0.23098844289779663,-0.7343745827674866,0.24561110138893127,-3.348602294921875
133,159301,159302,-0.3018092215061188,-0.45900192856788635,0.9627295136451721,-14.097573280334473,-28.499767303466797,1.9384992122650146,-0.6329683661460876,-0.8039597868919373,-0.24298784136772156,-0.4609459638595581,0.1087033748626709,-3.345975160598755
134,159311,159312,-0.19053389132022858,-0.12177707999944687,0.8779346346855164,-13.716743469238281,-29.846797943115234,3.176403284072876,-0.622468888759613,-0.8024598360061646,-0.25348731875419617,-0.19419969618320465,0.0033610418904572725,-3.328526258468628
135,159321,159322,-0.11848672479391098,-0.18356940150260925,0.8767032623291016,-15.565312385559082,-21.662609100341797,4.201574325561523,-0.6269686222076416,-0.8009599447250366,-0.24298784136772156,0.14313533902168274,-0.11659713834524155,-3.310256004333496
136,159331,159332,-0.022564059123396873,-0.14189082384109497,0.9001485705375671,-15.536231994628906,-16.748504638671875,5.370476245880127,-0.6329683661460876,-0.8039597868919373,-0.2549872398376465,0.45288798213005066,-0.3345966339111328,-3.2617390155792236
137,159341,159342,-0.10020403563976288,-0.20663957297801971,0.9273648858070374,-11.44759464263916,-11.34506607055664,6.115110397338867,-0.6149692535400391,-0.7859606742858887,-0.24298784136772156,0.6030547618865967,-0.5107489824295044,-3.196455240249634
138,159351,159352,-0.20323209464550018,-0.3311927914619446,0.8727467060089111,-10.122725486755371,-1.3985668420791626,5.202865123748779,-0.6179690957069397,-0.797960102558136,-0.2549872398376465,0.6154485940933228,-0.6327843070030212,-3.1201703548431396
139,159361,159362,-0.09889915585517883,-0.2578158378601074,0.8769376873970032,-9.798345565795898,10.79749584197998,2.536905527114868,-0.616469144821167,-0.7754611968994141,-0.25048747658729553,0.40547114610671997,-0.7486336827278137,-3.0389211177825928
140,159371,159372,-0.17765115201473236,-0.29391399025917053,0.9527266025543213,-5.978375434875488,25.229236602783203,1.876444935798645,-0.6149692535400391,-0.8039597868919373,-0.24298784136772156,0.3429371118545532,-0.7503735423088074,-3.054831027984619
141,159381,159382,-0.20999185740947723,-0.23362305760383606,0.8384145498275757,-2.331022024154663,34.49982452392578,2.496779441833496,-0.6314684152603149,-0.7934603095054626,-0.25348731875419617,-0.0007507709669880569,-0.7716364860534668,-3.0367865562438965
142,159391,159392,-0.36377233266830444,-0.24768663942813873,0.9363262057304382,3.170337438583374,33.73552322387695,1.8639655113220215,-0.616469144821167,-0.80545973777771,-0.25348731875419617,-0.33551040291786194,-0.8058422207832336,-3.0183725357055664
143,159401,159402,-0.25146472454071045,-0.3683113753795624,0.9734039306640625,8.690299034118652,22.51102638244629,2.493886709213257,-0.623968780040741,-0.8099594712257385,-0.24898754060268402,-0.43954166769981384,-0.7206079959869385,-3.0583462715148926
144,159411,159412,-0.26816168427467346,-0.4108448922634125,0.9467566013336182,8.975356101989746,5.587696552276611,4.838621139526367,-0.623968780040741,-0.8099594712257385,-0.26098695397377014,-0.5441316962242126,-0.6628645062446594,-3.0390851497650146
145,159421,159422,-0.18885083496570587,-0.49886012077331543,0.9006186127662659,7.8925042152404785,-7.40283203125,3.096156358718872,-0.622468888759613,-0.8114594221115112,-0.2654867172241211,-0.5534886717796326,-0.6144653558731079,-2.9885518550872803
146,159431,159432,-0.0904170349240303,-0.17489509284496307,0.8282366394996643,5.455314636230469,-18.636260986328125,1.9539231061935425,-0.6119694113731384,-0.8069596290588379,-0.26998651027679443,-0.3571305274963379,-0.44940871000289917,-3.0033774375915527
147,159441,159442,-0.0870005339384079,-0.03495318815112114,0.9003881812095642,5.013243675231934,-19.902141571044922,2.056946277618408,-0.616469144821167,-0.8084595799446106,-0.26848655939102173,-0.0639151930809021,-0.4599790573120117,-2.991870403289795
148,159451,159452,-0.1338886022567749,-0.05321129783987999,1.0219429731369019,5.18800687789917,-20.360158920288086,3.2211861610412598,-0.6134693026542664,-0.8234587907791138,-0.26848655939102173,0.10414730757474899,-0.39358946681022644,-2.96207332611084
149,159461,159462,-0.1029665470123291,-0.09245534986257553,1.010358214378357,1.8845415115356445,-18.411418914794922,4.557538986206055,-0.6104694604873657,-0.8354582190513611,-0.2654867172241211,0.25969886779785156,-0.48485609889030457,-2.8757777214050293
150,159471,159472,-0.12906064093112946,-0.09656435251235962,0.9976343512535095,-4.490951061248779,-5.469818592071533,3.7990968227386475,-0.6134693026542664,-0.8204589486122131,-0.27148643136024475,0.41795116662979126,-0.5117709040641785,-2.820789098739624
151,159481,159482,-0.05370667204260826,0.14101313054561615,0.9852408766746521,-12.146677017211914,7.420097351074219,1.3125901222229004,-0.5969701409339905,-0.8249587416648865,-0.2669866383075714,0.22465400397777557,-0.6443158984184265,-2.7165563106536865
152,159491,159492,-0.08032210916280746,-0.003163648769259453,0.9471182227134705,-20.973867416381836,18.533300399780273,-2.343564033508301,-0.6059696674346924,-0.8219588994979858,-0.2669866383075714,0.1571299433708191,-0.8482781648635864,-2.703062057495117
153,159501,159502,-0.14155001938343048,-0.03647396340966225,1.0236140489578247,-20.876005172729492,38.31081771850586,-6.667226791381836,-0.6014699339866638,-0.8294585347175598,-0.27148643136024475,0.03450855240225792,-1.120720624923706,-2.7521700859069824
154,159511,159512,-0.16525523364543915,0.03450876101851463,1.1342309713363647,-8.963995933532715,51.31239318847656,-11.155141830444336,-0.6119694113731384,-0.8189590573310852,-0.2579870820045471,-0.5790824294090271,-1.2115871906280518,-2.8131637573242188
155,159521,159522,-0.34763583540916443,0.028303923085331917,1.0761783123016357,3.789726972579956,54.147705078125,-14.660449981689453,-0.6029698252677917,-0.8249587416648865,-0.26098695397377014,-0.8805490136146545,-1.246077299118042,-3.0059101581573486
156,159531,159532,-0.1655091941356659,-0.02537858672440052,1.0315124988555908,13.545392990112305,47.128265380859375,-16.316503524780273,-0.616469144821167,-0.8234587907791138,-0.26848655939102173,-1.6009039878845215,-1.024025559425354,-3.1571459770202637
157,159541,159542,-0.237738236784935,-0.03916515037417412,1.033409833908081,19.36446762084961,28.521947860717773,-14.830108642578125,-0.6374680995941162,-0.8234587907791138,-0.2564871609210968,-1.8159093856811523,-0.8300503492355347,-3.391505479812622
158,159551,159552,-0.49488967657089233,-0.3112422525882721,1.0616202354431152,22.521528244018555,5.738794326782227,-10.975811958312988,-0.6329683661460876,-0.8189590573310852,-0.2669866383075714,-2.1314361095428467,-0.6365006566047668,-3.51371169090271
159,159561,159562,-0.5898387432098389,-0.621957540512085,0.9556387066841125,17.788963317871094,-14.750347137451172,-7.271118640899658,-0.6329683661460876,-0.8069596290588379,-0.26098695397377014,-2.0961973667144775,-0.45487797260284424,-3.6256747245788574
160,159571,159572,-0.25339752435684204,-0.7777661085128784,1.038415551185608,9.325467109680176,-39.489036560058594,-2.4318201541900635,-0.6269686222076416,-0.8189590573310852,-0.2639867961406708,-1.6647460460662842,-0.38659581542015076,-3.7319324016571045
161,159581,159582,-0.07777485996484756,-0.12694218754768372,1.0544681549072266,-0.0060854461044073105,-55.64735412597656,-0.49128246307373047,-0.6209689378738403,-0.8159592151641846,-0.27298635244369507,-1.137900710105896,-0.31172341108322144,-3.7750747203826904
162,159591,159592,-0.18103085458278656,-0.025846494361758232,1.0126407146453857,-6.3125104904174805,-63.49618148803711,3.078220844268799,-0.616469144821167,-0.8234587907791138,-0.2654867172241211,-0.7573235630989075,-0.49399617314338684,-3.701643943786621
163,159601,159602,-0.0427030585706234,0.03235752135515213,1.0526838302612305,-10.885476112365723,-57.98542022705078,3.8095831871032715,-0.6044697761535645,-0.8144592642784119,-0.26848655939102173,0.01942817121744156,-0.6126757264137268,-3.6970975399017334
164,159611,159612,-0.11156792938709259,-0.14504466950893402,1.0918128490447998,-13.02258586883545,-36.39103698730469,6.28938627243042,-0.5969701409339905,-0.8129593133926392,-0.2549872398376465,0.41717520356178284,-0.7836155295372009,-3.606292247772217
165,159621,159622,-0.11580207943916321,-0.1813439428806305,1.086482286453247,-10.164949417114258,-7.705209255218506,5.627202033996582,-0.6029698252677917,-0.8189590573310852,-0.26098695397377014,0.4755719006061554,-0.8809770941734314,-3.4879095554351807
166,159631,159632,-0.1016191765666008,-0.028462348505854607,1.0592530965805054,-3.0452215671539307,16.897737503051758,4.565134048461914,-0.6104694604873657,-0.80545973777771,-0.2594870328903198,0.3904332220554352,-0.9607030749320984,-3.4092817306518555
167,159641,159642,-0.13107669353485107,-0.08109618723392487,1.0609824657440186,11.43266773223877,34.006858825683594,4.124423503875732,-0.6029698252677917,-0.797960102558136,-0.2669866383075714,0.11781074851751328,-0.9398055076599121,-3.3581783771514893
168,159651,159652,-0.08867091685533524,-0.30930474400520325,1.0656532049179077,28.231950759887695,44.435707092285156,3.839836597442627,-0.616469144821167,-0.80545973777771,-0.25048747658729553,-0.3074008524417877,-0.6600246429443359,-3.329129934310913
169,159661,159662,-0.08728818595409393,-0.19616040587425232,1.0029330253601074,45.99494934082031,47.22806930541992,3.4757041931152344,-0.6284685730934143,-0.8114594221115112,-0.2594870328903198,-0.7619407773017883,-0.09928176552057266,-3.3288357257843018
170,159671,159672,-0.10534831136465073,-0.07587867230176926,0.9987127184867859,53.279541015625,38.18340301513672,3.579038619995117,-0.6269686222076416,-0.8189590573310852,-0.26098695397377014,-1.0898966789245605,0.025486595928668976,-3.275874137878418
171,159681,159682,-0.6127188801765442,-0.33288300037384033,0.9489231705665588,44.44462585449219,20.154216766357422,4.012325763702393,-0.6254687309265137,-0.8144592642784119,-0.26248687505722046,-1.477628231048584,0.7114487886428833,-3.2418627738952637
172,159691,159692,-0.8020389676094055,-0.33437085151672363,0.9841712713241577,23.27031898498535,2.1641669273376465,4.0993571281433105,-0.6434678435325623,-0.8024598360061646,-0.2474876195192337,-1.494045615196228,0.8048928380012512,-3.1962478160858154
173,159701,159702,-0.2370278239250183,-0.10555355250835419,1.003998875617981,-2.7465715408325195,-16.395322799682617,2.596684694290161,-0.6494675278663635,-0.8144592642784119,-0.26248687505722046,-1.3551498651504517,1.0220601558685303,-3.182288885116577
174,159711,159712,-0.16685403883457184,-0.1881069540977478,1.0288245677947998,-25.443254470825195,-30.149574279785156,-0.2737235128879547,-0.6179690957069397,-0.8069596290588379,-0.2549872398376465,-1.033921718597412,0.8956834077835083,-3.1813700199127197
175,159721,159722,-0.2582820951938629,-0.1805509328842163,1.046684741973877,-35.1314582824707,-33.217655181884766,-3.4223859310150146,-0.623968780040741,-0.8249587416648865,-0.2579870820045471,-0.5777809023857117,0.5689101815223694,-3.213775634765625
176,159731,159732,-0.4740767180919647,-0.42915624380111694,0.9952525496482849,-30.31499671936035,-26.379804611206055,-5.2790937423706055,-0.6149692535400391,-0.8129593133926392,-0.26998651027679443,-0.37633082270622253,0.212110236287117,-3.2392427921295166
177,159741,159742,-0.3116040527820587,-0.05407508462667465,1.1169140338897705,-21.11161994934082,-15.39939022064209,-6.160638332366943,-0.6299684643745422,-0.8099594712257385,-0.2549872398376465,-0.23395830392837524,-0.025002576410770416,-3.2871015071868896
178,159751,159752,-0.11692208796739578,0.03827222064137459,1.0324910879135132,-8.43182373046875,1.0391569137573242,-7.448990345001221,-0.6059696674346924,-0.8009599447250366,-0.2549872398376465,-0.0571414940059185,-0.09206585586071014,-3.368058443069458
179,159761,159762,-0.03205813094973564,0.1369335800409317,1.0662000179290771,6.33371639251709,17.461740493774414,-6.584134578704834,-0.6284685730934143,-0.8024598360061646,-0.2594870328903198,-0.2189049869775772,-0.09210550785064697,-3.4326565265655518
180,159771,159772,-0.10688929259777069,0.05381768196821213,1.0578420162200928,21.60554313659668,24.220808029174805,-7.060608386993408,-0.6389680504798889,-0.7859606742858887,-0.25198739767074585,-0.5563280582427979,-0.04369533434510231,-3.4796950817108154
181,159781,159782,-0.07910868525505066,-0.08292103558778763,0.923674464225769,30.385337829589844,25.653825759887695,-9.650294303894043,-0.6314684152603149,-0.8024598360061646,-0.2594870328903198,-0.7446275949478149,0.32979318499565125,-3.5705392360687256
182,159791,159792,-0.05984259024262428,-0.1516299843788147,0.967317521572113,31.440643310546875,23.32917594909668,-11.354460716247559,-0.6359682083129883,-0.7949602603912354,-0.24298784136772156,-0.9436004161834717,0.5026161670684814,-3.6639339923858643
183,159801,159802,-0.5056899785995483,-0.35820746421813965,0.9874616861343384,30.684505462646484,17.015546798706055,-10.278428077697754,-0.6374680995941162,-0.790460467338562,-0.2474876195192337,-1.1507831811904907,0.8881634473800659,-3.780107259750366
184,159811,159812,-0.49593988060951233,-0.07891733944416046,1.0193451642990112,30.42544937133789,6.051148414611816,-7.768060684204102,-0.6314684152603149,-0.8024598360061646,-0.25048747658729553,-1.3236374855041504,1.0580854415893555,-3.866481065750122
185,159821,159822,-0.1380956918001175,0.018212558701634407,0.981863260269165,22.813425064086914,3.216362476348877,-2.932880401611328,-0.6404679417610168,-0.8024598360061646,-0.24448777735233307,-1.3783628940582275,1.3732489347457886,-3.9324047565460205
186,159831,159832,-0.8432608246803284,-0.19321715831756592,1.059693694114685,16.49502944946289,-2.5436806678771973,1.1902188062667847,-0.6374680995941162,-0.8114594221115112,-0.2594870328903198,-1.3505408763885498,1.5746618509292603,-3.9504528045654297
187,159841,159842,-1.114367127418518,-0.633985161781311,0.8050355315208435,11.25992488861084,-9.45442008972168,1.9925758838653564,-0.6404679417610168,-0.8174591064453125,-0.2564871609210968,-1.2466719150543213,1.7103183269500732,-3.9399282932281494
188,159851,159852,-0.7551292777061462,-0.7790114879608154,0.9374275803565979,-4.924856185913086,-14.798160552978516,3.2262344360351562,-0.6329683661460876,-0.797960102558136,-0.2579870820045471,-1.063522458076477,1.730381965637207,-3.9164111614227295
189,159861,159862,-0.3181191682815552,-0.6919596791267395,0.95661860704422,-18.74834442138672,-17.38002586364746,2.981196641921997,-0.6284685730934143,-0.80545973777771,-0.2654867172241211,-0.9397688508033752,1.696496605873108,-3.888476848602295
190,159871,159872,-0.3500167727470398,-0.701413631439209,0.982591986656189,-32.48057556152344,-14.72741413116455,2.293581962585449,-0.6254687309265137,-0.8024598360061646,-0.27148643136024475,-0.6636471748352051,1.3640416860580444,-3.8583014011383057
191,159881,159882,-0.7077123522758484,-0.5119177103042603,0.9462453722953796,-41.8325309753418,-12.96142292022705,2.1199960708618164,-0.6194689869880676,-0.8144592642784119,-0.25048747658729553,-0.6312243938446045,1.0553287267684937,-3.845836877822876
192,159891,159892,-0.18555712699890137,0.0021831486374139786,1.0022718906402588,-39.29033279418945,-7.15303897857666,1.9534177780151367,-0.6104694604873657,-0.8024598360061646,-0.2654867172241211,-0.4406464695930481,0.614403486251831,-3.821730136871338
193,159901,159902,-0.13969509303569794,-0.061546072363853455,1.105989933013916,-25.42354965209961,-2.332180976867676,2.103626012802124,-0.6269686222076416,-0.8099594712257385,-0.2549872398376465,-0.4937434494495392,0.2512962520122528,-3.810809850692749
194,159911,159912,-0.28360068798065186,-0.4448011815547943,1.016714334487915,-2.6524651050567627,1.1555957794189453,1.5181416273117065,-0.6194689869880676,-0.8144592642784119,-0.2654867172241211,-0.46083858609199524,0.11355709284543991,-3.793057918548584
195,159921,159922,-0.38354018330574036,-0.24161210656166077,1.0035691261291504,21.3602237701416,1.8028446435928345,0.5374100804328918,-0.6389680504798889,-0.8099594712257385,-0.25198739767074585,-0.46101805567741394,0.2889828383922577,-3.783867359161377
196,159931,159932,-0.16655601561069489,-0.055954352021217346,1.042657732963562,41.067588806152344,2.3242380619049072,2.0800814628601074,-0.6329683661460876,-0.8249587416648865,-0.2549872398376465,-0.47549501061439514,0.5375140309333801,-3.7746176719665527
197,159941,159942,-0.2473675012588501,-0.25590309500694275,0.9656661748886108,50.988826751708984,1.0239664316177368,4.631754398345947,-0.6479675769805908,-0.8309584259986877,-0.26098695397377014,-0.4142020046710968,1.0904219150543213,-3.748659372329712
198,159951,159952,-0.46136555075645447,-0.3733285963535309,0.9837265014648438,48.41211700439453,-2.5296671390533447,5.748354911804199,-0.6284685730934143,-0.8294585347175598,-0.2594870328903198,-0.4651646316051483,1.756851077079773,-3.706770896911621
199,159961,159962,-0.32169023156166077,-0.33623555302619934,0.9784191250801086,35.800506591796875,-9.237943649291992,7.234058380126953,-0.6314684152603149,-0.8264586329460144,-0.26848655939102173,-0.3580733835697174,2.0154764652252197,-3.636592388153076
200,159971,159972,-0.1692013442516327,-0.10797455906867981,0.9562326669692993,15.095541000366211,-12.859312057495117,7.0546441078186035,-0.6344682574272156,-0.8174591064453125,-0.26248687505722046,-0.24490495026111603,2.2878830432891846,-3.5669116973876953
201,159981,159982,-0.2301865965127945,-0.23965030908584595,0.987970232963562,-11.937169075012207,-10.457550048828125,5.749707221984863,-0.623968780040741,-0.8219588994979858,-0.2549872398376465,-0.1093248724937439,2.3032913208007812,-3.4991180896759033
202,159991,159992,-0.33528512716293335,-0.37873461842536926,0.913926899433136,-33.1429443359375,-6.079238414764404,2.9916629791259766,-0.6179690957069397,-0.8249587416648865,-0.27898603677749634,-0.09180449694395065,2.0008127689361572,-3.453305244445801
203,160001,160002,-0.4461769163608551,-0.7671745419502258,0.9735758304595947,-43.854164123535156,-2.540910482406616,0.31294941902160645,-0.623968780040741,-0.8159592151641846,-0.26098695397377014,0.0021038325503468513,1.5113462209701538,-3.416579246520996
204,160011,160012,-0.18322570621967316,-0.8117092251777649,0.946370542049408,-41.84073257446289,-0.07343777269124985,-1.1548455953598022,-0.6074696183204651,-0.80545973777771,-0.2654867172241211,-0.03012944757938385,1.2383793592453003,-3.4360852241516113
205,160021,160022,-0.0676456168293953,-0.10995975136756897,1.0191333293914795,-33.39215087890625,2.30682635307312,-2.2974467277526855,-0.6074696183204651,-0.8174591064453125,-0.26248687505722046,-0.09629794955253601,0.7624653577804565,-3.4554638862609863
206,160031,160032,-0.2678307592868805,-0.17672301828861237,0.9899733662605286,-23.205707550048828,5.213593006134033,-0.6982483267784119,-0.623968780040741,-0.8069596290588379,-0.2579870820045471,-0.12071710079908371,0.717586100101471,-3.4984524250030518
207,160041,160042,-0.14255709946155548,-0.029286619275808334,1.0430142879486084,-5.559179782867432,7.260491371154785,-0.7467047572135925,-0.6329683661460876,-0.8129593133926392,-0.2549872398376465,-0.199401393532753,0.4573970437049866,-3.503476858139038
208,160051,160052,-0.37865206599235535,-0.2052091658115387,1.029260516166687,13.690252304077148,3.4260551929473877,1.5517395734786987,-0.6269686222076416,-0.8159592151641846,-0.2579870820045471,-0.19573837518692017,0.5171431303024292,-3.5006725788116455
209,160061,160062,-0.20576375722885132,-0.08752095699310303,1.0049031972885132,26.16049575805664,1.6073009967803955,4.122376441955566,-0.6254687309265137,-0.8234587907791138,-0.24448777735233307,-0.20468497276306152,0.7588622570037842,-3.483415126800537
210,160071,160072,-0.2958833575248718,-0.16134506464004517,0.9754709601402283,29.060707092285156,0.37737584114074707,5.396785259246826,-0.622468888759613,-0.8264586329460144,-0.2654867172241211,-0.19554197788238525,1.0491845607757568,-3.4390575885772705
211,160081,160082,-0.22119084000587463,-0.2318332940340042,1.0044080018997192,20.734895706176758,2.260887622833252,6.633333206176758,-0.622468888759613,-0.8264586329460144,-0.2654867172241211,-0.20253507792949677,1.2990494966506958,-3.379216194152832
212,160091,160092,-0.6039339900016785,-0.1910257488489151,1.0199620723724365,7.4723711013793945,3.2753288745880127,6.711776256561279,-0.622468888759613,-0.8264586329460144,-0.2654867172241211,-0.24747014045715332,1.3740026950836182,-3.303603410720825
213,160101,160102,-1.0980565547943115,-0.6946195363998413,0.952703595161438,-10.544965744018555,2.458967685699463,4.614604473114014,-0.6254687309265137,-0.8204589486122131,-0.2654867172241211,-0.22425714135169983,1.3993433713912964,-3.234916925430298
214,160111,160112,-0.9237111806869507,-0.6222745776176453,1.0082216262817383,-28.420507431030273,-0.5830742120742798,4.167979717254639,-0.6344682574272156,-0.8174591064453125,-0.26248687505722046,-0.22532446682453156,1.1952273845672607,-3.1816012859344482
215,160121,160122,-0.4589100182056427,-0.6214845180511475,1.050917148590088,-40.98473358154297,1.313179612159729,2.8426320552825928,-0.6194689869880676,-0.8234587907791138,-0.2654867172241211,-0.2144060879945755,0.742598831653595,-3.1281721591949463
216,160131,160132,-0.19642290472984314,-0.7448631525039673,0.9434834122657776,-45.09153747558594,1.1716629266738892,2.894404649734497,-0.6194689869880676,-0.8144592642784119,-0.26248687505722046,-0.21214859187602997,0.5049915313720703,-3.1160831451416016
217,160141,160142,-0.14750708639621735,-0.38057541847229004,0.9828319549560547,-39.5481071472168,-5.889171600341797,4.351433277130127,-0.6149692535400391,-0.8159592151641846,-0.25198739767074585,-0.22320044040679932,0.06924319267272949,-3.080519437789917
218,160151,160152,-0.1435336470603943,-0.22811461985111237,0.9828876256942749,-33.197731018066406,-10.292325973510742,2.9339661598205566,-0.6089695692062378,-0.8129593133926392,-0.2639867961406708,-0.1339525729417801,-0.27488240599632263,-3.0411760807037354
219,160161,160162,-0.338871031999588,-0.3361879885196686,1.0386676788330078,-24.19504737854004,-8.10807991027832,1.26909339427948,-0.6209689378738403,-0.8249587416648865,-0.2639867961406708,-0.1074603796005249,-0.5594477653503418,-3.0222294330596924
220,160171,160172,-0.34390875697135925,0.018820207566022873,1.015626072883606,-12.379057884216309,-3.1923773288726807,0.15048685669898987,-0.6269686222076416,-0.8099594712257385,-0.26098695397377014,0.007618633098900318,-0.8270125389099121,-3.004182815551758
221,160181,160182,-0.6233969330787659,-0.2381359189748764,1.0110015869140625,2.483989715576172,5.212987422943115,0.42521047592163086,-0.6119694113731384,-0.8009599447250366,-0.26098695397377014,-0.0019877152517437935,-0.6538223624229431,-3.0293073654174805
222,160191,160192,-0.5293018221855164,-0.5510273575782776,0.9909098744392395,13.178007125854492,10.775625228881836,0.7077385783195496,-0.6089695692062378,-0.8099594712257385,-0.2549872398376465,-0.12058763951063156,-0.6408487558364868,-3.0226216316223145
223,160201,160202,-0.20326466858386993,-0.19099345803260803,1.0017427206039429,21.079421997070312,13.372857093811035,1.6382607221603394,-0.6254687309265137,-0.8114594221115112,-0.2564871609210968,-0.24157264828681946,-0.5412778258323669,-3.0074028968811035
224,160211,160212,-0.0571213960647583,-0.07301231473684311,1.0111830234527588,21.918842315673828,12.986324310302734,1.9644358158111572,-0.622468888759613,-0.7994599938392639,-0.2474876195192337,-0.38152042031288147,-0.29779160022735596,-2.994201183319092
225,160221,160222,0.0029408051632344723,-0.23088963329792023,1.022104263305664,18.755605697631836,6.844592094421387,4.382382392883301,-0.6359682083129883,-0.8039597868919373,-0.2549872398376465,-0.4728145897388458,-0.08343103528022766,-2.971468448638916
226,160231,160232,-0.1258060336112976,-0.5528920292854309,0.9824364185333252,13.054492950439453,-5.121682167053223,5.22702693939209,-0.6359682083129883,-0.8099594712257385,-0.25198739767074585,-0.5420601963996887,0.0726093128323555,-2.924492120742798
227,160241,160242,-0.08326157927513123,-0.29011839628219604,1.011234998703003,3.9188365936279297,-16.12159538269043,4.510860919952393,-0.6134693026542664,-0.8174591064453125,-0.25048747658729553,-0.3549932539463043,0.16747035086154938,-2.8771040439605713
228,160251,160252,-0.5418022274971008,-0.3052925765514374,1.0632126331329346,-7.041775703430176,-21.993896484375,4.434157848358154,-0.6269686222076416,-0.7919603586196899,-0.2549872398376465,-0.09439915418624878,0.10021714121103287,-2.8279714584350586
229,160261,160262,-0.40766212344169617,-0.48245713114738464,1.0623210668563843,-20.713640213012695,-15.243732452392578,3.2811472415924072,-0.6194689869880676,-0.8084595799446106,-0.25348731875419617,0.015348444692790508,-0.15882590413093567,-2.766732931137085
230,160271,160272,-0.16579146683216095,-0.2708200216293335,1.0089973211288452,-27.92563819885254,-2.3250765800476074,3.6179890632629395,-0.6194689869880676,-0.8024598360061646,-0.2474876195192337,0.036382369697093964,-0.29421669244766235,-2.737316608428955
231,160281,160282,-0.3348795175552368,-0.07969079911708832,0.971031129360199,-33.52208709716797,9.955431938171387,5.778145790100098,-0.6134693026542664,-0.8024598360061646,-0.2564871609210968,-0.01385712344199419,-0.5417046546936035,-2.69754958152771
232,160291,160292,-0.13924382627010345,0.13319528102874756,1.032096028327942,-33.020652770996094,21.071372985839844,6.487672805786133,-0.6254687309265137,-0.790460467338562,-0.25048747658729553,-0.1703866422176361,-0.842887818813324,-2.6396944522857666
233,160301,160302,-0.08799215406179428,-0.02149207890033722,1.0589336156845093,-26.153779983520508,28.411874771118164,7.737848281860352,-0.6269686222076416,-0.7859606742858887,-0.2459876984357834,-0.33756497502326965,-1.0704989433288574,-2.588207244873047
234,160311,160312,-0.08690088242292404,-0.13433559238910675,1.0024586915969849,-23.081750869750977,32.681766510009766,7.46959924697876,-0.6299684643745422,-0.7799609899520874,-0.23398829996585846,-0.7467819452285767,-1.5047756433486938,-2.4910213947296143
235,160321,160322,-0.34865012764930725,-0.4031398594379425,1.0163127183914185,-16.51875877380371,25.338489532470703,5.614290714263916,-0.6344682574272156,-0.7934603095054626,-0.23548822104930878,-0.9319266676902771,-1.5722969770431519,-2.4582653045654297
236,160331,160332,-0.22215092182159424,-0.29472944140434265,0.9514129161834717,-7.574863433837891,13.830866813659668,5.2536115646362305,-0.6314684152603149,-0.7964601516723633,-0.25048747658729553,-1.247312307357788,-1.7204318046569824,-2.398200273513794
237,160341,160342,-0.18926210701465607,-0.05589018389582634,1.0394163131713867,-0.647951066493988,-4.335785388946533,5.509952068328857,-0.6314684152603149,-0.7874606251716614,-0.24148792028427124,-1.3072986602783203,-1.8097089529037476,-2.3535561561584473
238,160351,160352,-0.09284775704145432,-0.11897730082273483,1.0471824407577515,2.561366081237793,-18.906831741333008,5.9952826499938965,-0.6254687309265137,-0.7844607830047607,-0.2594870328903198,-1.1174076795578003,-1.748302698135376,-2.3181228637695312
239,160361,160362,-0.11592406034469604,-0.09679090976715088,1.0238877534866333,12.001684188842773,-39.63927459716797,7.014505386352539,-0.6209689378738403,-0.8099594712257385,-0.25198739767074585,-0.8157622814178467,-1.6559127569198608,-2.2606236934661865
240,160371,160372,-0.05696185678243637,0.024408668279647827,1.0058366060256958,16.59808921813965,-50.91560363769531,9.526670455932617,-0.616469144821167,-0.80545973777771,-0.24448777735233307,-0.4733663499355316,-1.5139400959014893,-2.155151844024658
241,160381,160382,-0.062384847551584244,-0.08934308588504791,0.9778294563293457,15.616240501403809,-50.88610076904297,10.61313533782959,-0.6119694113731384,-0.8069596290588379,-0.24898754060268402,0.16787903010845184,-1.268184781074524,-2.077012538909912
242,160391,160392,-0.5551841259002686,-0.2579197883605957,1.031515121459961,13.493532180786133,-43.60822296142578,9.780871391296387,-0.622468888759613,-0.7934603095054626,-0.2564871609210968,0.8176106810569763,-1.2710177898406982,-1.992184042930603
243,160401,160402,-0.2797822952270508,-0.3100574016571045,0.9602879285812378,16.32887077331543,-29.285799026489258,9.024904251098633,-0.6044697761535645,-0.80545973777771,-0.2564871609210968,0.9282646775245667,-1.120232343673706,-1.8173161745071411
244,160411,160412,-0.13886545598506927,0.012016859836876392,1.0490320920944214,16.309791564941406,-7.7348527908325195,9.27488899230957,-0.6059696674346924,-0.8099594712257385,-0.2459876984357834,1.196251392364502,-0.9341922402381897,-1.728796362876892
245,160421,160422,-0.08249086886644363,0.009964769706130028,0.9971266984939575,11.063177108764648,19.02210807800293,10.567654609680176,-0.6134693026542664,-0.7934603095054626,-0.25348731875419617,1.1169703006744385,-0.7977553606033325,-1.6056221723556519
246,160431,160432,-0.10751562565565109,-0.034210845828056335,1.0458437204360962,5.232224464416504,37.35402297973633,10.767641067504883,-0.6179690957069397,-0.8069596290588379,-0.26098695397377014,0.6636453866958618,-0.8157002925872803,-1.4388203620910645
247,160441,160442,-0.09740961343050003,0.08204829692840576,1.1172863245010376,-3.3305180072784424,45.675506591796875,9.760522842407227,-0.6194689869880676,-0.7964601516723633,-0.24148792028427124,0.13651208579540253,-0.8765830397605896,-1.3021209239959717
248,160451,160452,-0.30697551369667053,0.08394967764616013,1.116129994392395,-8.216495513916016,36.205867767333984,9.629265785217285,-0.6194689869880676,-0.8024598360061646,-0.2594870328903198,-0.20116445422172546,-0.8934713006019592,-1.2395318746566772
249,160461,160462,-0.6431320905685425,-0.43445852398872375,1.0118499994277954,-13.644930839538574,23.252906799316406,10.348714828491211,-0.622468888759613,-0.790460467338562,-0.2564871609210968,-0.44938576221466064,-1.0631005764007568,-1.1615830659866333
250,160471,160472,-0.8053120970726013,-0.5950311422348022,0.991820752620697,-15.362671852111816,6.654596328735352,10.141386985778809,-0.6089695692062378,-0.7859606742858887,-0.23998799920082092,-0.6534308195114136,-1.1534940004348755,-1.0615077018737793
251,160481,160482,-0.4260607063770294,-0.10298151522874832,0.9901424646377563,-10.751190185546875,-8.5023193359375,6.602809429168701,-0.616469144821167,-0.790460467338562,-0.24448777735233307,-0.5944831967353821,-1.3637086153030396,-0.9855749011039734
252,160491,160492,-0.05450403690338135,-0.03174569830298424,1.0147314071655273,2.093407392501831,-21.562206268310547,3.8387675285339355,-0.616469144821167,-0.7964601516723633,-0.25048747658729553,-0.45126572251319885,-1.4235219955444336,-0.9327545762062073
253,160501,160502,-0.10013861954212189,-0.03365689888596535,1.0017719268798828,16.861360549926758,-33.325592041015625,0.999872624874115,-0.6254687309265137,-0.790460467338562,-0.2474876195192337,-0.039911653846502304,-1.2499194145202637,-0.9437621831893921
254,160511,160512,-0.08886642009019852,-0.023134345188736916,1.02732253074646,28.120548248291016,-41.716407775878906,-0.8131519556045532,-0.6149692535400391,-0.7949602603912354,-0.25198739767074585,0.4526076912879944,-1.010790467262268,-0.965562641620636
255,160521,160522,-0.07691054046154022,-0.23536621034145355,0.910991907119751,37.156097412109375,-40.44775390625,-2.0378222465515137,-0.6074696183204651,-0.8114594221115112,-0.25348731875419617,0.71524977684021,-0.7627484202384949,-0.9257022142410278
256,160531,160532,-0.11274132877588272,-0.046008795499801636,1.0589183568954468,42.978275299072266,-28.97092056274414,-4.052778720855713,-0.5939702987670898,-0.8129593133926392,-0.2579870820045471,1.1616801023483276,-0.23169070482254028,-0.9811500906944275
257,160541,160542,-0.14361155033111572,-0.41341328620910645,1.0256555080413818,43.43611526489258,-10.637240409851074,-3.2414703369140625,-0.6044697761535645,-0.8084595799446106,-0.25348731875419617,1.4997249841690063,0.05076659470796585,-1.0204665660858154
258,160551,160552,-0.48720020055770874,-0.0601767972111702,1.1757118701934814,37.31212615966797,10.319339752197266,-1.7167540788650513,-0.6179690957069397,-0.8159592151641846,-0.2579870820045471,1.382088303565979,0.4510355591773987,-1.0047941207885742
259,160561,160562,-0.335835337638855,0.02600990980863571,1.0367456674575806,25.247055053710938,26.920717239379883,-0.9343408942222595,-0.6149692535400391,-0.8249587416648865,-0.24898754060268402,1.076244592666626,0.8324744701385498,-0.9975324273109436
260,160571,160572,-0.1003950834274292,0.007860997691750526,1.0004029273986816,7.30722188949585,30.047513961791992,-1.1628109216690063,-0.6014699339866638,-0.8114594221115112,-0.25048747658729553,0.8350918889045715,0.9650023579597473,-0.9954109191894531
261,160581,160582,-0.061444107443094254,-0.16858263313770294,0.9700330495834351,-7.0717034339904785,23.652965545654297,-1.6367769241333008,-0.6014699339866638,-0.7994599938392639,-0.25348731875419617,0.6155158281326294,0.9109101295471191,-0.9964218735694885
262,160591,160592,-0.05585261434316635,-0.09738332778215408,1.0165252685546875,-19.466899871826172,16.096715927124023,-2.863848924636841,-0.6119694113731384,-0.8189590573310852,-0.2669866383075714,0.523099958896637,0.8401756286621094,-1.0320864915847778
263,160601,160602,-0.1243344396352768,-0.003510353621095419,1.067435622215271,-22.07562828063965,12.865416526794434,-1.5745505094528198,-0.6104694604873657,-0.80545973777771,-0.25348731875419617,0.3112865686416626,0.4970502257347107,-1.027462124824524
264,160611,160612,-0.40804073214530945,-0.582021951675415,1.064976692199707,-13.391999244689941,16.376195907592773,0.4510597586631775,-0.5984700918197632,-0.80545973777771,-0.2564871609210968,0.0812462791800499,0.38284018635749817,-1.045530080795288
265,160621,160622,-1.5869395732879639,-0.8270089626312256,1.018447995185852,-2.1356189250946045,18.80072784423828,3.31217098236084,-0.6074696183204651,-0.80545973777771,-0.24448777735233307,-0.12241654098033905,0.29614606499671936,-1.026012897491455
266,160631,160632,-0.9783639907836914,-0.8548959493637085,0.9917160272598267,4.324624061584473,12.962556838989258,5.257319450378418,-0.6134693026542664,-0.80545973777771,-0.25048747658729553,-0.28062403202056885,0.4195561707019806,-1.0024681091308594
267,160641,160642,-0.25862202048301697,-0.3860085904598236,0.9888603687286377,5.508369445800781,5.154658317565918,8.036370277404785,-0.6194689869880676,-0.8174591064453125,-0.25348731875419617,-0.2511897683143616,0.5108733773231506,-0.951736330986023
268,160651,160652,-0.30303677916526794,-0.35860195755958557,1.0264670848846436,2.273956775665283,-3.2103521823883057,9.921692848205566,-0.6194689869880676,-0.8144592642784119,-0.25048747658729553,-0.16418962180614471,0.43440744280815125,-0.8515236973762512
269,160661,160662,-0.14638040959835052,-0.1457025110721588,0.9834995865821838,-1.018938660621643,-8.10838508605957,9.993191719055176,-0.616469144821167,-0.8144592642784119,-0.2654867172241211,-0.05974621698260307,0.45055699348449707,-0.7502919435501099
270,160671,160672,-0.2630733549594879,-0.14854055643081665,0.994971752166748,-3.9041662216186523,-11.472567558288574,8.414179801940918,-0.6194689869880676,-0.8144592642784119,-0.25348731875419617,-0.03216513618826866,0.4165947139263153,-0.6521531939506531
271,160681,160682,-0.37966859340667725,-0.062151357531547546,1.0268583297729492,-0.23358649015426636,-9.778063774108887,5.4826483726501465,-0.6194689869880676,-0.8084595799446106,-0.2564871609210968,0.15141215920448303,0.4008641541004181,-0.5759718418121338
272,160691,160692,-0.2037508636713028,-0.08548178523778915,0.9687898755073547,6.353097915649414,-3.7042198181152344,1.969843864440918,-0.6134693026542664,-0.8294585347175598,-0.2594870328903198,0.11161252111196518,0.4745731055736542,-0.5359810590744019
273,160701,160702,-0.25210651755332947,-0.02093694359064102,1.0236899852752686,9.761716842651367,2.3252720832824707,-0.21356788277626038,-0.6149692535400391,-0.8099594712257385,-0.2639867961406708,0.11831428855657578,0.6241132020950317,-0.5334604382514954
274,160711,160712,-0.30713769793510437,-0.07891599088907242,1.021653175354004,7.626431941986084,9.897526741027832,-0.8573092818260193,-0.6149692535400391,-0.8099594712257385,-0.2579870820045471,0.09679801762104034,0.6234516501426697,-0.5268694758415222
275,160721,160722,-0.3992118835449219,-0.23263901472091675,1.0020307302474976,1.8478546142578125,18.078018188476562,-2.915540933609009,-0.6209689378738403,-0.8039597868919373,-0.2549872398376465,-0.14134572446346283,0.6922177076339722,-0.5452494621276855
276,160731,160732,-0.4267844259738922,-0.12823586165905,1.0705209970474243,0.02378154918551445,20.701858520507812,-4.4432373046875,-0.6209689378738403,-0.8039597868919373,-0.24898754060268402,-0.29832208156585693,0.6456441283226013,-0.571240246295929
277,160741,160742,-0.15853749215602875,-0.1961715966463089,1.0761873722076416,-4.405653476715088,18.120868682861328,-4.50213623046875,-0.6179690957069397,-0.8069596290588379,-0.2549872398376465,-0.3904685080051422,0.6134607791900635,-0.6056334376335144
278,160751,160752,-0.353179931640625,-0.3208082616329193,0.9435180425643921,-5.152402400970459,14.161859512329102,-4.877990245819092,-0.6179690957069397,-0.8099594712257385,-0.2549872398376465,-0.5083745718002319,0.5445619821548462,-0.6466190218925476
279,160761,160762,-0.7457875609397888,-0.476631760597229,0.9724750518798828,-3.6779844760894775,3.3778188228607178,-4.927253723144531,-0.6284685730934143,-0.8024598360061646,-0.2564871609210968,-0.6295737028121948,0.5540230870246887,-0.6987354755401611
280,160771,160772,-0.7095102071762085,-0.08396794646978378,1.0523861646652222,-2.6246962547302246,-6.9524688720703125,-5.6987152099609375,-0.6059696674346924,-0.8069596290588379,-0.2549872398376465,-0.4349345862865448,0.5093868970870972,-0.7376010417938232
281,160781,160782,-0.42060816287994385,-0.4622747004032135,1.097117304801941,-0.7069975137710571,-20.561677932739258,-7.15255069732666,-0.622468888759613,-0.8114594221115112,-0.2654867172241211,-0.33544743061065674,0.4913504421710968,-0.8029952645301819
282,160791,160792,-0.3135809302330017,-0.48107707500457764,1.0078380107879639,-0.8047054409980774,-30.618165969848633,-6.9909563064575195,-0.616469144821167,-0.8174591064453125,-0.24448777735233307,-0.043351367115974426,0.5493466854095459,-0.8751488327980042
283,160801,160802,-0.12853781878948212,-0.08630909025669098,1.0104386806488037,1.3047136068344116,-30.724821090698242,-7.822178840637207,-0.6134693026542664,-0.8144592642784119,-0.25348731875419617,0.17369206249713898,0.5565605163574219,-0.9585239291191101
284,160811,160812,-0.2825460135936737,-0.11910788714885712,1.0272557735443115,4.857115745544434,-19.400754928588867,-6.531234264373779,-0.6149692535400391,-0.8099594712257385,-0.25198739767074585,0.4328458607196808,0.6058668494224548,-1.0389304161071777
285,160821,160822,-0.30838844180107117,-0.38317403197288513,1.0665420293807983,6.565678596496582,-9.149696350097656,-4.898636341094971,-0.6179690957069397,-0.8099594712257385,-0.25198739767074585,0.6527469754219055,0.6930944919586182,-1.0989972352981567
286,160831,160832,-0.14017795026302338,-0.3297201097011566,0.9801561832427979,5.1035847663879395,-1.8092288970947266,-4.089731693267822,-0.622468888759613,-0.8084595799446106,-0.2564871609210968,0.7222709655761719,0.7133675217628479,-1.1402950286865234
287,160841,160842,-0.1004895269870758,-0.09904693067073822,1.0236470699310303,-0.1031804233789444,5.582442283630371,-5.818569183349609,-0.6089695692062378,-0.8039597868919373,-0.2549872398376465,0.6057154536247253,0.7333614826202393,-1.1946754455566406
288,160851,160852,-0.12304241955280304,-0.26164814829826355,1.002062439918518,-4.275283336639404,17.12697410583496,-7.410403251647949,-0.6194689869880676,-0.7994599938392639,-0.2564871609210968,0.4751395881175995,0.6844527125358582,-1.2587485313415527
289,160861,160862,-0.1554419845342636,-0.5275493264198303,1.0056211948394775,-11.011256217956543,23.987152099609375,-8.597002983093262,-0.622468888759613,-0.7934603095054626,-0.25348731875419617,0.2009650319814682,0.6126782298088074,-1.3450297117233276
290,160871,160872,-0.2618334889411926,-0.35240575671195984,0.7695412039756775,-13.33989429473877,27.78824234008789,-8.592599868774414,-0.6179690957069397,-0.7859606742858887,-0.2549872398376465,-0.22235754132270813,0.47226038575172424,-1.4415136575698853
291,160881,160882,-0.8729304075241089,-0.4912039041519165,0.8815742135047913,-9.955431938171387,25.295225143432617,-8.080852508544922,-0.6314684152603149,-0.8144592642784119,-0.24448777735233307,-0.35675671696662903,0.4830534756183624,-1.520310401916504
292,160891,160892,-0.32035619020462036,-0.14594654738903046,1.0090062618255615,-1.002595067024231,17.491539001464844,-6.68091344833374,-0.623968780040741,-0.8099594712257385,-0.25198739767074585,-0.6194918751716614,0.3832271993160248,-1.598852276802063
293,160901,160902,-0.09772617369890213,-0.2629002332687378,0.977489173412323,9.417569160461426,2.675886631011963,-1.3656154870986938,-0.623968780040741,-0.8069596290588379,-0.2579870820045471,-0.7481145858764648,0.44943612813949585,-1.6463630199432373
294,160911,160912,-0.19384223222732544,-0.4406627416610718,0.9619451761245728,13.496553421020508,-4.160004138946533,0.6861679553985596,-0.6254687309265137,-0.8144592642784119,-0.2474876195192337,-0.6469563245773315,0.6221867203712463,-1.64724600315094
295,160921,160922,-0.19930331408977509,0.05409764125943184,1.0730164051055908,12.334738731384277,-10.504122734069824,3.4290192127227783,-0.616469144821167,-0.8234587907791138,-0.25048747658729553,-0.5057689547538757,0.8046132326126099,-1.6258652210235596
296,160931,160932,-0.1907520592212677,0.015992281958460808,0.9668994545936584,11.621007919311523,-16.48911476135254,5.317870140075684,-0.6299684643745422,-0.8339582681655884,-0.2549872398376465,-0.34629005193710327,0.8294168710708618,-1.5847207307815552
297,160941,160942,-0.216282919049263,-0.1820829212665558,0.961864709854126,3.2281033992767334,-23.08275032043457,9.875401496887207,-0.6254687309265137,-0.8204589486122131,-0.26248687505722046,-0.07334600389003754,0.9189417362213135,-1.5104767084121704
298,160951,160952,-0.8265644907951355,-0.0747942179441452,1.0293471813201904,-15.345041275024414,-21.489471435546875,11.892997741699219,-0.6059696674346924,-0.8189590573310852,-0.2639867961406708,0.08173216134309769,0.7724946737289429,-1.4146487712860107
299,160961,160962,-1.3349566459655762,-0.6705645322799683,1.0660898685455322,-32.48353958129883,-13.993720054626465,12.972352027893066,-0.6044697761535645,-0.8174591064453125,-0.26248687505722046,0.22585342824459076,0.46954500675201416,-1.2985204458236694
300,160971,160972,-1.3472814559936523,-0.7454648613929749,1.058709979057312,-41.12520980834961,-0.31362029910087585,14.256617546081543,-0.622468888759613,-0.8174591064453125,-0.25348731875419617,0.3431987166404724,0.1289164423942566,-1.1623483896255493
301,160981,160982,-0.5783048272132874,-0.7232144474983215,1.0424953699111938,-40.58296203613281,6.09657621383667,13.842351913452148,-0.6044697761535645,-0.7994599938392639,-0.2564871609210968,0.29571619629859924,-0.1320381909608841,-1.025388479232788
302,160991,160992,-0.6196633577346802,-0.3002355098724365,0.9615023136138916,-34.27518844604492,11.427884101867676,12.17614459991455,-0.6134693026542664,-0.8114594221115112,-0.25048747658729553,0.14831215143203735,-0.5544628500938416,-0.8960758447647095
303,161001,161002,-0.17879517376422882,0.004448692314326763,1.0562514066696167,-17.674659729003906,15.056443214416504,10.359274864196777,-0.6074696183204651,-0.7964601516723633,-0.2594870328903198,0.07502638548612595,-0.8389652967453003,-0.777671217918396
304,161011,161012,-0.08516174554824829,-0.2627338171005249,1.0344455242156982,-0.5014298558235168,15.220232009887695,8.285378456115723,-0.6119694113731384,-0.797960102558136,-0.24898754060268402,-0.17568622529506683,-0.9002841114997864,-0.68758624792099
305,161021,161022,-0.07965223491191864,-0.16212701797485352,1.016676664352417,13.465397834777832,10.325651168823242,8.153582572937012,-0.622468888759613,-0.790460467338562,-0.25048747658729553,-0.29210302233695984,-0.7949314713478088,-0.6113517880439758
306,161031,161032,-0.24296852946281433,-0.040109243243932724,1.0084787607192993,27.369150161743164,-0.13932892680168152,9.076311111450195,-0.623968780040741,-0.8069596290588379,-0.2639867961406708,-0.2844461500644684,-0.5306681394577026,-0.5270940065383911
307,161041,161042,-0.1689271777868271,-0.007435014471411705,1.0284152030944824,26.80590057373047,-9.846882820129395,8.424397468566895,-0.623968780040741,-0.8069596290588379,-0.2639867961406708,-0.19022782146930695,-0.18891623616218567,-0.43903622031211853
308,161051,161052,-0.195770725607872,-0.10105369240045547,0.9953995943069458,20.381011962890625,-22.682247161865234,7.93110990524292,-0.623968780040741,-0.8069596290588379,-0.2639867961406708,-0.04299716278910637,-0.05334283411502838,-0.35573723912239075
309,161061,161062,-0.11273961514234543,-0.07457316666841507,0.985627293586731,5.5986433029174805,-25.255971908569336,8.071375846862793,-0.6044697761535645,-0.8264586329460144,-0.27148643136024475,0.35761594772338867,0.17619366943836212,-0.27808091044425964
310,161071,161072,-0.0835418775677681,-0.07789944112300873,0.970122218132019,-8.506118774414062,-21.544214248657227,6.705507755279541,-0.6179690957069397,-0.8189590573310852,-0.2639867961406708,0.5743886828422546,0.0920359268784523,-0.20244543254375458
311,161081,161082,-0.13345706462860107,0.009554971940815449,1.007702350616455,-15.025322914123535,-14.239401817321777,5.632093906402588,-0.6074696183204651,-0.8174591064453125,-0.2654867172241211,0.632925271987915,-0.13866448402404785,-0.13331033289432526
312,161091,161092,-0.10231836140155792,0.024939028546214104,0.994288444519043,-19.634675979614258,-0.20030339062213898,4.987580299377441,-0.6089695692062378,-0.8129593133926392,-0.2579870820045471,0.6626123189926147,-0.3141288161277771,-0.07733656466007233
313,161101,161102,-0.13037221133708954,0.11827964335680008,1.1020795106887817,-15.721929550170898,17.27702522277832,5.411218643188477,-0.6074696183204651,-0.8294585347175598,-0.2654867172241211,0.7562083005905151,-0.47694477438926697,-0.0227560605853796
314,161111,161112,-0.10438913106918335,-0.014523780904710293,1.0341455936431885,-8.002313613891602,31.106426239013672,5.141443252563477,-0.6014699339866638,-0.8144592642784119,-0.2564871609210968,0.33110079169273376,-0.6701633930206299,0.04086051508784294
315,161121,161122,-0.07317134737968445,-0.024254852905869484,0.983055055141449,-2.1324386596679688,36.33420181274414,3.443152666091919,-0.622468888759613,-0.7994599938392639,-0.24448777735233307,-0.15723146498203278,-0.7571240067481995,0.08701383322477341
316,161131,161132,-0.09830521792173386,0.08886587619781494,1.0155726671218872,5.7177510261535645,29.125301361083984,2.122260808944702,-0.6254687309265137,-0.8084595799446106,-0.24448777735233307,-0.33513110876083374,-0.6597934365272522,0.09919029474258423
317,161141,161142,-0.007883111946284771,-0.2755691707134247,0.9857057929039001,5.539083957672119,17.469125747680664,0.7806375026702881,-0.6209689378738403,-0.8069596290588379,-0.2639867961406708,-0.7073876857757568,-0.5802448391914368,0.11961893737316132
318,161151,161152,-0.05318650230765343,-0.22445350885391235,0.9816787838935852,0.09109277278184891,-1.227017879486084,-1.2892003059387207,-0.6209689378738403,-0.8039597868919373,-0.2669866383075714,-0.7854865789413452,-0.5628498792648315,0.11780895292758942
319,161161,161162,-0.058813776820898056,-0.028685323894023895,0.9853634834289551,-5.7645792961120605,-14.026090621948242,-3.8151581287384033,-0.6284685730934143,-0.8084595799446106,-0.2594870328903198,-0.6277092099189758,-0.6361061334609985,0.08921151608228683
320,161171,161172,-0.031898487359285355,-0.2875572741031647,0.9601512551307678,-6.340996742248535,-23.01546287536621,-4.709517478942871,-0.622468888759613,-0.8114594221115112,-0.25348731875419617,-0.3024047613143921,-0.6836075186729431,0.03827454522252083
321,161181,161182,-0.11646287143230438,-0.1113637238740921,1.002882957458496,-4.193110466003418,-26.02843475341797,-3.6020736694335938,-0.6044697761535645,-0.8144592642784119,-0.2594870328903198,0.025837497785687447,-0.7093629240989685,-0.011161530390381813
322,161191,161192,-0.1436108648777008,-0.014864576980471611,1.0005755424499512,2.971301317214966,-23.22824478149414,-2.419478416442871,-0.6089695692062378,-0.797960102558136,-0.2459876984357834,0.27994537353515625,-0.6462669372558594,-0.039885442703962326
323,161201,161202,-0.11061111092567444,-0.11058780550956726,0.9553274512290955,6.494558334350586,-13.329412460327148,0.28196555376052856,-0.5984700918197632,-0.8204589486122131,-0.2564871609210968,0.4294319748878479,-0.5839329361915588,-0.04202550649642944
324,161211,161212,-0.3617632985115051,-0.49187085032463074,1.0404106378555298,2.8234617710113525,-0.747410237789154,0.2631918787956238,-0.6014699339866638,-0.8084595799446106,-0.26248687505722046,0.521773099899292,-0.5260012149810791,-0.036272142082452774
325,161221,161222,-0.2109776884317398,-0.45359864830970764,0.9657893180847168,-1.6087830066680908,13.892683029174805,1.5633362531661987,-0.6089695692062378,-0.797960102558136,-0.25198739767074585,0.393902987241745,-0.6087804436683655,-0.01977272517979145
326,161231,161232,-0.09449311345815659,-0.0690794438123703,0.9994353652000427,-5.646055698394775,22.80815887451172,1.7754634618759155,-0.6074696183204651,-0.7994599938392639,-0.25348731875419617,0.1553558111190796,-0.6116606593132019,0.001199627760797739
327,161241,161242,-0.07030856609344482,0.03800635412335396,1.0091989040374756,-5.099595069885254,24.897336959838867,0.8520137071609497,-0.6104694604873657,-0.7994599938392639,-0.2654867172241211,-0.09826411306858063,-0.642288327217102,0.012446500360965729
328,161251,161252,0.018902834504842758,0.21512776613235474,1.1237225532531738,-5.808956146240234,22.059307098388672,-0.6700021028518677,-0.6104694604873657,-0.7994599938392639,-0.24448777735233307,-0.3471040725708008,-0.7458314895629883,0.01377900131046772
329,161261,161262,0.02537708356976509,0.08004700392484665,1.019963264465332,-0.9709473252296448,8.498199462890625,-1.095802903175354,-0.623968780040741,-0.7949602603912354,-0.25198739767074585,-0.5831454396247864,-0.7500684261322021,0.008447346277534962
330,161271,161272,-0.07843843847513199,-0.16637887060642242,0.9777390360832214,6.784170627593994,-6.439150333404541,0.2995239496231079,-0.6209689378738403,-0.8069596290588379,-0.25198739767074585,-0.5815814137458801,-0.7100608348846436,-0.00604183180257678
331,161281,161282,-0.09947230666875839,-0.09464681893587112,0.9843385815620422,10.435611724853516,-16.483078002929688,2.039138078689575,-0.6149692535400391,-0.7949602603912354,-0.24298784136772156,-0.3789503574371338,-0.6539132595062256,-0.01021893136203289
332,161291,161292,-0.1112506315112114,-0.3417988717556,0.8974282145500183,13.049548149108887,-15.726035118103027,4.945949077606201,-0.6134693026542664,-0.7874606251716614,-0.25348731875419617,-0.11087881773710251,-0.47061336040496826,0.005996905267238617
333,161301,161302,-0.17097796499729156,-0.5305348634719849,0.9451444149017334,12.490259170532227,-12.023222923278809,5.356283664703369,-0.6134693026542664,-0.8024598360061646,-0.25348731875419617,-0.10479971021413803,-0.557425320148468,0.07308389991521835
334,161311,161312,-0.17703655362129211,-0.46615156531333923,0.9000234007835388,9.347223281860352,-7.02935266494751,6.374110698699951,-0.6059696674346924,-0.8039597868919373,-0.25198739767074585,-0.008706311695277691,-0.38321492075920105,0.13547807931900024
335,161321,161322,-0.17670278251171112,-0.23661640286445618,0.8856869339942932,6.076255798339844,2.7275004386901855,6.294471740722656,-0.6194689869880676,-0.8114594221115112,-0.24448777735233307,0.03904363512992859,-0.3294517695903778,0.20086972415447235
336,161331,161332,-0.08818778395652771,-0.15276964008808136,0.8773062229156494,6.951206207275391,9.48184585571289,5.23187780380249,-0.6134693026542664,-0.7994599938392639,-0.2474876195192337,-0.05703575909137726,-0.22468669712543488,0.26857900619506836
337,161341,161342,-0.567183256149292,-0.7529204487800598,0.9338709712028503,10.287644386291504,10.258607864379883,5.424161911010742,-0.6179690957069397,-0.8099594712257385,-0.25198739767074585,-0.07675909996032715,-0.08858924359083176,0.3140925467014313
338,161351,161352,-0.4478640854358673,-0.726140022277832,0.9736042618751526,11.84525203704834,5.319859027862549,5.7152018547058105,-0.6179690957069397,-0.8039597868919373,-0.2639867961406708,-0.21853750944137573,-0.047919102013111115,0.3741474747657776
339,161361,161362,-0.1221059113740921,-0.2145162671804428,0.9989559650421143,5.121145248413086,-8.104615211486816,4.449642658233643,-0.6149692535400391,-0.8099594712257385,-0.2579870820045471,-0.20109917223453522,0.08660192787647247,0.42377495765686035
340,161371,161372,-0.17815206944942474,-0.3376348316669464,0.9814428091049194,-1.228598952293396,-22.036039352416992,1.5866132974624634,-0.6119694113731384,-0.8189590573310852,-0.26098695397377014,-0.02778267115354538,0.04933285713195801,0.455966979265213
341,161381,161382,-0.13804490864276886,-0.11602385342121124,1.0892002582550049,-8.367237091064453,-28.245386123657227,-2.521794557571411,-0.6044697761535645,-0.8294585347175598,-0.26248687505722046,0.3861099183559418,-0.020780621096491814,0.4501761496067047
342,161391,161392,-0.07479508221149445,0.09939496219158173,1.0326489210128784,-13.818906784057617,-18.202402114868164,-3.6408729553222656,-0.5954701900482178,-0.8234587907791138,-0.26848655939102173,0.48189958930015564,-0.12442544102668762,0.4330717623233795
343,161401,161402,-0.09634338319301605,0.09312058240175247,1.0779943466186523,-20.233848571777344,-0.9767821431159973,-3.800726890563965,-0.5969701409339905,-0.8159592151641846,-0.2639867961406708,0.5787737369537354,-0.2573127746582031,0.39797547459602356
344,161411,161412,-0.08724269270896912,-0.021601058542728424,0.9925466179847717,-23.604677200317383,13.767292022705078,-4.962928771972656,-0.5984700918197632,-0.8264586329460144,-0.2744862735271454,0.5440008640289307,-0.607616662979126,0.36167028546333313
345,161421,161422,-0.1318632960319519,-0.10129609704017639,1.060352087020874,-19.754735946655273,20.283031463623047,-4.70423698425293,-0.5954701900482178,-0.8114594221115112,-0.2564871609210968,0.26484259963035583,-0.7366824150085449,0.31772443652153015
346,161431,161432,-0.11286795884370804,-0.05858368054032326,1.0590161085128784,-7.831243515014648,20.136959075927734,-4.1379899978637695,-0.6074696183204651,-0.8114594221115112,-0.2564871609210968,0.1580551117658615,-0.8923555016517639,0.26333123445510864
347,161441,161442,-0.09058162569999695,-0.2652311325073242,1.0802398920059204,4.127260684967041,18.498985290527344,-3.6238772869110107,-0.6119694113731384,-0.8129593133926392,-0.2549872398376465,-0.017861446365714073,-0.9033982157707214,0.21483160555362701
348,161451,161452,-0.0914556160569191,-0.1898573786020279,1.0697925090789795,21.33827781677246,6.655203342437744,-2.2326385974884033,-0.6089695692062378,-0.8099594712257385,-0.2639867961406708,-0.21475769579410553,-0.746371328830719,0.18104705214500427
349,161461,161462,-0.07065359503030777,0.007380489259958267,1.0872234106063843,30.810993194580078,0.5332628488540649,-2.3611245155334473,-0.6134693026542664,-0.7994599938392639,-0.2654867172241211,-0.26828673481941223,-0.4588930606842041,0.15824398398399353
350,161471,161472,-0.06500714272260666,-0.04015713557600975,0.9814603328704834,35.16156768798828,-4.197806358337402,-3.7336103916168213,-0.6089695692062378,-0.8039597868919373,-0.26998651027679443,-0.22760672867298126,-0.055425118654966354,0.12477483600378036
351,161481,161482,-0.11985308676958084,-0.10043630003929138,1.0546144247055054,35.35009002685547,-8.802884101867676,-5.06359338760376,-0.6149692535400391,-0.8219588994979858,-0.2549872398376465,-0.12203165888786316,0.2324771285057068,0.0775703489780426
352,161491,161492,-0.19479408860206604,-0.10441084206104279,1.0327298641204834,28.548744201660156,-15.775568008422852,-5.182397365570068,-0.622468888759613,-0.8174591064453125,-0.26248687505722046,0.015575595200061798,0.39606767892837524,0.024677766487002373
353,161501,161502,-0.12000928074121475,0.035617031157016754,1.0644526481628418,16.695205688476562,-19.729887008666992,-6.080599308013916,-0.6254687309265137,-0.8204589486122131,-0.25348731875419617,0.22771526873111725,0.7520627379417419,-0.03798866644501686
354,161511,161512,-0.025320393964648247,0.14177925884723663,1.0899155139923096,9.22716236114502,-20.84795570373535,-4.326974391937256,-0.6104694604873657,-0.8144592642784119,-0.27148643136024475,0.48673996329307556,0.8819555640220642,-0.10093939304351807
355,161521,161522,-0.035446543246507645,0.12573787569999695,1.033036708831787,2.4236931800842285,-15.135187149047852,-2.0025007724761963,-0.6089695692062378,-0.8219588994979858,-0.26098695397377014,0.6206657886505127,0.9710568189620972,-0.1417878419160843
356,161531,161532,-0.568835437297821,-0.4536346197128296,0.9794806838035583,-6.565268516540527,0.871141254901886,-0.3225075304508209,-0.6209689378738403,-0.8219588994979858,-0.28498575091362,0.5849345326423645,0.7792618870735168,-0.14912556111812592
357,161541,161542,-0.40566763281822205,-0.7171244621276855,0.9365243315696716,-14.090751647949219,18.393993377685547,0.9347837567329407,-0.6134693026542664,-0.80545973777771,-0.24148792028427124,0.510954737663269,0.7013704180717468,-0.15129540860652924
358,161551,161552,-0.19520176947116852,-0.5412617325782776,0.9871000647544861,-19.494762420654297,30.357284545898438,1.6608293056488037,-0.6179690957069397,-0.8039597868919373,-0.2579870820045471,0.24983933568000793,0.507889449596405,-0.13657568395137787
359,161561,161562,-0.12177866697311401,-0.10410691797733307,0.9711431860923767,-29.652029037475586,39.009132385253906,1.8005319833755493,-0.6059696674346924,-0.8039597868919373,-0.2639867961406708,-0.18428289890289307,0.17865461111068726,-0.11119593679904938
360,161571,161572,-0.14870867133140564,-0.1929720789194107,1.1330935955047607,-32.32011032104492,40.85364532470703,-0.07552233338356018,-0.6194689869880676,-0.7994599938392639,-0.2474876195192337,-0.5413497686386108,0.09893768280744553,-0.10773633420467377
361,161581,161582,-0.09216824918985367,-0.14384964108467102,1.0590300559997559,-24.67381477355957,40.1380729675293,0.07667766511440277,-0.616469144821167,-0.8024598360061646,-0.2564871609210968,-1.0431979894638062,-0.35108786821365356,-0.11308519542217255
362,161591,161592,-0.18795260787010193,-0.1202128455042839,1.0681463479995728,-5.016920566558838,25.03276252746582,1.9109867811203003,-0.6089695692062378,-0.8039597868919373,-0.24898754060268402,-1.2012783288955688,-0.3708539605140686,-0.10156623274087906
363,161601,161602,-0.7796773314476013,-0.20216640830039978,1.0350210666656494,14.412349700927734,7.309995651245117,3.860755443572998,-0.622468888759613,-0.7964601516723633,-0.2384880781173706,-1.462680459022522,-0.28421226143836975,-0.07677247375249863
364,161611,161612,-1.165869116783142,-0.13322941958904266,1.0394055843353271,21.860464096069336,-13.414971351623535,3.8235621452331543,-0.6314684152603149,-0.8024598360061646,-0.25048747658729553,-1.2565046548843384,0.00860776100307703,-0.025788933038711548
365,161621,161622,-1.0270640850067139,-0.4935707747936249,1.068743109703064,21.18999671936035,-30.284061431884766,4.479611873626709,-0.6329683661460876,-0.8129593133926392,-0.24898754060268402,-0.8913719058036804,0.2017080932855606,0.01507254783064127
366,161631,161632,-0.3294556438922882,-0.4200049936771393,1.007768988609314,15.80675220489502,-38.70793533325195,4.788021087646484,-0.6149692535400391,-0.8129593133926392,-0.2549872398376465,-0.5313742160797119,0.3523825407028198,0.059594497084617615
367,161641,161642,-0.4411723017692566,-0.31685271859169006,0.9814342260360718,9.068839073181152,-35.178287506103516,4.126183032989502,-0.6074696183204651,-0.8234587907791138,-0.2564871609210968,-0.28274545073509216,0.47901660203933716,0.09890896081924438
368,161651,161652,-0.2099442332983017,-0.23031730949878693,0.8732486367225647,2.5390987396240234,-20.26761817932129,4.498625755310059,-0.6149692535400391,-0.8219588994979858,-0.2579870820045471,-0.03282789885997772,0.5654073357582092,0.1369926631450653
369,161661,161662,-0.3068002164363861,-0.05044654756784439,0.966464102268219,-2.5183207988739014,-4.311039924621582,3.462589979171753,-0.6119694113731384,-0.8099594712257385,-0.2579870820045471,0.1065744012594223,0.5552348494529724,0.1787555068731308
370,161671,161672,-0.3057021200656891,0.005867515224963427,1.0169092416763306,-7.419646263122559,10.645652770996094,1.1135520935058594,-0.6269686222076416,-0.8099594712257385,-0.25198739767074585,0.054952818900346756,0.4674016237258911,0.20393705368041992
371,161681,161682,-0.2127533257007599,-0.1046314388513565,1.0727479457855225,-12.754524230957031,18.735633850097656,0.0861952155828476,-0.6149692535400391,-0.8039597868919373,-0.25198739767074585,-0.16910530626773834,0.30212539434432983,0.20386265218257904
372,161691,161692,-0.08629077672958374,-0.29699283838272095,1.055507779121399,-19.972976684570312,23.806751251220703,2.0838828086853027,-0.6194689869880676,-0.790460467338562,-0.2564871609210968,-0.2963332235813141,0.1748916655778885,0.2150828242301941
373,161701,161702,-0.14746278524398804,-0.2520201802253723,1.046008586883545,-25.875381469726562,23.35082244873047,4.012641429901123,-0.6149692535400391,-0.7859606742858887,-0.24898754060268402,-0.6664513945579529,-0.06752240657806396,0.23098807036876678
374,161711,161712,-0.12007958441972733,-0.019036727026104927,1.034200668334961,-25.821475982666016,16.961627960205078,3.7024648189544678,-0.6209689378738403,-0.782960832118988,-0.24298784136772156,-0.9003884792327881,-0.28587689995765686,0.2703852355480194
375,161721,161722,-0.14621460437774658,0.06057262420654297,1.0528218746185303,-24.95830535888672,7.8592963218688965,3.8259353637695312,-0.6284685730934143,-0.7964601516723633,-0.25048747658729553,-0.9373224973678589,-0.49133816361427307,0.31709104776382446
376,161731,161732,-0.1242867261171341,-0.05592392012476921,0.9626140594482422,-17.62763214111328,-2.5190625190734863,2.438206195831299,-0.6179690957069397,-0.7889605164527893,-0.2369881421327591,-1.0409613847732544,-0.8404731154441833,0.3399659991264343
377,161741,161742,-0.046916116029024124,-0.02182881534099579,0.9822596907615662,-4.481695652008057,-18.648908615112305,1.3295223712921143,-0.6179690957069397,-0.7799609899520874,-0.26098695397377014,-0.8619162440299988,-0.884954035282135,0.37528085708618164
378,161751,161752,-0.16585277020931244,-0.07649991661310196,0.9532381892204285,8.516342163085938,-35.494300842285156,0.17444829642772675,-0.6329683661460876,-0.797960102558136,-0.23998799920082092,-0.48071882128715515,-0.7946783304214478,0.4009239971637726
379,161761,161762,-0.5299173593521118,-0.22532479465007782,0.9844242334365845,20.45964813232422,-44.55767822265625,0.39090341329574585,-0.6134693026542664,-0.8144592642784119,-0.25048747658729553,-0.10363540798425674,-0.7017357349395752,0.40460994839668274
380,161771,161772,-0.262699693441391,-0.053291838616132736,0.9847140312194824,24.71547508239746,-43.019287109375,1.3116663694381714,-0.5984700918197632,-0.8084595799446106,-0.24448777735233307,0.26831117272377014,-0.4822576344013214,0.4169570505619049
381,161781,161782,-0.021563760936260223,0.041869163513183594,1.0076305866241455,26.027074813842773,-29.164688110351562,2.2295186519622803,-0.6194689869880676,-0.8024598360061646,-0.24448777735233307,0.5282986760139465,-0.27736571431159973,0.43625274300575256
382,161791,161792,-0.10178489983081818,-0.07193200290203094,1.025869607925415,22.72011947631836,-8.862441062927246,1.5839877128601074,-0.6119694113731384,-0.8069596290588379,-0.2549872398376465,0.7812405228614807,0.05002877488732338,0.46087536215782166
383,161801,161802,-0.10498625785112381,-0.08226199448108673,0.9912585020065308,18.34235191345215,9.031493186950684,-0.9511216878890991,-0.6059696674346924,-0.8099594712257385,-0.24298784136772156,0.8021878600120544,0.23152518272399902,0.4687001407146454
384,161811,161812,-0.08132593333721161,-0.00943921972066164,0.9354846477508545,16.29237174987793,25.63491439819336,-2.0807642936706543,-0.6269686222076416,-0.797960102558136,-0.24298784136772156,0.6063495874404907,0.37020376324653625,0.4562779664993286
385,161821,161822,-0.19648262858390808,-0.43906378746032715,0.9871184825897217,12.51888656616211,34.749237060546875,-0.886987566947937,-0.6134693026542664,-0.80545973777771,-0.25348731875419617,0.20365583896636963,0.531959056854248,0.44176167249679565
386,161831,161832,-0.18307243287563324,-0.2351047545671463,1.0506799221038818,5.28510856628418,35.27796173095703,0.5035733580589294,-0.6179690957069397,-0.8159592151641846,-0.24298784136772156,-0.059748098254203796,0.6090092062950134,0.438795268535614
387,161841,161842,-0.13459312915802002,-0.10951826721429825,0.9845393300056458,-1.7969605922698975,27.862009048461914,3.125441551208496,-0.6269686222076416,-0.8039597868919373,-0.24898754060268402,-0.41169172525405884,0.6476797461509705,0.45381706953048706
388,161851,161852,-1.088516354560852,-0.2239989936351776,0.9026139974594116,-7.411471366882324,16.50175666809082,6.426182746887207,-0.6209689378738403,-0.8099594712257385,-0.24898754060268402,-0.6156972050666809,0.5742679238319397,0.4974026679992676
389,161861,161862,-0.6727950572967529,-0.5384941101074219,0.9724072813987732,-12.02849006652832,1.3427013158798218,8.105015754699707,-0.6194689869880676,-0.80545973777771,-0.2564871609210968,-0.6141650676727295,0.42263850569725037,0.5729971528053284
390,161871,161872,-0.14805419743061066,-0.211275115609169,0.9901959896087646,-15.863627433776855,-13.349671363830566,6.3473663330078125,-0.6119694113731384,-0.8069596290588379,-0.25198739767074585,-0.5198301076889038,0.27224040031433105,0.6559207439422607
391,161881,161882,-0.3998650014400482,-0.5383931994438171,1.071251630783081,-18.704402923583984,-25.538599014282227,4.455580711364746,-0.6209689378738403,-0.8009599447250366,-0.25198739767074585,-0.41251224279403687,0.13486124575138092,0.7103955745697021
392,161891,161892,-0.3309094309806824,-0.3434203565120697,1.023651123046875,-19.2197208404541,-30.312864303588867,5.45055627822876,-0.6074696183204651,-0.80545973777771,-0.25048747658729553,-0.0943375676870346,-0.10405085980892181,0.7578626871109009
393,161901,161902,-0.20850041508674622,-0.1318982094526291,1.0094914436340332,-13.414793968200684,-30.22129249572754,3.8777897357940674,-0.6104694604873657,-0.8024598360061646,-0.2654867172241211,0.3301110863685608,-0.22454610466957092,0.8159990310668945
394,161911,161912,-0.10344545543193817,0.04489108920097351,0.9662486910820007,-6.472443103790283,-23.490901947021484,3.7299907207489014,-0.622468888759613,-0.7994599938392639,-0.25048747658729553,0.4250883162021637,-0.3873140215873718,0.8471882343292236
395,161921,161922,-0.07338489592075348,0.16845303773880005,1.0592153072357178,0.1317221224308014,-9.56726360321045,3.5846471786499023,-0.622468888759613,-0.7934603095054626,-0.24448777735233307,0.7108216881752014,-0.4310130774974823,0.8876427412033081
396,161931,161932,-0.1101379320025444,-0.15094801783561707,1.0381394624710083,5.976258754730225,4.044399261474609,2.9650421142578125,-0.6194689869880676,-0.80545973777771,-0.2384880781173706,0.6868940591812134,-0.3782220780849457,0.9216299057006836
397,161941,161942,-0.04032671079039574,-0.1485518366098404,0.9574016332626343,8.759557723999023,16.60354232788086,1.7575855255126953,-0.616469144821167,-0.790460467338562,-0.25348731875419617,0.5349215865135193,-0.2499445229768753,0.9472998976707458
398,161951,161952,-0.10559055209159851,-0.0756184384226799,0.9612181186676025,6.794430255889893,23.90334701538086,-0.30657386779785156,-0.6149692535400391,-0.797960102558136,-0.26098695397377014,0.43343624472618103,-0.11626207083463669,0.9581027030944824
399,161961,161962,-0.42153024673461914,-0.14428941905498505,1.0088893175125122,4.752388000488281,22.654573440551758,-1.9895273447036743,-0.6104694604873657,-0.8084595799446106,-0.2474876195192337,0.14508682489395142,-0.023912861943244934,0.9529899954795837
400,161971,161972,-0.5987187027931213,-0.18306341767311096,0.9761098027229309,3.3343100547790527,14.846671104431152,-4.350118160247803,-0.623968780040741,-0.7949602603912354,-0.25198739767074585,-0.002534364815801382,0.03537284582853317,0.9276654720306396
401,161981,161982,-0.3775683045387268,-0.23746146261692047,0.881872296333313,3.9178433418273926,5.89611291885376,-6.4331183433532715,-0.623968780040741,-0.7949602603912354,-0.25198739767074585,-0.15633569657802582,0.08665551245212555,0.8798825144767761
402,161991,161992,-0.4503503143787384,-0.4261992871761322,0.870083212852478,5.378342628479004,0.6276939511299133,-10.527009010314941,-0.623968780040741,-0.7949602603912354,-0.25198739767074585,-0.20388680696487427,0.08047951757907867,0.8076760172843933
403,162001,162002,-0.1605154573917389,-0.16397404670715332,0.9829811453819275,9.75458812713623,-4.281514644622803,-11.480355262756348,-0.623968780040741,-0.7949602603912354,-0.25198739767074585,-0.15672998130321503,0.12486189603805542,0.7028012275695801
404,162011,162012,-0.06581506133079529,-0.0011063884012401104,0.9911426305770874,13.432052612304688,-8.317578315734863,-12.067388534545898,-0.6179690957069397,-0.8009599447250366,-0.2579870820045471,-0.045682795345783234,0.17101025581359863,0.5883479118347168
405,162021,162022,-0.11714702099561691,-0.08803407847881317,0.9550700783729553,13.404952049255371,-11.587667465209961,-10.570976257324219,-0.6209689378738403,-0.8159592151641846,-0.2639867961406708,0.12399568408727646,0.39207977056503296,0.470302939414978
406,162031,162032,-0.6073136925697327,-0.10352857410907745,1.0029869079589844,9.666183471679688,-11.189971923828125,-8.079919815063477,-0.6089695692062378,-0.8099594712257385,-0.2639867961406708,0.25443175435066223,0.43093809485435486,0.3731144964694977
407,162041,162042,-0.5368451476097107,-0.25630486011505127,0.9085384607315063,4.37350606918335,-2.2622177600860596,-5.393174648284912,-0.6029698252677917,-0.8129593133926392,-0.2579870820045471,0.2288709282875061,0.5533732175827026,0.2920359671115875
408,162051,162052,-0.2093650847673416,-0.3173206150531769,0.8777608275413513,-4.610647201538086,4.484519958496094,-5.268370628356934,-0.6029698252677917,-0.8159592151641846,-0.26098695397377014,0.2919735610485077,0.5558158159255981,0.24043916165828705
409,162061,162062,-0.11251894384622574,-0.39080753922462463,0.8446561098098755,-10.417070388793945,13.842138290405273,-4.39738655090332,-0.6134693026542664,-0.8264586329460144,-0.25348731875419617,0.15192577242851257,0.42744147777557373,0.19202038645744324
410,162071,162072,-0.12257397174835205,-0.27122747898101807,0.9764189720153809,-9.37590217590332,19.927942276000977,-3.570923328399658,-0.5984700918197632,-0.8354582190513611,-0.2564871609210968,0.028956731781363487,0.2757737636566162,0.15506674349308014
411,162081,162082,-0.039390794932842255,-0.12180470675230026,0.9767103791236877,-12.02889347076416,20.01810073852539,-4.157506942749023,-0.6029698252677917,-0.8279585838317871,-0.2579870820045471,-0.09166126698255539,0.18462833762168884,0.11977612227201462
412,162091,162092,0.021458325907588005,0.016620732843875885,0.9610349535942078,-14.449957847595215,11.28113079071045,-2.005565643310547,-0.6074696183204651,-0.8294585347175598,-0.27148643136024475,-0.27958327531814575,0.046531226485967636,0.08316587656736374
413,162101,162102,-0.05460752174258232,-0.2248687744140625,0.9608322381973267,-12.877462387084961,1.798462986946106,2.6729395389556885,-0.6029698252677917,-0.8219588994979858,-0.26098695397377014,-0.391866534948349,-0.10618139803409576,0.07013651728630066
414,162111,162112,-0.23442350327968597,-0.21760541200637817,0.9010249972343445,-5.535869598388672,-11.526715278625488,6.346860408782959,-0.6134693026542664,-0.8264586329460144,-0.26848655939102173,-0.31500133872032166,-0.10973142087459564,0.10779212415218353
415,162121,162122,-0.4392549693584442,-0.30647414922714233,1.0079834461212158,1.1264963150024414,-23.21124839782715,10.719959259033203,-0.6029698252677917,-0.8339582681655884,-0.2669866383075714,-0.23832601308822632,-0.15040266513824463,0.17695745825767517
416,162131,162132,-0.4201219081878662,-0.08441203832626343,1.0555007457733154,7.90158224105835,-31.20380401611328,13.989520072937012,-0.5894705057144165,-0.8204589486122131,-0.2654867172241211,0.21356727182865143,-0.06965437531471252,0.29963698983192444
417,162141,162142,-0.19311542809009552,-0.07392331212759018,1.0313503742218018,1.3190877437591553,-35.277626037597656,16.910478591918945,-0.5984700918197632,-0.8354582190513611,-0.2654867172241211,0.605330228805542,0.0735824927687645,0.448932945728302
418,162151,162152,-0.08891013264656067,0.02371508814394474,0.9740390181541443,-13.097677230834961,-27.257568359375,19.132001876831055,-0.5969701409339905,-0.8399580121040344,-0.28798559308052063,0.8941143751144409,0.046626195311546326,0.6237241625785828
419,162161,162162,-0.15437358617782593,0.17198634147644043,1.109348177909851,-24.591339111328125,-7.609986782073975,18.49972915649414,-0.5864706635475159,-0.8414579033851624,-0.2744862735271454,0.9520345330238342,-0.2808830440044403,0.8172925710678101
420,162171,162172,-0.06000729650259018,0.04844009131193161,1.0404884815216064,-28.32490348815918,10.58063793182373,17.194265365600586,-0.5864706635475159,-0.8384580612182617,-0.27148643136024475,0.9946019649505615,-0.5082468390464783,0.9978143572807312
421,162181,162182,-0.13701604306697845,0.0015663494123145938,1.0823091268539429,-26.499889373779297,27.109556198120117,15.764638900756836,-0.5879706144332886,-0.8159592151641846,-0.2639867961406708,0.6695786714553833,-0.8902310729026794,1.172016978263855
422,162191,162192,-0.24531832337379456,0.015470366925001144,1.045555591583252,-16.203882217407227,40.10429000854492,15.268742561340332,-0.5909704566001892,-0.8219588994979858,-0.2639867961406708,0.2637587785720825,-1.1666834354400635,1.3297792673110962
423,162201,162202,-0.15176819264888763,-0.09724723547697067,1.1064828634262085,-1.8795266151428223,44.514366149902344,11.709249496459961,-0.5834708213806152,-0.8114594221115112,-0.2654867172241211,-0.20952531695365906,-1.1705156564712524,1.4536086320877075
424,162211,162212,-0.11530182510614395,-0.13579308986663818,1.0530213117599487,8.587531089782715,39.77421951293945,11.21102523803711,-0.6044697761535645,-0.8264586329460144,-0.27148643136024475,-0.5911535024642944,-1.036559820175171,1.5529245138168335
425,162221,162222,-0.1227497085928917,-0.03103441558778286,1.0702800750732422,12.136672973632812,35.09550476074219,5.920144557952881,-0.6074696183204651,-0.8204589486122131,-0.277486115694046,-0.7758216261863708,-0.9389885067939758,1.633540153503418
426,162231,162232,-0.16689085960388184,0.10174446552991867,1.0669114589691162,15.430115699768066,23.82079315185547,-1.117126226425171,-0.5999699831008911,-0.8249587416648865,-0.2579870820045471,-1.1302546262741089,-0.7219919562339783,1.6703386306762695
427,162241,162242,-0.06985337287187576,0.040933672338724136,1.0512608289718628,20.997188568115234,8.993810653686523,-5.361929416656494,-0.6104694604873657,-0.8354582190513611,-0.26248687505722046,-1.3170350790023804,-0.5824446082115173,1.6467252969741821
428,162251,162252,-0.07195813953876495,0.045332495123147964,1.116164207458496,28.50078773498535,-5.950121879577637,-6.552718639373779,-0.6104694604873657,-0.8294585347175598,-0.26248687505722046,-1.3342472314834595,-0.46467113494873047,1.5840553045272827
429,162261,162262,-0.11990957707166672,0.02048495039343834,1.0839146375656128,34.214637756347656,-17.38414192199707,-5.548035621643066,-0.616469144821167,-0.8174591064453125,-0.26248687505722046,-1.206489086151123,0.04100454971194267,1.5291171073913574
430,162271,162272,-0.0910162702202797,0.009386485442519188,1.0223076343536377,39.408382415771484,-25.639707565307617,-4.091655731201172,-0.6134693026542664,-0.8114594221115112,-0.2594870328903198,-0.926023542881012,0.20883701741695404,1.4567828178405762
431,162281,162282,-0.3516935706138611,-0.18363365530967712,1.0288819074630737,37.41300582885742,-32.375736236572266,-0.6465700268745422,-0.6074696183204651,-0.8174591064453125,-0.2564871609210968,-0.6702213883399963,0.5569614768028259,1.4191936254501343
432,162291,162292,-0.19192366302013397,-0.04970243573188782,1.094292163848877,24.19783592224121,-31.594228744506836,3.023017406463623,-0.6074696183204651,-0.8324583768844604,-0.2564871609210968,-0.28510692715644836,1.0000056028366089,1.417588472366333
433,162301,162302,-0.1113741397857666,0.03694609925150871,1.087271809577942,6.3098249435424805,-21.10639762878418,5.410241603851318,-0.6209689378738403,-0.8099594712257385,-0.2639867961406708,-0.05859559774398804,1.0420434474945068,1.441068172454834
434,162311,162312,-0.2565958797931671,-0.03816670551896095,1.1156588792800903,-16.571186065673828,-4.648197174072266,7.744600772857666,-0.6089695692062378,-0.8249587416648865,-0.26098695397377014,0.15919619798660278,0.9782367944717407,1.491309642791748
435,162321,162322,-0.3795889914035797,-0.3828878104686737,1.0134081840515137,-37.60028076171875,10.580744743347168,7.2264933586120605,-0.6104694604873657,-0.8174591064453125,-0.26848655939102173,0.10469428449869156,0.6923940777778625,1.5625741481781006
436,162331,162332,-0.13406839966773987,-0.14031359553337097,0.9993658065795898,-52.9373779296875,23.21622657775879,6.423367977142334,-0.616469144821167,-0.8114594221115112,-0.25048747658729553,-0.2291857898235321,0.17268376052379608,1.6216751337051392
437,162341,162342,-0.02664429321885109,0.003255208721384406,0.9937121272087097,-58.99148178100586,34.26504135131836,5.223441123962402,-0.6014699339866638,-0.7934603095054626,-0.2654867172241211,-0.4654310941696167,-0.23363922536373138,1.6918991804122925
438,162351,162352,-0.03356226906180382,-0.09191934019327164,0.9601196050643921,-53.871124267578125,39.771759033203125,1.9025359153747559,-0.5999699831008911,-0.7889605164527893,-0.25198739767074585,-0.9064579606056213,-0.9306007623672485,1.7248982191085815
439,162361,162362,-0.3207213580608368,-0.05388608202338219,0.9580756425857544,-37.45820236206055,39.12125778198242,-2.0490047931671143,-0.6104694604873657,-0.7994599938392639,-0.25348731875419617,-1.3193750381469727,-1.3724744319915771,1.7312132120132446
440,162371,162372,-0.19457393884658813,0.10300631821155548,1.0815348625183105,-15.123689651489258,30.51259422302246,-4.294339656829834,-0.6089695692062378,-0.8039597868919373,-0.25198739767074585,-1.5857141017913818,-1.6498057842254639,1.6974475383758545
441,162381,162382,-0.07208430767059326,-0.009521260857582092,0.9830590486526489,6.2254791259765625,15.133441925048828,-6.029110431671143,-0.623968780040741,-0.7889605164527893,-0.24898754060268402,-1.8022798299789429,-1.6355868577957153,1.6519018411636353
442,162391,162392,-0.05352377891540527,-0.04370927810668945,0.9697036743164062,24.788484573364258,-5.6008477210998535,-5.3189544677734375,-0.623968780040741,-0.7949602603912354,-0.23998799920082092,-1.857847809791565,-1.5111454725265503,1.5889273881912231
443,162401,162402,-0.09484848380088806,-0.10431332886219025,1.0923079252243042,36.99864196777344,-25.941364288330078,-3.7818071842193604,-0.623968780040741,-0.797960102558136,-0.25198739767074585,-1.721903920173645,-1.0559391975402832,1.5657793283462524
444,162411,162412,-0.11964163184165955,-0.2607165277004242,0.9875103235244751,37.7054328918457,-40.38446044921875,-2.24239444732666,-0.6254687309265137,-0.790460467338562,-0.25348731875419617,-1.295955777168274,-0.6575890183448792,1.5273617506027222
445,162421,162422,-0.06810123473405838,0.009371946565806866,1.039644479751587,36.94291687011719,-48.48459243774414,-2.9690253734588623,-0.6284685730934143,-0.7994599938392639,-0.2564871609210968,-0.9131393432617188,-0.4019748568534851,1.4899606704711914
446,162431,162432,-0.10490497946739197,-0.3362211287021637,0.9577183723449707,32.925472259521484,-51.72201156616211,-3.2508649826049805,-0.6254687309265137,-0.80545973777771,-0.26848655939102173,-0.3554934859275818,-0.021385084837675095,1.4582568407058716
447,162441,162442,-0.06486522406339645,-0.09985897690057755,0.974833607673645,20.096229553222656,-48.111732482910156,-6.163763046264648,-0.6149692535400391,-0.8069596290588379,-0.25198739767074585,0.12258358299732208,0.1408088505268097,1.3984802961349487
448,162451,162452,-0.09484986215829849,0.006521117873489857,1.0059568881988525,10.275370597839355,-34.0538330078125,-8.29146957397461,-0.6104694604873657,-0.8114594221115112,-0.25348731875419617,0.5369789004325867,0.2674523890018463,1.3265790939331055
449,162461,162462,-0.11182232946157455,-0.011535517871379852,1.0023908615112305,0.7709336280822754,-12.41666030883789,-8.736591339111328,-0.6149692535400391,-0.8159592151641846,-0.2549872398376465,0.9388927817344666,0.3747410178184509,1.237509846687317
450,162471,162472,-0.16090765595436096,-0.3254520297050476,0.9904689192771912,-5.8816094398498535,9.427836418151855,-8.50445556640625,-0.6074696183204651,-0.7994599938392639,-0.2564871609210968,0.7669910192489624,0.281941294670105,1.1597703695297241
451,162481,162482,-0.15019693970680237,-0.5574827790260315,1.028086543083191,-7.8380208015441895,26.266054153442383,-8.480175018310547,-0.6179690957069397,-0.8009599447250366,-0.25198739767074585,0.4417591989040375,0.12554821372032166,1.0792142152786255
452,162491,162492,-0.07781606912612915,-0.2166139930486679,0.9232712984085083,-1.0158191919326782,35.49100875854492,-9.385390281677246,-0.6104694604873657,-0.790460467338562,-0.2474876195192337,0.25606757402420044,0.1524379998445511,0.9943084716796875
453,162501,162502,-0.41306939721107483,-0.4660263955593109,0.9340317845344543,7.86532735824585,35.807682037353516,-10.274978637695312,-0.6179690957069397,-0.7889605164527893,-0.24298784136772156,-0.23305006325244904,0.23024582862854004,0.9046517014503479
454,162511,162512,-0.36107879877090454,-0.38321372866630554,1.0957276821136475,14.05790901184082,29.028064727783203,-8.579370498657227,-0.622468888759613,-0.7964601516723633,-0.25048747658729553,-0.3787499666213989,0.3427911698818207,0.8043504357337952
455,162521,162522,-0.6064009666442871,-0.6602192521095276,1.125579833984375,18.355642318725586,16.746679306030273,-8.747048377990723,-0.6119694113731384,-0.8009599447250366,-0.25198739767074585,-0.7195797562599182,0.5548698902130127,0.7208521962165833
456,162531,162532,-0.3561469316482544,-0.6371675729751587,0.9188010096549988,20.62203598022461,2.5491015911102295,-7.817858695983887,-0.6179690957069397,-0.797960102558136,-0.2549872398376465,-0.8305748701095581,0.807681679725647,0.6435070633888245
457,162541,162542,-0.3329882025718689,-0.7507928609848022,1.0088618993759155,13.445568084716797,-12.190072059631348,-5.8899359703063965,-0.6314684152603149,-0.80545973777771,-0.2474876195192337,-0.6989667415618896,0.816945493221283,0.5599665641784668
458,162551,162552,-0.4946635067462921,-0.5918744206428528,0.9102038145065308,0.9983769655227661,-21.148290634155273,-4.653244495391846,-0.6134693026542664,-0.8114594221115112,-0.2594870328903198,-0.5521750450134277,0.8964427709579468,0.5001288056373596
459,162561,162562,-0.42413651943206787,-0.15981525182724,1.0650206804275513,-13.366493225097656,-21.481006622314453,-4.470668315887451,-0.6119694113731384,-0.8009599447250366,-0.2549872398376465,-0.4795397222042084,0.9065269827842712,0.4467780590057373
460,162571,162572,-0.22662284970283508,-0.40523165464401245,0.9453681111335754,-26.131301879882812,-20.9244441986084,-4.851253509521484,-0.6134693026542664,-0.7994599938392639,-0.24148792028427124,-0.24264158308506012,0.6644726991653442,0.39569929242134094
461,162581,162582,-0.4587656855583191,-0.3269820809364319,0.9742233157157898,-34.86225509643555,-15.293736457824707,-5.7579345703125,-0.5999699831008911,-0.7949602603912354,-0.25198739767074585,0.07797571271657944,0.32450732588768005,0.3486793637275696
462,162591,162592,-0.44761407375335693,-0.5708689093589783,0.9552378058433533,-35.32017135620117,-13.240068435668945,-4.924656867980957,-0.6134693026542664,-0.7994599938392639,-0.24448777735233307,0.06564810872077942,0.050900645554065704,0.2852969467639923
463,162601,162602,-0.3671796917915344,-0.3461258113384247,1.0015126466751099,-23.319555282592773,-8.829001426696777,-2.371817111968994,-0.6119694113731384,-0.797960102558136,-0.24298784136772156,0.22035513818264008,-0.279462069272995,0.24635927379131317
464,162611,162612,-0.32867708802223206,-0.10900657624006271,0.9655052423477173,-7.171731948852539,-4.576529502868652,0.0992005318403244,-0.6044697761535645,-0.790460467338562,-0.25348731875419617,0.22110050916671753,-0.36838647723197937,0.22538357973098755
465,162621,162622,-0.3916719853878021,-0.03973981365561485,0.9824159145355225,4.917034149169922,-6.845296382904053,2.3317747116088867,-0.623968780040741,-0.782960832118988,-0.23098844289779663,0.36012980341911316,-0.3766930401325226,0.2369089126586914
466,162631,162632,-0.16780588030815125,-0.14865079522132874,1.0081555843353271,10.25340461730957,-8.902231216430664,3.9152629375457764,-0.616469144821167,-0.7964601516723633,-0.24448777735233307,0.45197030901908875,-0.24616579711437225,0.26623761653900146
467,162641,162642,-0.09642941504716873,-0.3578658998012543,0.8338027596473694,13.459424018859863,-14.94025707244873,4.841204643249512,-0.6059696674346924,-0.7919603586196899,-0.24898754060268402,0.465975284576416,-0.11693958193063736,0.3040772080421448
468,162651,162652,-0.30931681394577026,-0.274237722158432,0.9195813536643982,14.758551597595215,-20.299774169921875,5.96838903427124,-0.6134693026542664,-0.8024598360061646,-0.2474876195192337,0.7190797328948975,-0.02500961348414421,0.361117959022522
469,162661,162662,-0.4492398798465729,-0.0672171339392662,0.9035108089447021,18.21233558654785,-22.544389724731445,6.759279727935791,-0.6044697761535645,-0.8144592642784119,-0.25348731875419617,0.9549556970596313,0.10485777258872986,0.4259732961654663
470,162671,162672,-0.42249414324760437,-0.06281888484954834,1.013216257095337,18.594322204589844,-26.07298469543457,5.504461765289307,-0.6104694604873657,-0.8144592642784119,-0.2594870328903198,1.3167427778244019,0.41341158747673035,0.4868561327457428
