,timestamp_start,timestamp_end,acc.x,acc.y,acc.z,gyro.x,gyro.y,gyro.z,mag.x,mag.y,mag.z,stabilizer.pitch,stabilizer.roll,stabilizer.yaw
0,278621,278622,-0.23312869668006897,-0.05754886567592621,1.0679930448532104,-10.083086967468262,14.849807739257812,5.083066463470459,-0.562471866607666,-0.850457489490509,-0.2864856719970703,0.2571507394313812,0.13857656717300415,2.1247527599334717
1,278631,278632,-0.12107028812170029,0.02020886354148388,1.010616421699524,-4.437836647033691,11.922090530395508,6.343454360961914,-0.5519723892211914,-0.8429578542709351,-0.28498575091362,0.1623738706111908,0.4190135598182678,2.1768622398376465
2,278641,278642,-0.05427790433168411,0.043200619518756866,1.03169846534729,-1.5080821514129639,5.61177921295166,6.890023231506348,-0.5654717087745667,-0.8534573316574097,-0.2924853563308716,0.10029661655426025,0.38076362013816833,2.248028039932251
3,278651,278652,-0.047141849994659424,0.009816689416766167,1.0623570680618286,1.0137628316879272,3.483092784881592,8.419461250305176,-0.5639718174934387,-0.8549572229385376,-0.27898603677749634,0.020129462704062462,0.5164551734924316,2.311300039291382
4,278661,278662,-0.2836945652961731,0.0777234211564064,1.045603632926941,0.27248138189315796,4.392580986022949,10.870977401733398,-0.5654717087745667,-0.8654567003250122,-0.28948551416397095,-0.06870044022798538,0.4500472843647003,2.401052474975586
5,278671,278672,-0.5158782601356506,-0.028879867866635323,1.092677354812622,-6.071498870849609,6.959170341491699,14.07197093963623,-0.5714713931083679,-0.850457489490509,-0.2834858298301697,-0.11124251037836075,0.43825703859329224,2.5332424640655518
6,278681,278682,-0.32200518250465393,-0.24145843088626862,1.0683785676956177,-10.06322956085205,9.610208511352539,16.746294021606445,-0.5639718174934387,-0.8489575386047363,-0.2969851493835449,-0.3266565501689911,0.2119203507900238,2.6549131870269775
7,278691,278692,-0.08812960982322693,-0.794255256652832,1.0225722789764404,-14.70595645904541,9.500699043273926,19.59395980834961,-0.577471137046814,-0.8534573316574097,-0.2834858298301697,-0.4033469557762146,-0.059555456042289734,2.8396406173706055
8,278701,278702,-0.3637749254703522,-0.6262168884277344,1.0743290185928345,-16.475479125976562,6.375960350036621,20.7049503326416,-0.5564721822738647,-0.8474575877189636,-0.2864856719970703,-0.44902941584587097,-0.09340774267911911,3.057335376739502
9,278711,278712,-0.3676529824733734,-0.7065585851669312,1.0379472970962524,-17.787288665771484,7.234663486480713,21.15921401977539,-0.5654717087745667,-0.844457745552063,-0.2744862735271454,-0.3755548298358917,-0.10504952818155289,3.3053348064422607
10,278721,278722,-0.29989710450172424,-0.3277251422405243,1.0281004905700684,-20.68012237548828,9.0608549118042,20.229434967041016,-0.56997150182724,-0.8459576964378357,-0.27298635244369507,-0.3748556077480316,-0.1661205291748047,3.5377087593078613
11,278731,278732,-0.33209744095802307,0.13116247951984406,1.0130256414413452,-24.306665420532227,9.053475379943848,19.139591217041016,-0.5594720244407654,-0.8384580612182617,-0.2654867172241211,-0.5434473156929016,-0.5499331951141357,3.7060182094573975
12,278741,278742,-0.15183711051940918,0.016341065987944603,0.948357880115509,-34.573272705078125,2.0542335510253906,17.968883514404297,-0.5639718174934387,-0.8249587416648865,-0.28498575091362,-0.5560373067855835,-0.7980049848556519,3.90425968170166
13,278751,278752,-0.16003835201263428,-0.031587351113557816,0.9584293961524963,-40.431365966796875,-9.988292694091797,14.814315795898438,-0.5639718174934387,-0.8249587416648865,-0.26998651027679443,-0.5219950079917908,-1.3032623529434204,4.06058406829834
14,278761,278762,-0.34310635924339294,-0.2456306368112564,0.9130123853683472,-37.82014465332031,-15.413619041442871,12.321857452392578,-0.5609719157218933,-0.8189590573310852,-0.26998651027679443,-0.4130983054637909,-1.7165511846542358,4.197139263153076
15,278771,278772,-0.15122412145137787,-0.38887661695480347,0.9957973957061768,-30.93647575378418,-19.47442626953125,10.239192008972168,-0.5639718174934387,-0.8219588994979858,-0.2579870820045471,-0.18816615641117096,-1.9181599617004395,4.332012176513672
16,278781,278782,-0.2866215109825134,-0.2968849241733551,0.9743648767471313,-19.1391658782959,-18.41437339782715,7.734408378601074,-0.5534723401069641,-0.7994599938392639,-0.26848655939102173,0.0279290322214365,-2.35201096534729,4.41229248046875
17,278791,278792,-0.13401667773723602,-0.15118034183979034,1.0246858596801758,-2.821028470993042,-12.11452579498291,6.056509971618652,-0.5609719157218933,-0.8159592151641846,-0.2579870820045471,0.17761968076229095,-2.1444294452667236,4.515157699584961
18,278801,278802,-0.28911092877388,0.058452147990465164,0.9254038333892822,13.929023742675781,0.3253655433654785,7.275052547454834,-0.5579720735549927,-0.8219588994979858,-0.2579870820045471,0.2709149420261383,-2.0680196285247803,4.59331750869751
19,278811,278812,-0.49576911330223083,-0.15802332758903503,0.976815402507782,28.38039207458496,12.26701545715332,6.958588600158691,-0.5594720244407654,-0.8204589486122131,-0.2744862735271454,0.1352744996547699,-1.9049320220947266,4.658984661102295
20,278821,278822,-0.3046562075614929,-0.04050896689295769,0.9018440842628479,37.54710388183594,19.67995262145996,5.450881481170654,-0.5669716596603394,-0.8189590573310852,-0.26098695397377014,-0.15482401847839355,-1.5901373624801636,4.727415084838867
21,278831,278832,-0.1848592311143875,-0.2676255404949188,0.9704711437225342,37.537628173828125,26.474252700805664,2.7107224464416504,-0.5684715509414673,-0.8174591064453125,-0.25348731875419617,-0.4788212180137634,-1.1888065338134766,4.762643337249756
22,278841,278842,-0.45315316319465637,-0.4626394212245941,0.946849524974823,35.950313568115234,29.554330825805664,0.9214386940002441,-0.5729713439941406,-0.8159592151641846,-0.2549872398376465,-0.45940181612968445,-1.060383915901184,4.729162693023682
23,278851,278852,-0.9583872556686401,-0.45200276374816895,0.9014704823493958,29.696155548095703,30.072797775268555,1.9440813064575195,-0.577471137046814,-0.8234587907791138,-0.2594870328903198,-0.7742642164230347,-0.5794028639793396,4.754861831665039
24,278861,278862,-0.6532357931137085,-0.28337037563323975,0.9010455012321472,18.09564971923828,27.84551429748535,1.0988917350769043,-0.5714713931083679,-0.8174591064453125,-0.27148643136024475,-1.0514236688613892,-0.5448657274246216,4.748436450958252
25,278871,278872,-0.24627728760242462,-0.15906313061714172,0.874832272529602,4.0013933181762695,21.75496482849121,-0.6311876773834229,-0.5729713439941406,-0.836958110332489,-0.26998651027679443,-1.15995454788208,-0.5044867992401123,4.730420112609863
26,278881,278882,-0.10342921316623688,-0.08168978989124298,0.8588427305221558,-8.377935409545898,12.323812484741211,-1.732284426689148,-0.5654717087745667,-0.8234587907791138,-0.27148643136024475,-1.405845284461975,-0.6565415859222412,4.7093634605407715
27,278891,278892,-0.06203284487128258,-0.07131469249725342,0.8831073641777039,-17.560035705566406,4.713677883148193,-1.1737737655639648,-0.562471866607666,-0.8264586329460144,-0.2744862735271454,-1.4070403575897217,-0.8191726803779602,4.689602851867676
28,278901,278902,-0.0975843146443367,-0.09983186423778534,0.9087356328964233,-22.83420181274414,-6.545109272003174,-2.745750665664673,-0.5639718174934387,-0.8339582681655884,-0.2579870820045471,-1.3308876752853394,-1.0235199928283691,4.665578365325928
29,278911,278912,-0.04795476794242859,0.01894143596291542,0.9552519917488098,-20.75064468383789,-18.51705551147461,-5.436839580535889,-0.5519723892211914,-0.8399580121040344,-0.28198590874671936,-1.1710609197616577,-1.229025959968567,4.6269211769104
30,278921,278922,-0.1659991443157196,0.08602730184793472,0.947262167930603,-13.64838695526123,-25.701114654541016,-6.729465484619141,-0.554972231388092,-0.8219588994979858,-0.27298635244369507,-0.9272089004516602,-1.4746607542037964,4.555974960327148
31,278931,278932,-0.18884624540805817,0.22019793093204498,0.9737609624862671,3.5398809909820557,-25.516342163085938,-5.4470696449279785,-0.562471866607666,-0.8324583768844604,-0.28048595786094666,-0.6232277750968933,-1.4773021936416626,4.4984869956970215
32,278941,278942,-0.04981330782175064,-0.0033206413500010967,1.0203489065170288,20.317487716674805,-14.748788833618164,-2.195875644683838,-0.5654717087745667,-0.8354582190513611,-0.27148643136024475,-0.4130856990814209,-1.2156553268432617,4.487107753753662
33,278951,278952,-0.0936698392033577,0.18405070900917053,0.9716866612434387,31.278932571411133,1.8598846197128296,0.6833041310310364,-0.5654717087745667,-0.8384580612182617,-0.2744862735271454,-0.5826380252838135,-0.8150408267974854,4.527687072753906
34,278961,278962,-0.008822833187878132,0.1303601711988449,0.969126284122467,36.253990173339844,15.16670036315918,3.0974202156066895,-0.56997150182724,-0.851957380771637,-0.27898603677749634,-0.7146195769309998,-0.6604810953140259,4.5080366134643555
35,278971,278972,-0.10347264260053635,0.00173240399453789,1.017148494720459,31.881511688232422,24.596376419067383,5.5832905769348145,-0.56997150182724,-0.8459576964378357,-0.26998651027679443,-0.9032942652702332,-0.2482561320066452,4.571579456329346
36,278981,278982,-0.3948875665664673,0.02931275963783264,0.986710786819458,21.460206985473633,26.979928970336914,6.76794958114624,-0.5744712948799133,-0.844457745552063,-0.2834858298301697,-0.9212671518325806,-0.045221589505672455,4.615629196166992
37,278991,278992,-0.12588173151016235,-0.008651213720440865,0.9579493999481201,12.172816276550293,28.071941375732422,7.343142509460449,-0.5654717087745667,-0.8354582190513611,-0.2744862735271454,-1.2464439868927002,0.13634446263313293,4.6942667961120605
38,279001,279002,-0.15675070881843567,-0.21042954921722412,0.9918158054351807,1.7114673852920532,26.72507667541504,6.486198902130127,-0.5684715509414673,-0.8414579033851624,-0.2654867172241211,-1.602017879486084,0.15065984427928925,4.75761079788208
39,279011,279012,-0.2569863498210907,-0.1380055695772171,0.9199056029319763,-7.091320991516113,24.095251083374023,7.8616557121276855,-0.577471137046814,-0.8384580612182617,-0.2654867172241211,-1.767126202583313,0.10866055637598038,4.83168363571167
40,279021,279022,-0.5810858607292175,-0.11362583190202713,0.9338274598121643,-13.542248725891113,20.400127410888672,10.009782791137695,-0.5714713931083679,-0.8384580612182617,-0.26848655939102173,-1.924070119857788,-0.055679548531770706,4.915396690368652
41,279031,279032,-0.7074172496795654,-0.18959321081638336,0.9565823674201965,-14.74567699432373,8.43967342376709,12.860860824584961,-0.5744712948799133,-0.8534573316574097,-0.2744862735271454,-1.940068006515503,-0.2669505774974823,5.015564918518066
42,279041,279042,-0.21900340914726257,-0.19529804587364197,0.9576705098152161,-16.55851936340332,-5.026187896728516,16.85072898864746,-0.562471866607666,-0.8354582190513611,-0.28048595786094666,-1.9307039976119995,-0.3520340025424957,5.187127590179443
43,279051,279052,-0.1744144856929779,-0.019654348492622375,1.0023473501205444,-11.427157402038574,-19.50063705444336,19.654939651489258,-0.56997150182724,-0.8309584259986877,-0.2639867961406708,-1.76738703250885,-0.5214959979057312,5.363612174987793
44,279061,279062,-0.10623913258314133,0.023514864966273308,0.9446218609809875,-9.329652786254883,-25.727741241455078,20.446332931518555,-0.5564721822738647,-0.8354582190513611,-0.27148643136024475,-1.4985581636428833,-0.5710974931716919,5.577907562255859
45,279071,279072,-0.08548407256603241,-0.016183923929929733,1.0600426197052002,-6.426307201385498,-31.502079010009766,21.06589698791504,-0.5504724383354187,-0.8354582190513611,-0.28048595786094666,-1.2239551544189453,-0.6584787368774414,5.7820963859558105
46,279081,279082,-0.3069770336151123,0.07934561371803284,0.9567283391952515,0.06192949786782265,-32.20375442504883,21.44176483154297,-0.554972231388092,-0.8429578542709351,-0.2639867961406708,-1.003741979598999,-0.6404293179512024,6.005789279937744
47,279091,279092,-0.2082749754190445,0.03282490000128746,0.9886016249656677,7.19677734375,-29.798770904541016,20.277339935302734,-0.5444727540016174,-0.8324583768844604,-0.28048595786094666,-0.7202354669570923,-0.5283288359642029,6.233893871307373
48,279101,279102,-0.2500450909137726,0.004613962955772877,0.8721043467521667,7.388845443725586,-24.363664627075195,17.484416961669922,-0.5534723401069641,-0.844457745552063,-0.277486115694046,-0.5048953890800476,-0.36476990580558777,6.440732002258301
49,279111,279112,-0.542410671710968,-0.24218399822711945,1.077309012413025,5.46999454498291,-17.610319137573242,13.154186248779297,-0.5489725470542908,-0.8339582681655884,-0.27298635244369507,-0.24825415015220642,-0.33596089482307434,6.580386638641357
50,279121,279122,-0.4472862184047699,0.1276894211769104,0.9157696962356567,3.485682964324951,-6.216963768005371,9.539671897888184,-0.5594720244407654,-0.8354582190513611,-0.26248687505722046,-0.18332022428512573,-0.42787501215934753,6.654319763183594
51,279131,279132,-0.5111046433448792,-0.1728971153497696,1.0221341848373413,-0.372269868850708,9.399099349975586,6.69672155380249,-0.5489725470542908,-0.836958110332489,-0.27298635244369507,-0.31231415271759033,-0.39783334732055664,6.730865001678467
52,279141,279142,-0.7619315385818481,-0.16624371707439423,0.8835283517837524,-3.073625326156616,24.665616989135742,3.9079160690307617,-0.5594720244407654,-0.8354582190513611,-0.2654867172241211,-0.529731273651123,-0.31745725870132446,6.795426368713379
53,279151,279152,-0.5086453557014465,-0.20848865807056427,0.9601872563362122,-3.750652313232422,27.1387939453125,1.055590271949768,-0.5609719157218933,-0.8279585838317871,-0.26998651027679443,-0.5780009627342224,-0.42648187279701233,6.821963787078857
54,279161,279162,-0.22898687422275543,-0.47815853357315063,0.9156883358955383,-0.6078158617019653,28.980796813964844,1.047206163406372,-0.5534723401069641,-0.8354582190513611,-0.277486115694046,-1.0449198484420776,-0.412814199924469,6.821500301361084
55,279171,279172,-0.16863487660884857,-0.1335524022579193,0.8679861426353455,0.17529290914535522,26.15647315979004,0.3230585753917694,-0.5564721822738647,-0.8384580612182617,-0.2744862735271454,-1.489375352859497,-0.45226794481277466,6.809790134429932
56,279181,279182,-0.4122929573059082,-0.3133678436279297,0.8954929113388062,2.643922805786133,18.744945526123047,-1.5751739740371704,-0.562471866607666,-0.8474575877189636,-0.28048595786094666,-1.7406659126281738,-0.5110436081886292,6.7863545417785645
57,279191,279192,-0.09985578060150146,-0.15472929179668427,0.902336835861206,6.420760631561279,2.3205783367156982,-5.007696151733398,-0.5609719157218933,-0.836958110332489,-0.2669866383075714,-1.8597686290740967,-0.39410388469696045,6.766520023345947
58,279201,279202,-0.35043713450431824,-0.2834855616092682,0.8720426559448242,11.068594932556152,-11.290534973144531,-8.05802059173584,-0.5609719157218933,-0.8399580121040344,-0.26098695397377014,-1.5824049711227417,-0.32589924335479736,6.708624362945557
59,279211,279212,-0.44626882672309875,-0.5964779257774353,1.0575631856918335,20.607990264892578,-21.522655487060547,-10.171462059020996,-0.5414729118347168,-0.8414579033851624,-0.277486115694046,-1.0998643636703491,-0.020074622705578804,6.65471887588501
60,279221,279222,-0.3052695095539093,-0.40284085273742676,0.9071153998374939,35.73011016845703,-18.925355911254883,-7.307785987854004,-0.5489725470542908,-0.8669566512107849,-0.28798559308052063,-0.9260140657424927,0.3857467770576477,6.587882995605469
61,279231,279232,-0.2154306024312973,-0.4638129472732544,0.9963961243629456,42.99354934692383,-9.364094734191895,-3.6462881565093994,-0.5534723401069641,-0.8684565424919128,-0.2864856719970703,-0.8050383925437927,0.6554549336433411,6.500093936920166
62,279241,279242,-0.14814169704914093,0.0413515642285347,0.9450027346611023,36.12868118286133,-5.636613368988037,-1.1375524997711182,-0.5594720244407654,-0.8654567003250122,-0.2834858298301697,-0.7554271221160889,1.0408040285110474,6.475099563598633
63,279251,279252,-1.0594408512115479,-0.32548415660858154,0.9874529838562012,19.4970703125,-0.506436824798584,-2.1806936264038086,-0.5504724383354187,-0.8714563846588135,-0.2834858298301697,-0.8221224546432495,1.1868685483932495,6.432236671447754
64,279261,279262,-0.9346060752868652,-0.5227700471878052,1.0264705419540405,0.8821538090705872,0.8788183927536011,-4.31478214263916,-0.5384730696678162,-0.8624568581581116,-0.28048595786094666,-0.7861855030059814,1.2407984733581543,6.392116069793701
65,279271,279272,-0.2539081573486328,-0.07801397144794464,0.8971130847930908,-11.279465675354004,4.080478668212891,-5.413378715515137,-0.5444727540016174,-0.8654567003250122,-0.2864856719970703,-0.8973422050476074,1.1615941524505615,6.330671787261963
66,279281,279282,0.006440991535782814,-0.5375785827636719,0.9585543274879456,-23.65045166015625,4.963468074798584,-5.4269304275512695,-0.5489725470542908,-0.8699564933776855,-0.28498575091362,-0.8931241035461426,0.8708924055099487,6.263899326324463
67,279291,279292,-0.09466324746608734,-0.3878905177116394,0.965128481388092,-28.61199951171875,1.3493045568466187,-5.139559268951416,-0.5579720735549927,-0.8759561777114868,-0.2759861946105957,-0.8373698592185974,0.6149585843086243,6.236355304718018
68,279301,279302,-1.2022504806518555,-0.20353618264198303,0.9628223180770874,-30.484996795654297,-0.0027010024059563875,-6.880390167236328,-0.5399730205535889,-0.8549572229385376,-0.28198590874671936,-0.9289369583129883,0.3740375339984894,6.172145843505859
69,279311,279312,-1.7307121753692627,-0.2637649476528168,1.0279181003570557,-24.08208656311035,1.6898130178451538,-8.92885684967041,-0.5399730205535889,-0.8549572229385376,-0.28498575091362,-0.8947750926017761,0.04765833169221878,6.085660934448242
70,279321,279322,-0.9946929216384888,-0.1705777496099472,0.9593733549118042,-8.90316390991211,10.85971450805664,-9.881021499633789,-0.5459727048873901,-0.8429578542709351,-0.2759861946105957,-1.1054545640945435,-0.051551591604948044,5.9722771644592285
71,279331,279332,-0.5775972008705139,-0.106577567756176,0.981391429901123,7.7795610427856445,13.061590194702148,-11.156542778015137,-0.5594720244407654,-0.8594570159912109,-0.2924853563308716,-1.109743595123291,0.02295384556055069,5.888978958129883
72,279341,279342,-0.6660939455032349,-0.01212998852133751,0.9852283596992493,23.205692291259766,13.64254379272461,-11.491130828857422,-0.5609719157218933,-0.8579570651054382,-0.26998651027679443,-1.3193185329437256,0.24047936499118805,5.772523880004883
73,279351,279352,-0.4077814221382141,-0.20486536622047424,1.0367648601531982,31.38567543029785,9.549296379089355,-9.411418914794922,-0.5474725961685181,-0.8624568581581116,-0.2924853563308716,-1.3577263355255127,0.4594672918319702,5.6727294921875
74,279361,279362,-1.1234153509140015,-0.7944632172584534,0.9414448738098145,35.14756774902344,10.745704650878906,-7.4056806564331055,-0.5654717087745667,-0.8654567003250122,-0.28948551416397095,-1.437837839126587,0.9131942987442017,5.622771739959717
75,279371,279372,-1.231783151626587,-0.9177953600883484,0.9828919172286987,26.23088836669922,14.034418106079102,-6.366573333740234,-0.5654717087745667,-0.8654567003250122,-0.28948551416397095,-1.4836230278015137,1.053409457206726,5.5429301261901855
76,279381,279382,-0.41982313990592957,-0.15718916058540344,0.9767417907714844,12.310564994812012,12.060990333557129,-5.156241416931152,-0.5654717087745667,-0.8654567003250122,-0.28948551416397095,-1.7166885137557983,1.2812484502792358,5.474367141723633
77,279391,279392,-0.07569780945777893,0.14177417755126953,0.9417126178741455,-5.6011247634887695,13.219867706298828,-3.2458760738372803,-0.5654717087745667,-0.8654567003250122,-0.28948551416397095,-1.9295129776000977,1.1678411960601807,5.40371561050415
78,279401,279402,-0.6767420768737793,-0.22979314625263214,0.9851506948471069,-22.37776756286621,9.01872730255127,-2.794248104095459,-0.554972231388092,-0.8669566512107849,-0.28198590874671936,-2.0449821949005127,0.9774929881095886,5.369726657867432
79,279411,279412,-1.2807788848876953,-0.2513625919818878,1.0134423971176147,-32.42672348022461,3.629218578338623,-2.619250535964966,-0.5684715509414673,-0.8564571738243103,-0.28048595786094666,-1.982747197151184,0.6014947295188904,5.352886199951172
80,279421,279422,-1.3792483806610107,-0.012753977440297604,0.9624859094619751,-28.845535278320312,0.7491291761398315,-3.8236663341522217,-0.5489725470542908,-0.8549572229385376,-0.27298635244369507,-1.9790666103363037,0.37059512734413147,5.341651439666748
81,279431,279432,-0.4572238624095917,-0.07812933623790741,1.0107415914535522,-21.214611053466797,-3.359933614730835,-4.91463565826416,-0.562471866607666,-0.8564571738243103,-0.28048595786094666,-1.9611512422561646,0.015448193065822124,5.275458812713623
82,279441,279442,-0.03673670068383217,0.15030738711357117,0.9931591153144836,-11.129281997680664,-7.756608963012695,-7.235306262969971,-0.554972231388092,-0.8459576964378357,-0.27898603677749634,-1.891013741493225,-0.014492800459265709,5.243314266204834
83,279451,279452,-0.03435581177473068,-0.019327174872159958,1.0697706937789917,-1.8856151103973389,-14.683526992797852,-9.387060165405273,-0.5639718174934387,-0.8549572229385376,-0.27298635244369507,-1.7770365476608276,0.004299094434827566,5.176150321960449
84,279461,279462,-0.14650171995162964,-0.07258233428001404,0.9939611554145813,7.1253485679626465,-20.44261360168457,-10.838769912719727,-0.5684715509414673,-0.8534573316574097,-0.26848655939102173,-1.460416555404663,0.10536157339811325,5.1166462898254395
85,279471,279472,-0.9732294678688049,-0.20920118689537048,0.9377365112304688,10.962750434875488,-16.390743255615234,-13.230981826782227,-0.5639718174934387,-0.8459576964378357,-0.2759861946105957,-1.2999860048294067,0.1530250906944275,4.979032039642334
86,279481,279482,-1.2820000648498535,-0.27795711159706116,1.0034174919128418,9.537428855895996,-13.3758544921875,-13.814798355102539,-0.5729713439941406,-0.8399580121040344,-0.27898603677749634,-1.0652930736541748,0.19541522860527039,4.833899974822998
87,279491,279492,-0.6158686280250549,-0.24866695702075958,0.9630999565124512,6.535557270050049,-6.571496486663818,-14.70124340057373,-0.577471137046814,-0.8564571738243103,-0.26848655939102173,-1.108971357345581,0.359828919172287,4.686044692993164
88,279501,279502,-0.279183030128479,-0.24257609248161316,0.9886834025382996,2.7481861114501953,-0.8180362582206726,-15.150187492370605,-0.5684715509414673,-0.8474575877189636,-0.26848655939102173,-1.0627361536026,0.2920372784137726,4.511994361877441
89,279511,279512,-0.14880980551242828,0.11925733834505081,0.9323899149894714,-1.0410457849502563,0.82835853099823,-14.124359130859375,-0.5684715509414673,-0.8474575877189636,-0.28048595786094666,-1.0819239616394043,0.32408618927001953,4.3775224685668945
90,279521,279522,-0.3432247042655945,-0.17538097500801086,0.9504746794700623,-3.453371286392212,-3.595099449157715,-14.032989501953125,-0.5654717087745667,-0.844457745552063,-0.26248687505722046,-1.0557167530059814,0.306671142578125,4.235936641693115
91,279531,279532,-0.11391361802816391,-0.07075876742601395,0.9599769711494446,-4.835326671600342,-7.910351276397705,-13.855521202087402,-0.5609719157218933,-0.8399580121040344,-0.28498575091362,-0.9425576329231262,0.11934053897857666,4.080694675445557
92,279541,279542,-0.06348280608654022,0.1894153505563736,0.9193280339241028,-2.765531301498413,-7.5888285636901855,-13.341851234436035,-0.5564721822738647,-0.8564571738243103,-0.27148643136024475,-0.9167969226837158,0.1814468502998352,3.9538609981536865
93,279551,279552,-0.06144525855779648,-0.02733978070318699,1.0195780992507935,-0.8128626346588135,-3.9228649139404297,-12.715999603271484,-0.5639718174934387,-0.836958110332489,-0.2759861946105957,-0.8194332122802734,0.11044900119304657,3.8210103511810303
94,279561,279562,-0.15584269165992737,0.09172812849283218,0.9677833914756775,5.624030590057373,-0.82468181848526,-12.10583209991455,-0.5654717087745667,-0.8474575877189636,-0.2744862735271454,-0.8733343482017517,0.13912272453308105,3.697031021118164
95,279571,279572,-0.2822292149066925,-0.32890892028808594,0.9379511475563049,10.769048690795898,0.10784617811441422,-12.051783561706543,-0.554972231388092,-0.8579570651054382,-0.28198590874671936,-0.9051994681358337,0.248285174369812,3.5730390548706055
96,279581,279582,-0.15313021838665009,-0.12547460198402405,0.9998326301574707,16.33936882019043,-0.3139870762825012,-11.057734489440918,-0.5639718174934387,-0.8579570651054382,-0.27898603677749634,-0.8809901475906372,0.4462752640247345,3.4668338298797607
97,279591,279592,-0.13315421342849731,0.09114090353250504,0.9581202864646912,19.351306915283203,-0.3556755483150482,-10.109111785888672,-0.5759711861610413,-0.8639568090438843,-0.27298635244369507,-0.9637210965156555,0.7178077101707458,3.368335008621216
98,279601,279602,-0.09945813566446304,-0.10194164514541626,1.006627082824707,17.19255828857422,-4.086081027984619,-8.286531448364258,-0.5594720244407654,-0.8534573316574097,-0.27148643136024475,-0.7632889747619629,0.8767669796943665,3.293553590774536
99,279611,279612,-0.0602547712624073,0.013026345521211624,0.9498106837272644,13.430107116699219,-9.356772422790527,-5.728707313537598,-0.5654717087745667,-0.8624568581581116,-0.2654867172241211,-0.6457641124725342,0.9895938038825989,3.228184938430786
100,279621,279622,-0.17882812023162842,-0.029213838279247284,1.0056155920028687,5.013922214508057,-12.609257698059082,-4.315456867218018,-0.562471866607666,-0.8654567003250122,-0.29848507046699524,-0.568051815032959,0.8520689010620117,3.1560091972351074
101,279631,279632,-0.36326929926872253,-0.06501518189907074,1.001862645149231,1.6157842874526978,-10.095602989196777,-4.940004825592041,-0.5654717087745667,-0.8714563846588135,-0.28948551416397095,-0.4676932394504547,0.8543014526367188,3.1057016849517822
102,279641,279642,-0.672322690486908,-0.08744592219591141,0.9661632180213928,5.094198226928711,-5.1487812995910645,-5.963294982910156,-0.5594720244407654,-0.8534573316574097,-0.28048595786094666,-0.3433566391468048,0.9613924026489258,3.0619683265686035
103,279651,279652,-0.48097217082977295,0.01675862818956375,1.0037012100219727,14.967657089233398,-0.28295934200286865,-5.925054550170898,-0.5564721822738647,-0.8624568581581116,-0.277486115694046,-0.3314061760902405,1.124577522277832,3.003166913986206
104,279661,279662,-0.12266866862773895,0.026044484227895737,1.0322802066802979,17.556331634521484,3.123861312866211,-5.671233654022217,-0.562471866607666,-0.8594570159912109,-0.27148643136024475,-0.3717886507511139,1.295446753501892,2.941962718963623
105,279671,279672,-0.17485390603542328,-0.021377012133598328,0.9600151777267456,12.935510635375977,4.498590469360352,-3.1836395263671875,-0.5744712948799133,-0.8624568581581116,-0.277486115694046,-0.4401751160621643,1.4224586486816406,2.8966681957244873
106,279681,279682,-0.4701174199581146,-0.059286199510097504,0.9681428670883179,8.479369163513184,6.348489284515381,-2.17576265335083,-0.56997150182724,-0.8549572229385376,-0.26998651027679443,-0.4886567294597626,1.5353776216506958,2.8711907863616943
107,279691,279692,-0.6122679114341736,-0.1096571534872055,0.9328398108482361,-2.0678420066833496,11.179863929748535,-1.0407488346099854,-0.5684715509414673,-0.850457489490509,-0.2864856719970703,-0.6381299495697021,1.4366899728775024,2.8381187915802
108,279701,279702,-0.20166201889514923,-0.015582962892949581,0.9814399480819702,-11.291544914245605,15.263680458068848,0.065589539706707,-0.5669716596603394,-0.8579570651054382,-0.26998651027679443,-0.8809338212013245,1.3296129703521729,2.8237550258636475
109,279711,279712,-0.09282345324754715,0.11809343844652176,1.02009117603302,-19.27962875366211,9.414423942565918,0.24867571890354156,-0.577471137046814,-0.8534573316574097,-0.2864856719970703,-1.001650333404541,1.0890169143676758,2.8321986198425293
110,279721,279722,-0.060456812381744385,-0.10612644255161285,1.0315433740615845,-24.72708511352539,-3.9012417793273926,1.5048922300338745,-0.5669716596603394,-0.8549572229385376,-0.28198590874671936,-0.8428211808204651,0.9500765800476074,2.879760503768921
111,279731,279732,-0.11532154679298401,-0.1478167623281479,0.9684622883796692,-27.05262565612793,-15.069629669189453,1.9917548894882202,-0.5579720735549927,-0.8459576964378357,-0.2759861946105957,-0.6407185792922974,0.5557053089141846,2.911172389984131
112,279741,279742,-0.4161200523376465,-0.015538690611720085,0.9694017171859741,-26.947025299072266,-19.058137893676758,1.4170126914978027,-0.5654717087745667,-0.8474575877189636,-0.2954852283000946,-0.49396800994873047,0.43033379316329956,2.92228102684021
113,279751,279752,-0.4561040699481964,-0.06966336816549301,1.006925344467163,-22.752758026123047,-18.32907485961914,-1.8047869205474854,-0.5639718174934387,-0.8399580121040344,-0.27898603677749634,-0.24728426337242126,0.061036281287670135,2.921931266784668
114,279761,279762,-0.48421308398246765,-0.12232419848442078,0.9442004561424255,-12.241976737976074,-14.440301895141602,-3.517878770828247,-0.56997150182724,-0.8489575386047363,-0.26098695397377014,-0.010257166810333729,0.06283894181251526,2.9165127277374268
115,279771,279772,-0.38077598810195923,-0.4634244740009308,1.031618356704712,5.497889041900635,-12.00297737121582,-4.093273162841797,-0.5639718174934387,-0.8429578542709351,-0.26998651027679443,0.12315010279417038,0.07648544758558273,2.870743751525879
116,279781,279782,-0.17770901322364807,-0.1494995504617691,1.0252195596694946,27.239742279052734,-2.451732635498047,-3.073495388031006,-0.562471866607666,-0.850457489490509,-0.277486115694046,0.12755826115608215,0.43846628069877625,2.8193700313568115
117,279791,279792,-0.16272342205047607,-0.03539559245109558,1.0150851011276245,47.59619903564453,13.659296035766602,-2.641965866088867,-0.562471866607666,-0.8474575877189636,-0.27148643136024475,-0.037785645574331284,0.7186442017555237,2.7847893238067627
118,279801,279802,-0.5916334986686707,-0.20498517155647278,1.0100350379943848,55.033077239990234,23.529569625854492,-2.812162399291992,-0.5804709792137146,-0.8804559707641602,-0.2864856719970703,-0.24980270862579346,1.3911163806915283,2.7575626373291016
119,279811,279812,-0.24465113878250122,0.048198167234659195,1.0151108503341675,48.50647735595703,28.2110538482666,-2.2778639793395996,-0.5669716596603394,-0.8489575386047363,-0.2759861946105957,-0.5669781565666199,1.732598900794983,2.7419891357421875
120,279821,279822,-0.27189481258392334,0.05187734216451645,0.9970277547836304,29.77020263671875,28.718994140625,-1.3107903003692627,-0.5804709792137146,-0.8474575877189636,-0.2744862735271454,-0.7352145314216614,2.242328405380249,2.73681378364563
121,279831,279832,-0.192407488822937,-0.026610011234879494,1.006866455078125,7.452696323394775,25.37276840209961,-0.726195752620697,-0.5849707126617432,-0.8639568090438843,-0.28198590874671936,-1.0923722982406616,2.2467081546783447,2.733350992202759
122,279841,279842,-0.059603605419397354,0.01376987062394619,0.9752691984176636,-15.450543403625488,16.955278396606445,-0.5925307869911194,-0.5684715509414673,-0.8414579033851624,-0.2744862735271454,-1.26362144947052,2.0994272232055664,2.7461607456207275
123,279851,279852,-0.19244813919067383,-0.15949061512947083,1.0114421844482422,-34.51454544067383,2.872058153152466,0.7963936924934387,-0.5819708704948425,-0.8459576964378357,-0.28498575091362,-1.2325078248977661,1.775671124458313,2.778733730316162
124,279861,279862,-0.05503150075674057,-0.0999440997838974,0.9368396997451782,-45.87217330932617,-11.340682983398438,1.240986943244934,-0.5669716596603394,-0.8339582681655884,-0.26998651027679443,-1.1314698457717896,1.4362409114837646,2.7951581478118896
125,279871,279872,-0.01909937895834446,-0.054488275200128555,0.9504184126853943,-49.31159973144531,-18.427839279174805,2.2644875049591064,-0.56997150182724,-0.8399580121040344,-0.26098695397377014,-0.9460394978523254,0.7902578711509705,2.811563491821289
126,279881,279882,-0.040771424770355225,0.03077038936316967,0.9657120704650879,-44.31818771362305,-24.61785125732422,1.3069112300872803,-0.5654717087745667,-0.8324583768844604,-0.2594870328903198,-0.5851514339447021,0.2776855528354645,2.859023094177246
127,279891,279892,-0.08523954451084137,0.05438558757305145,0.9702931046485901,-34.210330963134766,-26.38835334777832,-0.8996036052703857,-0.562471866607666,-0.8204589486122131,-0.26248687505722046,-0.39131960272789,0.04071161150932312,2.8427574634552
128,279901,279902,-0.08648039400577545,0.015923943370580673,0.9373210668563843,-18.92034912109375,-22.23640251159668,-1.5509483814239502,-0.5609719157218933,-0.8219588994979858,-0.2579870820045471,-0.09101457893848419,-0.17795240879058838,2.839334487915039
129,279911,279912,-0.1182401180267334,0.06119450554251671,0.950817346572876,-0.2401103675365448,-16.602022171020508,-1.971348762512207,-0.56997150182724,-0.8219588994979858,-0.26998651027679443,0.048749521374702454,-0.11316059529781342,2.810706853866577
130,279921,279922,-0.36561381816864014,-0.2727012038230896,0.9767071008682251,12.442132949829102,-5.7632927894592285,-1.232757806777954,-0.5639718174934387,-0.8279585838317871,-0.26998651027679443,0.09136315435171127,0.014289069920778275,2.7794368267059326
131,279931,279932,-0.007099154405295849,-0.04932304099202156,0.8655549883842468,20.107133865356445,2.488129138946533,-1.0393083095550537,-0.56997150182724,-0.8339582681655884,-0.2639867961406708,0.02963690645992756,0.09747520834207535,2.7622547149658203
132,279941,279942,-0.6112382411956787,-0.20712339878082275,0.9436649680137634,18.872983932495117,6.596349716186523,-3.294703960418701,-0.5729713439941406,-0.8429578542709351,-0.26998651027679443,0.13500061631202698,0.4059271812438965,2.7573888301849365
133,279951,279952,-0.4170480966567993,-0.21702784299850464,0.9313834309577942,17.492923736572266,10.923081398010254,-5.0094804763793945,-0.5714713931083679,-0.8414579033851624,-0.2654867172241211,-0.03887898474931717,0.5402226448059082,2.7068374156951904
134,279961,279962,-0.3648160994052887,-0.06908402591943741,0.9660693407058716,12.60757827758789,12.619199752807617,-6.791031837463379,-0.5804709792137146,-0.8534573316574097,-0.2864856719970703,-0.10962052643299103,0.6177688837051392,2.6572606563568115
135,279971,279972,-0.5902203917503357,-0.0819508358836174,0.98844313621521,5.277552127838135,13.623650550842285,-8.732579231262207,-0.5564721822738647,-0.844457745552063,-0.2834858298301697,-0.34628674387931824,0.7269500494003296,2.567558765411377
136,279981,279982,-0.2913842499256134,0.011252489872276783,0.973778486251831,-2.5916554927825928,13.1737699508667,-8.862868309020996,-0.5534723401069641,-0.8564571738243103,-0.277486115694046,-0.35262638330459595,0.7126690745353699,2.488987445831299
137,279991,279992,-0.1906754970550537,0.12891675531864166,0.9607608914375305,-12.131551742553711,9.402593612670898,-6.787591934204102,-0.5684715509414673,-0.850457489490509,-0.2864856719970703,-0.5441803336143494,0.5579351186752319,2.417389392852783
138,280001,280002,-0.7419343590736389,0.047903258353471756,0.9800547957420349,-17.722681045532227,5.815756797790527,-3.6940066814422607,-0.5594720244407654,-0.8684565424919128,-0.2744862735271454,-0.5927851796150208,0.2834480106830597,2.378340721130371
139,280011,280012,-0.5204106569290161,0.018331974744796753,1.0332814455032349,-16.1920166015625,6.189309597015381,-1.866894245147705,-0.562471866607666,-0.8564571738243103,-0.2864856719970703,-0.6241351962089539,0.15491826832294464,2.351490020751953
140,280021,280022,-0.08521537482738495,0.020930934697389603,0.972871720790863,-8.811882972717285,10.232301712036133,-0.32622218132019043,-0.5684715509414673,-0.8564571738243103,-0.2594870328903198,-0.7146914601325989,0.05653923377394676,2.3427836894989014
141,280031,280032,-0.10566990822553635,-0.007682470139116049,0.9786879420280457,-2.203458547592163,13.018350601196289,-1.3200751543045044,-0.562471866607666,-0.8534573316574097,-0.2834858298301697,-0.7901529669761658,0.13658419251441956,2.329926013946533
142,280041,280042,-0.34846433997154236,-0.09437484294176102,0.9557235240936279,-1.215508222579956,16.37554168701172,-2.340305805206299,-0.5714713931083679,-0.8594570159912109,-0.28048595786094666,-0.9145950675010681,0.1045980378985405,2.31520938873291
143,280051,280052,-0.6017541885375977,-0.14868338406085968,0.9671213030815125,-0.8597918748855591,19.833967208862305,-2.7027599811553955,-0.5639718174934387,-0.8669566512107849,-0.27298635244369507,-1.2349196672439575,0.07647304981946945,2.2833850383758545
144,280061,280062,-0.18260763585567474,0.01380850188434124,0.930700421333313,2.7104721069335938,22.31053924560547,-3.241328001022339,-0.5609719157218933,-0.851957380771637,-0.28498575091362,-1.2422194480895996,0.09962514787912369,2.2618751525878906
145,280071,280072,-0.08364693820476532,0.04856754466891289,0.9591071009635925,2.9843716621398926,18.02777671813965,-4.916400909423828,-0.5669716596603394,-0.8579570651054382,-0.28798559308052063,-1.4344364404678345,0.13990695774555206,2.222477436065674
146,280081,280082,-0.31496819853782654,0.05281456559896469,0.9709049463272095,-0.12003731727600098,6.351815700531006,-8.19228458404541,-0.5804709792137146,-0.8624568581581116,-0.28948551416397095,-1.3956445455551147,0.14600837230682373,2.1574065685272217
147,280091,280092,-0.23714089393615723,-0.0351557694375515,0.9737573862075806,-5.73460578918457,-6.622842311859131,-10.080384254455566,-0.5714713931083679,-0.8594570159912109,-0.28948551416397095,-1.4383735656738281,-0.001764377928338945,2.0628721714019775
148,280101,280102,-0.05208481475710869,-0.20539654791355133,1.0385667085647583,-8.806721687316895,-16.708663940429688,-11.232702255249023,-0.562471866607666,-0.8474575877189636,-0.2924853563308716,-1.2302430868148804,-0.14654088020324707,1.956330418586731
149,280111,280112,-0.033559199422597885,-0.009200526401400566,1.0177274942398071,-6.542535305023193,-22.109113693237305,-12.27458667755127,-0.5684715509414673,-0.850457489490509,-0.2834858298301697,-0.9852243065834045,-0.19275331497192383,1.8389331102371216
150,280121,280122,-0.06783657521009445,0.02719057723879814,0.9890068769454956,-4.304535865783691,-19.67775535583496,-11.579879760742188,-0.5639718174934387,-0.8579570651054382,-0.28198590874671936,-0.747320294380188,-0.26856815814971924,1.7190762758255005
151,280131,280132,-0.12328200042247772,0.07634805887937546,0.9868279695510864,1.0517597198486328,-14.904918670654297,-11.310811042785645,-0.562471866607666,-0.8684565424919128,-0.2864856719970703,-0.6446545720100403,-0.19696849584579468,1.6115138530731201
152,280141,280142,-0.44185376167297363,-0.1320222020149231,1.0197018384933472,9.136513710021973,-7.6244001388549805,-10.689587593078613,-0.562471866607666,-0.8624568581581116,-0.2924853563308716,-0.5348116159439087,-0.02172451838850975,1.4976041316986084
153,280151,280152,-0.40494516491889954,-0.17238040268421173,1.0079160928726196,13.35204792022705,1.1942543983459473,-8.555023193359375,-0.5714713931083679,-0.8654567003250122,-0.28948551416397095,-0.5516849756240845,0.09962154179811478,1.3945767879486084
154,280161,280162,-0.7130855321884155,-0.3106318414211273,1.0149542093276978,15.888077735900879,2.272129535675049,-6.722940921783447,-0.5639718174934387,-0.8699564933776855,-0.29098543524742126,-0.6736646890640259,0.3345714509487152,1.3261644840240479
155,280171,280172,-0.6686671376228333,-0.4736088812351227,0.9813448786735535,15.924234390258789,0.5415918231010437,-3.75689697265625,-0.5684715509414673,-0.8684565424919128,-0.2864856719970703,-0.7741173505783081,0.4331970512866974,1.2779591083526611
156,280181,280182,-0.2412738800048828,-0.04939074441790581,1.0275753736495972,14.118749618530273,-1.4945497512817383,-0.454840749502182,-0.5759711861610413,-0.8639568090438843,-0.2969851493835449,-0.7591000199317932,0.5838090777397156,1.2567850351333618
157,280191,280192,-0.023182576522231102,0.054599400609731674,1.0383144617080688,10.683721542358398,-2.1527411937713623,2.563021183013916,-0.554972231388092,-0.8699564933776855,-0.28798559308052063,-0.7259412407875061,0.6895160675048828,1.270934820175171
158,280201,280202,-0.4561942517757416,0.019764937460422516,1.0499821901321411,8.280101776123047,0.3546508252620697,4.771064758300781,-0.5609719157218933,-0.8699564933776855,-0.28798559308052063,-0.7195802330970764,0.7495455741882324,1.307902455329895
159,280211,280212,-0.3025543689727783,-0.037020470947027206,1.0192369222640991,4.79485559463501,4.461557388305664,7.095993995666504,-0.5594720244407654,-0.8564571738243103,-0.2834858298301697,-0.6930750608444214,0.7619303464889526,1.3730396032333374
160,280221,280222,-0.16821423172950745,-0.007474388461560011,1.0107581615447998,-4.434824466705322,8.761799812316895,8.879656791687012,-0.5654717087745667,-0.8654567003250122,-0.2864856719970703,-0.8218054175376892,0.7176733016967773,1.456170678138733
161,280231,280232,-0.5573386549949646,-0.25562357902526855,1.0038456916809082,-11.711748123168945,12.452858924865723,10.541869163513184,-0.5654717087745667,-0.8774561285972595,-0.2924853563308716,-0.8038783669471741,0.5463306307792664,1.551323413848877
162,280241,280242,-1.0554410219192505,-0.05525869131088257,1.0315055847167969,-16.851581573486328,13.056663513183594,11.11623764038086,-0.5729713439941406,-0.8609569072723389,-0.28798559308052063,-1.0192440748214722,0.36816728115081787,1.6613343954086304
163,280251,280252,-0.5259323120117188,-0.28165382146835327,1.0553104877471924,-20.881547927856445,6.581084251403809,10.66253662109375,-0.5744712948799133,-0.8474575877189636,-0.2954852283000946,-1.0864900350570679,0.2540246844291687,1.7770981788635254
164,280261,280262,-0.48823899030685425,-0.6417914032936096,1.0373018980026245,-19.045764923095703,1.9138109683990479,10.930520057678223,-0.5729713439941406,-0.8699564933776855,-0.27898603677749634,-1.1647266149520874,-0.004780139774084091,1.8823108673095703
165,280271,280272,-0.24672947824001312,-0.10719124972820282,1.0324078798294067,-10.989483833312988,-2.4951491355895996,10.102537155151367,-0.5669716596603394,-0.8489575386047363,-0.27298635244369507,-1.0656384229660034,-0.07921217381954193,1.9888116121292114
166,280281,280282,-0.06723176687955856,0.04421339929103851,0.9981077909469604,-7.005600929260254,-6.648227691650391,10.83319091796875,-0.56997150182724,-0.8489575386047363,-0.28798559308052063,-0.9842047095298767,-0.056699156761169434,2.101085901260376
167,280291,280292,-1.0003015995025635,-0.3098883628845215,1.023295283317566,-8.881561279296875,-16.5455379486084,7.031527519226074,-0.5804709792137146,-0.8534573316574097,-0.2744862735271454,-0.827139675617218,-0.21047565340995789,2.1858959197998047
168,280301,280302,-1.5304712057113647,-0.26306039094924927,1.0330352783203125,-5.703410625457764,-22.906572341918945,5.92011022567749,-0.56997150182724,-0.8579570651054382,-0.27298635244369507,-0.5553726553916931,-0.25422194600105286,2.2503788471221924
169,280311,280312,-0.9367886185646057,-0.3719879686832428,1.012123465538025,0.4826222062110901,-24.065933227539062,5.581865310668945,-0.56997150182724,-0.8579570651054382,-0.27298635244369507,-0.4540434181690216,-0.2173960953950882,2.31208872795105
170,280321,280322,-1.1770626306533813,-0.16468636691570282,0.9916502237319946,7.997945785522461,-17.626914978027344,5.470282554626465,-0.56997150182724,-0.8579570651054382,-0.27298635244369507,-0.26561957597732544,-0.12844978272914886,2.375852108001709
171,280331,280332,-0.607677161693573,-0.06821747869253159,1.0936806201934814,12.101139068603516,-5.976970195770264,3.6124017238616943,-0.562471866607666,-0.8654567003250122,-0.2864856719970703,-0.13648368418216705,-0.046415530145168304,2.4142463207244873
172,280341,280342,-0.5512309074401855,-0.6777985095977783,1.0336366891860962,16.055082321166992,3.7334749698638916,2.3311164379119873,-0.56997150182724,-0.8579570651054382,-0.26098695397377014,-0.22549934685230255,0.18108657002449036,2.4455623626708984
173,280351,280352,-0.9612637758255005,-0.5086995959281921,0.9825472235679626,20.714332580566406,8.946636199951172,0.7105818390846252,-0.5684715509414673,-0.8534573316574097,-0.2834858298301697,-0.34313368797302246,0.3323204815387726,2.461357831954956
174,280361,280362,-0.21474815905094147,-0.10924403369426727,0.9686226844787598,19.00628089904785,8.014542579650879,-0.6586815118789673,-0.5684715509414673,-0.8564571738243103,-0.28948551416397095,-0.4645708203315735,0.4916038513183594,2.4626522064208984
175,280371,280372,-0.1031712219119072,-0.3047389090061188,0.9971916675567627,14.072586059570312,3.0637505054473877,-1.841439962387085,-0.5714713931083679,-0.8564571738243103,-0.2834858298301697,-0.51978999376297,0.6536740064620972,2.448977470397949
176,280381,280382,-0.18225541710853577,-0.4615250527858734,1.062373399734497,6.773866176605225,3.039809465408325,-1.1032140254974365,-0.5609719157218933,-0.8579570651054382,-0.27298635244369507,-0.4926583170890808,0.704278290271759,2.427201986312866
177,280391,280392,-0.07354407757520676,-0.11548501998186111,1.0342918634414673,-2.944913148880005,0.5144150853157043,0.2919956147670746,-0.5564721822738647,-0.8534573316574097,-0.2864856719970703,-0.5007989406585693,0.6841070652008057,2.4258594512939453
178,280401,280402,-0.10825780034065247,-0.001977817853912711,1.0016918182373047,-12.649333000183105,-2.6998767852783203,-0.11329308897256851,-0.562471866607666,-0.8414579033851624,-0.27148643136024475,-0.46038028597831726,0.5690896511077881,2.4245166778564453
179,280411,280412,-1.083047866821289,-0.5229053497314453,1.0223994255065918,-18.484195709228516,-4.1884446144104,0.3092958331108093,-0.5639718174934387,-0.8579570651054382,-0.26998651027679443,-0.3887222707271576,0.4159286916255951,2.4195847511291504
180,280421,280422,-1.5288348197937012,-0.31735607981681824,0.9853880405426025,-21.329631805419922,-8.317981719970703,0.12126293033361435,-0.5669716596603394,-0.8489575386047363,-0.28198590874671936,-0.2633707523345947,0.26922351121902466,2.4220569133758545
181,280431,280432,-0.9525867104530334,0.035611629486083984,1.011199951171875,-17.255746841430664,-5.876157283782959,0.8508351445198059,-0.5654717087745667,-0.8534573316574097,-0.27148643136024475,-0.1480448991060257,-0.05405096709728241,2.4288699626922607
182,280441,280442,-0.5939195156097412,0.07096454501152039,1.0358487367630005,-10.97718334197998,-2.979914665222168,0.13891035318374634,-0.5639718174934387,-0.8429578542709351,-0.2759861946105957,-0.0887046605348587,-0.05997178703546524,2.4315268993377686
183,280451,280452,-0.558249831199646,-0.1289406567811966,1.0022342205047607,-13.573626518249512,-1.043357491493225,0.598429799079895,-0.5729713439941406,-0.8489575386047363,-0.28198590874671936,-0.13774007558822632,-0.2854907512664795,2.4377551078796387
184,280461,280462,-0.42337748408317566,-0.03461550921201706,0.9916134476661682,-16.32258415222168,2.6430587768554688,1.97523832321167,-0.5684715509414673,-0.8414579033851624,-0.2864856719970703,-0.15663187205791473,-0.40742969512939453,2.4485080242156982
185,280471,280472,-0.2755694091320038,0.012717802077531815,1.0005769729614258,-21.393810272216797,4.4764018058776855,3.3067679405212402,-0.5684715509414673,-0.844457745552063,-0.27148643136024475,-0.2198924571275711,-0.5438401103019714,2.4730730056762695
186,280481,280482,-0.25815263390541077,0.05050903186202049,0.979343593120575,-19.492435455322266,4.251075744628906,3.3889994621276855,-0.562471866607666,-0.8414579033851624,-0.26848655939102173,-0.3037797510623932,-0.748858630657196,2.5105960369110107
187,280491,280492,-0.21882618963718414,0.02348736673593521,0.998500406742096,-9.803604125976562,4.741611957550049,3.207972526550293,-0.56997150182724,-0.8429578542709351,-0.2759861946105957,-0.3618147075176239,-0.7661792039871216,2.5369980335235596
188,280501,280502,-0.569699764251709,-0.24608033895492554,0.9788740277290344,0.9339664578437805,5.026404857635498,2.259648561477661,-0.5714713931083679,-0.8624568581581116,-0.2654867172241211,-0.3878106474876404,-0.8173894882202148,2.5641698837280273
189,280511,280512,-0.23139911890029907,-0.1391102522611618,0.9409555196762085,11.268457412719727,-1.0260676145553589,-0.026713209226727486,-0.5729713439941406,-0.851957380771637,-0.26998651027679443,-0.39083364605903625,-0.7016993761062622,2.571047067642212
190,280521,280522,-0.6612268090248108,-0.004798160400241613,0.9824387431144714,17.44290542602539,-7.326272964477539,-1.8553396463394165,-0.5639718174934387,-0.8459576964378357,-0.28198590874671936,-0.21411530673503876,-0.6094855070114136,2.553757429122925
191,280531,280532,-0.5763401389122009,0.008085216395556927,0.9923804998397827,25.145336151123047,-9.838905334472656,-1.7766584157943726,-0.5804709792137146,-0.844457745552063,-0.2834858298301697,-0.1316796988248825,-0.25784051418304443,2.5256927013397217
192,280541,280542,-0.5604668259620667,-0.10796180367469788,0.9497697353363037,29.181564331054688,-9.78842544555664,-0.8770739436149597,-0.5609719157218933,-0.8639568090438843,-0.28198590874671936,0.0318777859210968,0.034111469984054565,2.5107696056365967
193,280551,280552,-0.8444233536720276,-0.09887121617794037,0.9899888038635254,25.319557189941406,-7.279041290283203,0.43572908639907837,-0.5564721822738647,-0.8654567003250122,-0.277486115694046,0.015154569409787655,0.15682093799114227,2.5294876098632812
194,280561,280562,-0.40486228466033936,0.047159258276224136,1.0012407302856445,14.468160629272461,-3.380645513534546,2.00832200050354,-0.562471866607666,-0.8624568581581116,-0.277486115694046,0.0867643803358078,0.42303431034088135,2.5354459285736084
195,280571,280572,-0.13087280094623566,-0.13676407933235168,0.9966574907302856,-0.9879335165023804,-1.6136789321899414,3.339386463165283,-0.5714713931083679,-0.850457489490509,-0.28048595786094666,0.1293039321899414,0.44443345069885254,2.5664710998535156
196,280581,280582,-0.20900508761405945,-0.49246132373809814,1.0069265365600586,-15.392229080200195,1.9694446325302124,4.810048580169678,-0.5684715509414673,-0.8624568581581116,-0.28048595786094666,0.1762218177318573,0.22270183265209198,2.6095168590545654
197,280591,280592,-0.23454904556274414,-0.18816684186458588,0.9841315746307373,-26.44845962524414,6.25466775894165,5.501655578613281,-0.5609719157218933,-0.851957380771637,-0.28198590874671936,0.08524701744318008,0.03400711715221405,2.662053108215332
198,280601,280602,-0.12957647442817688,-0.12515707314014435,1.000562071800232,-36.33420181274414,6.929327011108398,7.812576770782471,-0.5504724383354187,-0.850457489490509,-0.277486115694046,-0.029704151675105095,-0.39350128173828125,2.741518497467041
199,280611,280612,-0.7356943488121033,-0.1595262736082077,0.9687139391899109,-37.632850646972656,6.521869659423828,9.691368103027344,-0.5579720735549927,-0.8399580121040344,-0.27298635244369507,-0.06821488589048386,-0.8086276054382324,2.8321337699890137
200,280621,280622,-1.044083595275879,-0.023815887048840523,0.9851499795913696,-31.27981185913086,5.827733516693115,9.932334899902344,-0.562471866607666,-0.8384580612182617,-0.2744862735271454,-0.16527047753334045,-1.006697177886963,2.9194538593292236
201,280631,280632,-0.8220171332359314,0.07524403929710388,1.000197172164917,-17.185218811035156,3.224654197692871,9.661073684692383,-0.56997150182724,-0.851957380771637,-0.26998651027679443,-0.024026652798056602,-1.2184808254241943,3.0029118061065674
202,280641,280642,-0.3287981450557709,0.011385592631995678,0.9865614175796509,-1.5574744939804077,-0.955115795135498,9.36050033569336,-0.5804709792137146,-0.8474575877189636,-0.28048595786094666,-0.043272290378808975,-1.1893905401229858,3.08630108833313
203,280651,280652,-1.1727923154830933,-0.21836452186107635,0.9681950211524963,16.11628532409668,-1.7231271266937256,9.589198112487793,-0.5564721822738647,-0.850457489490509,-0.2744862735271454,-0.10169728845357895,-1.0245710611343384,3.181664228439331
204,280661,280662,-1.5911065340042114,-0.5816757678985596,0.991474449634552,29.829729080200195,-2.4005651473999023,9.281408309936523,-0.5639718174934387,-0.8459576964378357,-0.26998651027679443,-0.07234905660152435,-0.7624772191047668,3.2704296112060547
205,280671,280672,-1.0657930374145508,-0.6012580394744873,1.025874137878418,42.53253936767578,-5.578578948974609,11.567342758178711,-0.5504724383354187,-0.8594570159912109,-0.2834858298301697,-0.006602064706385136,-0.35491129755973816,3.368645668029785
206,280681,280682,-0.7500721216201782,-0.5731576085090637,1.0135257244110107,40.90277099609375,-5.45723295211792,13.907549858093262,-0.5579720735549927,-0.8579570651054382,-0.2969851493835449,0.07235125452280045,0.15415896475315094,3.487480640411377
207,280691,280692,-1.034367322921753,-0.8753281831741333,0.9782100319862366,33.8430061340332,-4.119917392730713,15.600983619689941,-0.5684715509414673,-0.8804559707641602,-0.28048595786094666,0.13469743728637695,0.4217672348022461,3.647460460662842
208,280701,280702,-0.4685130715370178,-0.5156200528144836,0.9843441843986511,21.179519653320312,-0.1597927063703537,16.061798095703125,-0.5594720244407654,-0.8654567003250122,-0.2924853563308716,-0.06194208189845085,0.6501156687736511,3.83809232711792
209,280711,280712,-0.6315900683403015,-0.4651328921318054,0.9779059290885925,3.028643846511841,0.8219327330589294,15.534566879272461,-0.562471866607666,-0.8624568581581116,-0.28948551416397095,0.07511043548583984,0.7433961033821106,3.9803378582000732
210,280721,280722,-1.1532562971115112,-0.12477067112922668,1.036332607269287,-10.665966987609863,2.350339651107788,14.463550567626953,-0.5609719157218933,-0.8699564933776855,-0.2969851493835449,0.03608507663011551,0.5929344296455383,4.140524387359619
211,280731,280732,-0.6161988973617554,-0.164934441447258,1.0241831541061401,-20.013872146606445,8.253325462341309,14.732091903686523,-0.562471866607666,-0.8654567003250122,-0.2924853563308716,0.06564684212207794,0.2791059911251068,4.2943878173828125
212,280741,280742,-0.3078135848045349,-0.11706573516130447,1.0227258205413818,-29.58099365234375,11.85467529296875,15.900670051574707,-0.5504724383354187,-0.8594570159912109,-0.277486115694046,-0.12639334797859192,0.10031968355178833,4.446632385253906
213,280751,280752,-0.6710929274559021,-0.3433201014995575,1.0445843935012817,-36.63616180419922,14.232853889465332,16.944011688232422,-0.5564721822738647,-0.850457489490509,-0.2744862735271454,-0.4188254177570343,-0.40469202399253845,4.636430263519287
214,280761,280762,-0.9099634289741516,-0.00784220639616251,0.9538325071334839,-40.47560501098633,13.18486499786377,18.803497314453125,-0.5654717087745667,-0.8474575877189636,-0.28048595786094666,-0.5565541386604309,-0.5562329888343811,4.800661563873291
215,280771,280772,-0.4405355453491211,-0.08443497121334076,0.9867182970046997,-41.8603630065918,8.661874771118164,20.98798942565918,-0.5654717087745667,-0.8384580612182617,-0.28048595786094666,-0.5709475874900818,-1.0428212881088257,5.001900672912598
216,280781,280782,-0.3170092701911926,-0.2182222306728363,0.986270010471344,-40.513160705566406,-4.8340044021606445,21.14716148376465,-0.5594720244407654,-0.8414579033851624,-0.277486115694046,-0.5555685758590698,-1.3022527694702148,5.201889991760254
217,280791,280792,-0.14608897268772125,-0.4208781123161316,1.086743712425232,-35.82159423828125,-19.19149398803711,21.338409423828125,-0.5684715509414673,-0.8384580612182617,-0.2834858298301697,-0.3227761387825012,-1.6698681116104126,5.406052589416504
218,280801,280802,-0.6968960165977478,-0.06692890077829361,1.0061091184616089,-21.172849655151367,-37.05935287475586,21.6641788482666,-0.5609719157218933,-0.8429578542709351,-0.27298635244369507,0.11811361461877823,-2.0994174480438232,5.628259658813477
219,280811,280812,-0.4901178777217865,-0.18385718762874603,0.9729647636413574,-5.231925010681152,-47.72607421875,21.119495391845703,-0.5519723892211914,-0.836958110332489,-0.27898603677749634,0.5483282208442688,-2.0558910369873047,5.846296310424805
220,280821,280822,-0.3559456169605255,-0.3469632565975189,1.000860571861267,13.789750099182129,-46.548858642578125,20.8265323638916,-0.5504724383354187,-0.8324583768844604,-0.277486115694046,0.9402152895927429,-1.9358774423599243,6.080534934997559
221,280831,280832,-0.6427919864654541,-0.04673394560813904,0.9769864082336426,29.233051300048828,-33.627098083496094,17.529184341430664,-0.5369731187820435,-0.8549572229385376,-0.28498575091362,1.173445224761963,-1.6860638856887817,6.305523872375488
222,280841,280842,-0.8414888381958008,0.22458955645561218,0.8942452669143677,38.39518737792969,-19.201581954956055,11.969467163085938,-0.5429728627204895,-0.8609569072723389,-0.28498575091362,1.3810371160507202,-1.3827588558197021,6.4666314125061035
223,280851,280852,-0.6966851949691772,-0.20940563082695007,1.0567306280136108,40.012325286865234,-4.689824104309082,6.91266393661499,-0.5429728627204895,-0.8459576964378357,-0.2759861946105957,1.5083540678024292,-0.7476037740707397,6.522956848144531
224,280861,280862,-0.6362744569778442,-0.33047038316726685,1.0291383266448975,35.20339584350586,6.53279447555542,3.4332590103149414,-0.5399730205535889,-0.8549572229385376,-0.28798559308052063,1.306066632270813,-0.6032935380935669,6.641756534576416
225,280871,280872,-0.2092195600271225,-0.5164467692375183,1.019820213317871,21.431293487548828,17.264833450317383,-0.890946626663208,-0.5384730696678162,-0.8624568581581116,-0.28948551416397095,1.216412901878357,-0.49401378631591797,6.666455268859863
226,280881,280882,-0.5800355672836304,-0.1547306478023529,1.0502920150756836,11.452007293701172,28.757347106933594,-4.682711601257324,-0.5384730696678162,-0.8474575877189636,-0.277486115694046,1.0071648359298706,-0.3455244302749634,6.623564720153809
227,280891,280892,-0.8467109203338623,-0.20831193029880524,1.035591959953308,2.1468634605407715,37.80243682861328,-5.893687725067139,-0.5564721822738647,-0.8594570159912109,-0.27148643136024475,0.5555486083030701,-0.2670329213142395,6.583616256713867
228,280901,280902,-1.0264214277267456,-0.1495761275291443,1.0152587890625,-2.2914953231811523,38.596641540527344,-7.340801239013672,-0.5339732766151428,-0.8429578542709351,-0.28198590874671936,0.20692779123783112,-0.35708945989608765,6.522643566131592
229,280911,280912,-0.5972044467926025,-0.16422733664512634,0.9924665689468384,-5.5434746742248535,34.30255126953125,-8.996427536010742,-0.554972231388092,-0.8549572229385376,-0.2759861946105957,0.04393896833062172,-0.35735952854156494,6.393630504608154
230,280921,280922,-0.2956099510192871,-0.6425471305847168,1.0904260873794556,-1.5255732536315918,28.973134994506836,-8.314519882202148,-0.5639718174934387,-0.8399580121040344,-0.2669866383075714,-0.3083457052707672,-0.4079168140888214,6.315154552459717
231,280931,280932,-0.45169663429260254,-0.4503954350948334,1.08255136013031,1.0634965896606445,24.305883407592773,-9.10415267944336,-0.5654717087745667,-0.8354582190513611,-0.26848655939102173,-0.526695728302002,-0.32809460163116455,6.204922199249268
232,280941,280942,-0.3588509261608124,-0.11079983413219452,1.0472694635391235,4.726933479309082,18.71489906311035,-8.875784873962402,-0.5519723892211914,-0.851957380771637,-0.2759861946105957,-0.8128754496574402,-0.265288770198822,6.117354393005371
233,280951,280952,-0.11220638453960419,-0.01999749429523945,1.0037888288497925,6.814242362976074,4.798680305480957,-8.762223243713379,-0.5579720735549927,-0.836958110332489,-0.2759861946105957,-0.9611614346504211,-0.16019096970558167,6.031273365020752
234,280961,280962,-0.5499725937843323,0.009846603497862816,1.0117980241775513,6.249337673187256,-8.298028945922852,-9.12295150756836,-0.5669716596603394,-0.8429578542709351,-0.26098695397377014,-0.7490102648735046,-0.2067132294178009,5.927336692810059
235,280971,280972,-0.6986086368560791,-0.025103675201535225,1.0139400959014893,4.445472240447998,-16.719451904296875,-8.164773941040039,-0.5489725470542908,-0.8459576964378357,-0.26998651027679443,-0.5183479189872742,-0.1269046664237976,5.8266706466674805
236,280981,280982,-0.5428089499473572,0.04775315523147583,0.9519059658050537,6.277018070220947,-14.344513893127441,-4.851318836212158,-0.562471866607666,-0.8324583768844604,-0.2594870328903198,-0.44072169065475464,-0.01628909260034561,5.771805286407471
237,280991,280992,-0.501285195350647,-0.12439167499542236,0.9718706607818604,1.8781309127807617,-4.62543249130249,-3.060962677001953,-0.5639718174934387,-0.8489575386047363,-0.26998651027679443,-0.34052568674087524,-0.03214476257562637,5.735923767089844
238,281001,281002,-0.379224568605423,-0.14052210748195648,0.9829887747764587,-8.488131523132324,4.25252628326416,-3.1186766624450684,-0.5684715509414673,-0.8354582190513611,-0.277486115694046,-0.4000714123249054,-0.05646968632936478,5.711787700653076
239,281011,281012,-0.23869378864765167,-0.00994096789509058,0.975634753704071,-15.819697380065918,5.079448699951172,-4.654291152954102,-0.562471866607666,-0.8354582190513611,-0.2744862735271454,-0.429802805185318,-0.28696408867836,5.672917366027832
240,281021,281022,-1.198465347290039,-0.6387010216712952,0.968673586845398,-20.16008186340332,-3.663424491882324,-6.2823710441589355,-0.5564721822738647,-0.8324583768844604,-0.26248687505722046,-0.40306785702705383,-0.5166954398155212,5.621850967407227
241,281031,281032,-0.8909397721290588,-0.7552056312561035,0.9377043843269348,-22.804916381835938,-8.038844108581543,-7.056075096130371,-0.5654717087745667,-0.8354582190513611,-0.2744862735271454,-0.3061746060848236,-0.5906860828399658,5.54561185836792
242,281041,281042,-0.15460744500160217,-0.1392773687839508,0.9957661628723145,-19.43338394165039,-13.085848808288574,-8.292722702026367,-0.5579720735549927,-0.836958110332489,-0.2669866383075714,-0.03271133080124855,-0.9289749264717102,5.469921112060547
243,281051,281052,-0.060391709208488464,0.05490454286336899,1.0131382942199707,-12.553007125854492,-12.298314094543457,-8.94733715057373,-0.5489725470542908,-0.8399580121040344,-0.26998651027679443,0.14053145051002502,-1.080558180809021,5.37828254699707
244,281061,281062,-0.30921265482902527,-0.05469444766640663,0.9489691853523254,-1.6542816162109375,-11.710325241088867,-9.1243257522583,-0.5609719157218933,-0.836958110332489,-0.27898603677749634,0.2375836819410324,-1.0109902620315552,5.289520263671875
245,281071,281072,-0.49745485186576843,0.010911053977906704,0.9893965721130371,15.25271224975586,-6.446972846984863,-8.983333587646484,-0.5654717087745667,-0.844457745552063,-0.28048595786094666,0.3372931480407715,-0.898909330368042,5.202453136444092
246,281081,281082,-0.38773053884506226,0.03682063892483711,0.9436180591583252,29.828645706176758,-0.6264935731887817,-9.658380508422852,-0.5609719157218933,-0.8549572229385376,-0.26998651027679443,0.35016703605651855,-0.6774532198905945,5.110809803009033
247,281091,281092,-0.2216651886701584,0.04213476553559303,0.9358864426612854,40.24580001831055,8.43994426727295,-11.000442504882812,-0.5594720244407654,-0.844457745552063,-0.27148643136024475,0.22681069374084473,-0.1999572217464447,5.008934020996094
248,281101,281102,-0.5778549909591675,-0.038781169801950455,0.9969503283500671,51.869651794433594,15.224133491516113,-11.227327346801758,-0.5579720735549927,-0.8639568090438843,-0.27898603677749634,0.19572705030441284,0.17355258762836456,4.892975807189941
249,281111,281112,-0.19455811381340027,-0.30638644099235535,0.9616085290908813,52.77783203125,25.61667823791504,-8.322641372680664,-0.5609719157218933,-0.8699564933776855,-0.28498575091362,-0.205966517329216,0.7666704654693604,4.8149638175964355
250,281121,281122,-0.2811885476112366,-0.15364965796470642,0.9380903244018555,43.58320236206055,34.3504524230957,-6.936191558837891,-0.5744712948799133,-0.8654567003250122,-0.2744862735271454,-0.5301325917243958,1.1674830913543701,4.75058650970459
251,281131,281132,-0.28587061166763306,0.16811664402484894,0.9544728398323059,25.557994842529297,37.49717712402344,-6.987301349639893,-0.5684715509414673,-0.8684565424919128,-0.28048595786094666,-0.7378102540969849,1.3260643482208252,4.693573951721191
252,281141,281142,-0.3871181607246399,0.004442149307578802,0.952635645866394,6.747983932495117,30.037673950195312,-7.501526355743408,-0.5669716596603394,-0.8549572229385376,-0.29998499155044556,-1.291550874710083,1.4559718370437622,4.636311054229736
253,281151,281152,-1.1670880317687988,-0.268810898065567,0.9518880248069763,-13.410813331604004,20.641626358032227,-8.876642227172852,-0.577471137046814,-0.8654567003250122,-0.28048595786094666,-1.327072262763977,1.328922152519226,4.558437347412109
254,281161,281162,-1.026166558265686,-0.07816382497549057,0.9755165576934814,-29.953372955322266,8.972602844238281,-9.330296516418457,-0.5654717087745667,-0.8594570159912109,-0.277486115694046,-1.4758871793746948,0.9937048554420471,4.466852188110352
255,281171,281172,-0.3633614182472229,-0.11357396095991135,0.9600681662559509,-33.19165802001953,-0.10182452201843262,-9.428909301757812,-0.5639718174934387,-0.8579570651054382,-0.2759861946105957,-1.5256989002227783,0.48665133118629456,4.369112968444824
256,281181,281182,-0.16968339681625366,-0.11008255928754807,0.9654658436775208,-27.35462760925293,0.2964482605457306,-9.550577163696289,-0.5579720735549927,-0.8489575386047363,-0.28798559308052063,-1.542700171470642,0.3921014368534088,4.2839131355285645
257,281191,281192,-0.36801305413246155,-0.0501335971057415,0.9541769623756409,-14.703058242797852,5.902317523956299,-10.40087890625,-0.5579720735549927,-0.8669566512107849,-0.29098543524742126,-1.625104308128357,0.18491652607917786,4.182314872741699
258,281201,281202,-0.30533477663993835,0.001817229320295155,0.9326469302177429,-0.17546625435352325,11.935072898864746,-11.486590385437012,-0.5684715509414673,-0.8624568581581116,-0.28948551416397095,-1.6108824014663696,0.20809687674045563,4.091641902923584
259,281211,281212,-0.5660350918769836,0.024256248027086258,0.9915709495544434,14.854703903198242,11.225969314575195,-11.511187553405762,-0.562471866607666,-0.8684565424919128,-0.27148643136024475,-1.7478644847869873,0.3965078592300415,3.9908506870269775
260,281221,281222,-0.5192017555236816,-0.19622638821601868,1.0242462158203125,31.06039047241211,5.115635871887207,-10.854315757751465,-0.5849707126617432,-0.8669566512107849,-0.28198590874671936,-1.7348488569259644,0.6341199278831482,3.8829643726348877
261,281231,281232,-0.36073264479637146,-0.1601414680480957,1.0178135633468628,43.208709716796875,0.03358105942606926,-8.278604507446289,-0.5639718174934387,-0.896955132484436,-0.28798559308052063,-1.773087978363037,1.2187910079956055,3.8154022693634033
262,281241,281242,-0.3087352216243744,-0.20321688055992126,1.0268113613128662,47.12785720825195,-3.2064690589904785,-3.7903225421905518,-0.5639718174934387,-0.896955132484436,-0.28798559308052063,-1.8101592063903809,1.7563773393630981,3.761776924133301
263,281251,281252,-0.5195654630661011,-0.1716940850019455,0.9730849862098694,37.1671028137207,-5.531244277954102,1.3367559909820557,-0.5639718174934387,-0.896955132484436,-0.28798559308052063,-1.6785318851470947,1.8948935270309448,3.7100489139556885
264,281261,281262,-0.43991443514823914,0.006925935856997967,1.0295907258987427,15.587547302246094,-8.615365982055664,6.585559844970703,-0.5639718174934387,-0.896955132484436,-0.28798559308052063,-1.6396068334579468,2.252798557281494,3.771148204803467
265,281271,281272,-0.23955968022346497,-0.366177499294281,1.0330144166946411,-13.483744621276855,-17.06434440612793,10.000192642211914,-0.5654717087745667,-0.8864556550979614,-0.31048446893692017,-1.395728349685669,2.1289193630218506,3.8491790294647217
266,281281,281282,-0.5153897404670715,-0.4594281315803528,0.9780136942863464,-31.701791763305664,-20.399599075317383,12.409788131713867,-0.5594720244407654,-0.8744562864303589,-0.3014849126338959,-1.3084239959716797,1.7491613626480103,3.912943124771118
267,281291,281292,-0.21073824167251587,0.0014826932456344366,0.9862138628959656,-46.1548957824707,-21.879674911499023,14.951038360595703,-0.5744712948799133,-0.8744562864303589,-0.2924853563308716,-1.0335735082626343,1.2071950435638428,4.026145935058594
268,281301,281302,-0.09806600958108902,-0.3002035915851593,1.0157173871994019,-56.38492965698242,-21.609487533569336,16.808815002441406,-0.5669716596603394,-0.8759561777114868,-0.28798559308052063,-0.8873274326324463,0.8293106555938721,4.197604179382324
269,281311,281312,-0.1803266555070877,-0.6501673460006714,1.0368143320083618,-56.36940002441406,-16.864948272705078,19.030691146850586,-0.5534723401069641,-0.8654567003250122,-0.29848507046699524,-0.6560243368148804,0.18472003936767578,4.371575832366943
270,281321,281322,-0.2262231856584549,-0.3382823169231415,1.0782954692840576,-45.256649017333984,-11.832380294799805,19.967552185058594,-0.5579720735549927,-0.8729563355445862,-0.28498575091362,-0.5172691941261292,-0.10683939605951309,4.612435817718506
271,281331,281332,-0.2713107168674469,-0.16143271327018738,1.008195400238037,-25.169580459594727,-7.8896164894104,20.610000610351562,-0.5489725470542908,-0.8579570651054382,-0.28198590874671936,-0.6463103890419006,-0.38881295919418335,4.774213790893555
272,281341,281342,-0.1642475128173828,0.018797550350427628,1.005460262298584,-12.656432151794434,-6.143718719482422,19.414066314697266,-0.5609719157218933,-0.8609569072723389,-0.28798559308052063,-0.5347059965133667,-0.447171688079834,5.00117301940918
273,281351,281352,-0.07208558171987534,0.029082611203193665,1.0102487802505493,-2.229530096054077,-9.96010684967041,18.885055541992188,-0.5459727048873901,-0.8639568090438843,-0.28498575091362,-0.38833490014076233,-0.47863471508026123,5.2113871574401855
274,281361,281362,-0.11673614382743835,-0.02918783575296402,0.9871649146080017,-1.00798499584198,-12.59572696685791,18.086549758911133,-0.554972231388092,-0.8699564933776855,-0.28798559308052063,-0.19120416045188904,-0.5296198129653931,5.406034469604492
275,281371,281372,-0.33498090505599976,-0.19325649738311768,1.1224098205566406,-2.9843926429748535,-16.784603118896484,15.969183921813965,-0.5534723401069641,-0.8624568581581116,-0.2924853563308716,-0.2271685004234314,-0.6183207035064697,5.536127090454102
276,281381,281382,-0.5429973602294922,-0.015582134015858173,0.985946774482727,-5.485467433929443,-20.016935348510742,13.176458358764648,-0.5414729118347168,-0.8684565424919128,-0.277486115694046,0.02411339432001114,-0.5702744722366333,5.7024431228637695
277,281391,281392,-0.16508693993091583,-0.03106885962188244,0.9956310391426086,-13.544877052307129,-19.5544490814209,9.51961898803711,-0.554972231388092,-0.851957380771637,-0.28798559308052063,0.1426788866519928,-0.6483254432678223,5.812121391296387
278,281401,281402,-0.13892966508865356,-0.2314918041229248,0.9731215238571167,-19.82940101623535,-12.489471435546875,4.7973222732543945,-0.5429728627204895,-0.8639568090438843,-0.27898603677749634,0.3908590078353882,-0.907355546951294,5.8810882568359375
279,281411,281412,-0.09823965281248093,-0.0426008440554142,0.9863439798355103,-23.601835250854492,-5.873866558074951,-0.7298231720924377,-0.5504724383354187,-0.850457489490509,-0.277486115694046,0.5251400470733643,-1.2941769361495972,5.88959264755249
280,281421,281422,-0.42148980498313904,0.024797165766358376,1.0214051008224487,-25.489599227905273,-1.2360962629318237,-4.0333428382873535,-0.5414729118347168,-0.8474575877189636,-0.27148643136024475,0.42323973774909973,-1.3547126054763794,5.868041515350342
281,281431,281432,-0.5875642895698547,-0.06178636476397514,0.8628062009811401,-18.900705337524414,4.864181995391846,-6.211085319519043,-0.5459727048873901,-0.8339582681655884,-0.27298635244369507,0.3103063106536865,-1.5628588199615479,5.808877468109131
282,281441,281442,-0.44788914918899536,0.07990427315235138,0.9751216769218445,-7.977146625518799,10.956517219543457,-9.208553314208984,-0.5444727540016174,-0.844457745552063,-0.28048595786094666,0.17689748108386993,-1.6987990140914917,5.728762149810791
283,281451,281452,-0.22250768542289734,0.04712843522429466,1.0194388628005981,-2.7179031372070312,11.01772689819336,-11.394288063049316,-0.5444727540016174,-0.8474575877189636,-0.2834858298301697,-0.04719197005033493,-1.6372491121292114,5.626234531402588
284,281461,281462,-0.37704265117645264,-0.20264124870300293,1.1553993225097656,10.12070369720459,5.019601345062256,-14.140058517456055,-0.554972231388092,-0.8429578542709351,-0.27898603677749634,-0.04854799807071686,-1.6366331577301025,5.48067569732666
285,281471,281472,-0.3007417321205139,-0.07150892913341522,1.0084367990493774,25.669710159301758,-4.205914497375488,-13.140554428100586,-0.5474725961685181,-0.8744562864303589,-0.2744862735271454,0.024018948897719383,-1.3658387660980225,5.336057662963867
286,281481,281482,-0.7614203095436096,0.015242072753608227,1.0095127820968628,32.18056106567383,-5.0704779624938965,-11.251069068908691,-0.5534723401069641,-0.8624568581581116,-0.28948551416397095,0.06704489141702652,-1.1634981632232666,5.222008228302002
287,281491,281492,-0.6038602590560913,-0.22883088886737823,0.9739823937416077,30.964317321777344,-1.4327576160430908,-11.172958374023438,-0.5459727048873901,-0.8549572229385376,-0.27898603677749634,0.13908736407756805,-0.8087618947029114,5.106410026550293
288,281501,281502,-0.47996172308921814,-0.09051576256752014,1.0304993391036987,27.374269485473633,5.678841590881348,-10.886247634887695,-0.5579720735549927,-0.8579570651054382,-0.28198590874671936,0.10219166427850723,-0.48995205760002136,4.997897148132324
289,281511,281512,-0.3822628855705261,-0.15140748023986816,1.0309873819351196,21.76093292236328,7.071328163146973,-12.120027542114258,-0.5534723401069641,-0.8714563846588135,-0.2834858298301697,-0.05511285737156868,-0.4013221561908722,4.899489879608154
290,281521,281522,-0.3671877980232239,0.0005728125688619912,1.0920279026031494,12.666446685791016,1.3291252851486206,-13.634021759033203,-0.5579720735549927,-0.8669566512107849,-0.2759861946105957,-0.06166807934641838,-0.30080631375312805,4.765657424926758
291,281531,281532,-0.34014108777046204,0.00023007686831988394,1.036391258239746,6.659654140472412,-2.5737342834472656,-12.483098983764648,-0.5429728627204895,-0.8549572229385376,-0.27298635244369507,-0.011009976267814636,-0.16386614739894867,4.628258228302002
292,281541,281542,-0.26358938217163086,0.12167495489120483,0.9547814726829529,1.705793857574463,-5.778777122497559,-10.845414161682129,-0.5489725470542908,-0.8579570651054382,-0.2759861946105957,0.07452255487442017,-0.16901007294654846,4.508506774902344
293,281551,281552,-0.485077440738678,-0.06221595034003258,0.999186098575592,-3.3957695960998535,-8.105361938476562,-9.624292373657227,-0.562471866607666,-0.8594570159912109,-0.2834858298301697,0.10994823276996613,-0.1908290982246399,4.402116298675537
294,281561,281562,-0.4892011880874634,-0.15755227208137512,1.0217639207839966,-10.660969734191895,-9.251886367797852,-9.213508605957031,-0.5534723401069641,-0.8624568581581116,-0.2744862735271454,0.13541409373283386,-0.32904016971588135,4.317561149597168
295,281571,281572,-0.26164206862449646,-0.1945214420557022,1.0224467515945435,-17.271263122558594,-9.684085845947266,-7.593273639678955,-0.554972231388092,-0.8549572229385376,-0.2759861946105957,0.38545742630958557,-0.5617898106575012,4.226512432098389
296,281581,281582,-1.3508487939834595,-0.5164375305175781,1.0374269485473633,-22.447526931762695,-8.045743942260742,-8.656219482421875,-0.5414729118347168,-0.8534573316574097,-0.277486115694046,0.4672950506210327,-0.8923211693763733,4.158390522003174
297,281591,281592,-0.6270474195480347,-0.07538150250911713,1.0133671760559082,-20.33784294128418,-4.393523216247559,-10.115086555480957,-0.554972231388092,-0.8459576964378357,-0.2759861946105957,0.5046157240867615,-0.9247071146965027,4.050741672515869
298,281601,281602,-0.027227088809013367,-0.18004897236824036,0.9583913087844849,-12.87877082824707,6.220318794250488,-12.189131736755371,-0.554972231388092,-0.836958110332489,-0.2969851493835449,0.46665722131729126,-1.1367971897125244,3.946537733078003
299,281611,281612,-0.33590802550315857,-0.25254541635513306,0.9557880163192749,-2.4667298793792725,13.150761604309082,-13.231562614440918,-0.5609719157218933,-0.8489575386047363,-0.2759861946105957,0.31544023752212524,-1.1841751337051392,3.8259823322296143
300,281621,281622,-0.20407335460186005,-0.14881666004657745,1.0146204233169556,11.734064102172852,21.540077209472656,-16.868675231933594,-0.5594720244407654,-0.8414579033851624,-0.2834858298301697,0.07650014758110046,-0.975070595741272,3.653115749359131
301,281631,281632,-0.22659146785736084,-0.03976315259933472,1.0035263299942017,24.144126892089844,25.39518928527832,-18.271501541137695,-0.5669716596603394,-0.8459576964378357,-0.27898603677749634,-0.2275160402059555,-0.7688592076301575,3.4762442111968994
302,281641,281642,-0.2262505143880844,0.004779550712555647,1.0362025499343872,40.91960525512695,21.61487579345703,-19.143850326538086,-0.5714713931083679,-0.8534573316574097,-0.28048595786094666,-0.42578890919685364,-0.44559696316719055,3.282371759414673
303,281651,281652,-0.09312395006418228,0.0614892914891243,1.036556601524353,50.8734130859375,15.198684692382812,-19.305593490600586,-0.5684715509414673,-0.850457489490509,-0.28048595786094666,-0.37844493985176086,0.15545274317264557,3.0489768981933594
304,281661,281662,-0.14057083427906036,-0.031706999987363815,1.0430707931518555,49.42449951171875,13.15523624420166,-17.606931686401367,-0.5729713439941406,-0.8639568090438843,-0.27298635244369507,-0.46020007133483887,0.5595306754112244,2.864407777786255
305,281671,281672,-0.49657347798347473,-0.3009699881076813,0.9719426035881042,29.486677169799805,-0.5715384483337402,-15.559385299682617,-0.5789710283279419,-0.8699564933776855,-0.28198590874671936,-0.5945598483085632,0.8188839554786682,2.723738431930542
306,281681,281682,-0.6107769012451172,-0.4806063771247864,0.9688382148742676,4.76088285446167,-14.404708862304688,-17.279260635375977,-0.577471137046814,-0.8744562864303589,-0.277486115694046,-0.4228783845901489,0.8894393444061279,2.5530550479888916
307,281691,281692,-0.9374272227287292,-0.27410683035850525,1.020443320274353,-14.512288093566895,-22.201627731323242,-18.281997680664062,-0.56997150182724,-0.8609569072723389,-0.27898603677749634,-0.29895246028900146,0.8233100771903992,2.3740644454956055
308,281701,281702,-0.7978543043136597,-0.023662105202674866,0.9616449475288391,-29.785892486572266,-22.357891082763672,-18.87722396850586,-0.5519723892211914,-0.851957380771637,-0.2759861946105957,-0.06513198465108871,0.42382174730300903,2.194579839706421
309,281711,281712,-0.21287231147289276,-0.008628280833363533,0.9923768639564514,-33.582706451416016,-18.516983032226562,-18.23455238342285,-0.5564721822738647,-0.850457489490509,-0.2744862735271454,0.19496464729309082,0.20218044519424438,2.004857301712036
310,281721,281722,-0.01117289811372757,-0.05242446810007095,0.9577914476394653,-23.520893096923828,-7.523425102233887,-19.04010581970215,-0.5579720735549927,-0.8549572229385376,-0.27298635244369507,0.3114980161190033,-0.12857969105243683,1.8206088542938232
311,281731,281732,-0.2011128067970276,0.12668046355247498,0.9763233065605164,-1.8450493812561035,2.0647101402282715,-20.395286560058594,-0.554972231388092,-0.8429578542709351,-0.27298635244369507,0.22430287301540375,-0.14068716764450073,1.614834189414978
312,281741,281742,-0.3318970203399658,0.07570529729127884,0.9474680423736572,21.255949020385742,15.048125267028809,-21.292892456054688,-0.5849707126617432,-0.8459576964378357,-0.2759861946105957,0.14885546267032623,0.12903037667274475,1.4021440744400024
313,281751,281752,-0.4590461850166321,-0.036818716675043106,1.0058883428573608,39.31669616699219,25.094892501831055,-21.702585220336914,-0.5759711861610413,-0.8579570651054382,-0.29098543524742126,-0.2012864202260971,0.6848610639572144,1.1694923639297485
314,281761,281762,-0.6984170079231262,-0.08241631835699081,1.0105292797088623,52.99862289428711,35.298362731933594,-20.639789581298828,-0.5714713931083679,-0.8774561285972595,-0.2834858298301697,-0.2868342101573944,1.0727088451385498,0.9752869009971619
315,281771,281772,-0.4697396457195282,-0.17598854005336761,0.9924604296684265,57.224037170410156,40.629859924316406,-21.27374267578125,-0.5819708704948425,-0.8729563355445862,-0.27298635244369507,-0.9198653101921082,1.7158863544464111,0.7653383612632751
316,281781,281782,-0.13002975285053253,0.002977970289066434,1.017456293106079,48.55362319946289,40.36691665649414,-21.702960968017578,-0.5819708704948425,-0.8729563355445862,-0.28198590874671936,-1.2166067361831665,2.0641469955444336,0.5776923298835754
317,281791,281792,-0.06191740930080414,-0.07100126892328262,0.982241690158844,28.246477127075195,32.282623291015625,-21.609952926635742,-0.5969701409339905,-0.8789560198783875,-0.2939853072166443,-1.637844443321228,2.5022220611572266,0.36910438537597656
318,281801,281802,-0.21808430552482605,-0.13806435465812683,0.963211178779602,-1.251853108406067,21.532854080200195,-21.111143112182617,-0.5909704566001892,-0.8729563355445862,-0.28798559308052063,-1.9071712493896484,2.484184980392456,0.1695929914712906
319,281811,281812,-0.15269090235233307,-0.26512208580970764,0.9818493723869324,-23.432212829589844,2.3276891708374023,-19.9509220123291,-0.5849707126617432,-0.8669566512107849,-0.28198590874671936,-1.9054280519485474,2.3489158153533936,-0.012693135999143124
320,281821,281822,-0.7887495160102844,-0.30006787180900574,0.9699100255966187,-36.944007873535156,-19.546890258789062,-18.580547332763672,-0.5894705057144165,-0.8624568581581116,-0.2834858298301697,-1.6942085027694702,1.8730926513671875,-0.19831910729408264
321,281831,281832,-0.4032381474971771,-0.041706666350364685,0.9802708029747009,-40.6754264831543,-35.76700973510742,-15.87796688079834,-0.5804709792137146,-0.8624568581581116,-0.28948551416397095,-1.397227168083191,1.5775943994522095,-0.368863046169281
322,281841,281842,-0.04543561115860939,0.05205172672867775,1.0295073986053467,-30.07842254638672,-47.00462341308594,-12.072555541992188,-0.5684715509414673,-0.8534573316574097,-0.2864856719970703,-0.8236600160598755,1.2990596294403076,-0.4791991710662842
323,281851,281852,-0.22406265139579773,0.009816969744861126,1.0221173763275146,-14.31041431427002,-52.69538497924805,-6.547302722930908,-0.5654717087745667,-0.850457489490509,-0.277486115694046,-0.47797805070877075,1.2662832736968994,-0.6022709608078003
324,281861,281862,-0.13861969113349915,-0.11139325797557831,1.0006158351898193,1.5617241859436035,-51.1754150390625,-1.0303990840911865,-0.5819708704948425,-0.8609569072723389,-0.27898603677749634,0.09483461081981659,1.1912175416946411,-0.638077974319458
325,281871,281872,-0.11866512894630432,-0.06668951362371445,0.9845271706581116,10.971135139465332,-41.780277252197266,4.127511024475098,-0.5684715509414673,-0.850457489490509,-0.28048595786094666,0.7649471163749695,1.2971165180206299,-0.5735387206077576
326,281881,281882,-0.18394209444522858,0.036596447229385376,1.0344966650009155,16.0355167388916,-26.427942276000977,6.393483638763428,-0.5684715509414673,-0.8684565424919128,-0.2864856719970703,0.9245730042457581,1.503469705581665,-0.5654523968696594
327,281891,281892,-0.08118783682584763,0.020088499411940575,1.0278306007385254,19.14719581604004,-4.464786529541016,6.549394607543945,-0.5714713931083679,-0.8564571738243103,-0.28048595786094666,1.120118498802185,1.76543128490448,-0.4882250428199768
328,281901,281902,-0.4604530334472656,-0.08358265459537506,1.0616140365600586,16.959211349487305,24.0304012298584,6.634961128234863,-0.5639718174934387,-0.851957380771637,-0.26998651027679443,0.8747167587280273,1.9408208131790161,-0.45354151725769043
329,281911,281912,-0.21192170679569244,-0.11848708987236023,0.9796009659767151,6.892020225524902,44.7015495300293,8.17728042602539,-0.5969701409339905,-0.8699564933776855,-0.27298635244369507,0.4686621427536011,2.0710318088531494,-0.3778703808784485
330,281921,281922,-0.23709972202777863,-0.41775691509246826,1.0211238861083984,-10.64095401763916,56.89226531982422,9.128216743469238,-0.5969701409339905,-0.8609569072723389,-0.26998651027679443,-0.3257445991039276,1.8830491304397583,-0.3460962176322937
331,281931,281932,-0.12297551333904266,-0.23323974013328552,0.9600086808204651,-31.12066650390625,55.1474494934082,10.495654106140137,-0.5834708213806152,-0.8564571738243103,-0.28048595786094666,-0.5236237645149231,1.588179349899292,-0.12142294645309448
332,281941,281942,-0.1367148458957672,-0.0005578144919127226,0.9342293739318848,-49.97916030883789,40.02071762084961,9.860176086425781,-0.5864706635475159,-0.8414579033851624,-0.27148643136024475,-1.1922892332077026,1.1141704320907593,-0.0612802654504776
333,281951,281952,-0.47815099358558655,-0.1284075230360031,1.0006725788116455,-57.13273620605469,12.412010192871094,9.284995079040527,-0.5834708213806152,-0.8384580612182617,-0.2834858298301697,-1.4308898448944092,0.6616907715797424,0.03653067350387573
334,281961,281962,-0.26004379987716675,-0.07838377356529236,0.9898006319999695,-50.00349426269531,-13.065457344055176,9.694762229919434,-0.5804709792137146,-0.8264586329460144,-0.2654867172241211,-1.1143711805343628,0.1824219673871994,0.21848097443580627
335,281971,281972,-0.14287219941616058,0.012171146459877491,0.9697806239128113,-32.88429641723633,-30.6475887298584,11.365699768066406,-0.5729713439941406,-0.8429578542709351,-0.26998651027679443,-0.8400815725326538,-0.3453236520290375,0.3369135856628418
336,281981,281982,-0.17219293117523193,0.05433402210474014,0.9812437891960144,-20.720918655395508,-40.0308837890625,12.004212379455566,-0.577471137046814,-0.8414579033851624,-0.2744862735271454,-0.4440118372440338,-0.4978034198284149,0.46950551867485046
337,281991,281992,-0.25982171297073364,0.0064050862565636635,0.9538140296936035,-15.830550193786621,-45.450897216796875,12.644553184509277,-0.5834708213806152,-0.850457489490509,-0.277486115694046,0.12396159023046494,-0.6797575354576111,0.6279863119125366
338,282001,282002,-0.21905384957790375,0.06353292614221573,0.9841309785842896,-9.932998657226562,-43.13193130493164,12.86601448059082,-0.56997150182724,-0.8279585838317871,-0.26098695397377014,0.3504548966884613,-0.7096943259239197,0.7139323353767395
339,282011,282012,-0.44207432866096497,-0.014152106828987598,0.9397196173667908,-1.1342356204986572,-33.27903747558594,13.171677589416504,-0.5714713931083679,-0.8324583768844604,-0.2654867172241211,0.8751101493835449,-0.75864577293396,0.8753610849380493
340,282021,282022,-1.0132566690444946,-0.04999852925539017,1.041991114616394,5.953648090362549,-20.494260787963867,13.104863166809082,-0.5654717087745667,-0.8354582190513611,-0.28048595786094666,1.0670535564422607,-0.7563591003417969,0.9987829923629761
341,282031,282032,-0.9729797840118408,-0.16353830695152283,0.9576736688613892,11.598069190979004,-1.2343658208847046,13.97570514678955,-0.5684715509414673,-0.8474575877189636,-0.277486115694046,1.1118779182434082,-0.6451075673103333,1.1296744346618652
342,282041,282042,-0.48079392313957214,-0.05311283469200134,0.9467903971672058,12.726724624633789,14.82563591003418,12.546385765075684,-0.5684715509414673,-0.844457745552063,-0.277486115694046,0.966436505317688,-0.48105180263519287,1.2576112747192383
343,282051,282052,-0.24565239250659943,-0.08228474855422974,0.975623607635498,11.494232177734375,27.026796340942383,10.327367782592773,-0.56997150182724,-0.836958110332489,-0.2759861946105957,0.69320148229599,-0.42389291524887085,1.3589768409729004
344,282061,282062,-0.14254066348075867,-0.3445310890674591,0.9595603346824646,9.162613868713379,44.42842102050781,10.161776542663574,-0.577471137046814,-0.8474575877189636,-0.2744862735271454,0.29707708954811096,-0.23434598743915558,1.4538037776947021
345,282071,282072,-0.09403201937675476,-0.8211461305618286,0.9132260680198669,2.031262159347534,55.4838752746582,8.817874908447266,-0.5744712948799133,-0.8354582190513611,-0.2834858298301697,-0.17829637229442596,-0.21081921458244324,1.5470858812332153
346,282081,282082,-0.0719810426235199,-0.9087995290756226,0.9559310674667358,-6.7879509925842285,47.33751678466797,7.22196102142334,-0.5804709792137146,-0.8384580612182617,-0.27148643136024475,-0.7916219234466553,-0.3232496976852417,1.6293922662734985
347,282091,282092,-0.08298216015100479,-0.3481539785861969,0.9680333733558655,-16.81430435180664,28.358606338500977,5.000428676605225,-0.5864706635475159,-0.844457745552063,-0.28048595786094666,-1.073716640472412,-0.5808128118515015,1.698961853981018
348,282101,282102,-0.3553588092327118,0.0375375971198082,0.9306948781013489,-25.669204711914062,5.991662979125977,2.0914885997772217,-0.5849707126617432,-0.8309584259986877,-0.27898603677749634,-1.1590832471847534,-0.8436776995658875,1.7264708280563354
349,282111,282112,-0.1586911380290985,-0.25714704394340515,0.9389054179191589,-27.45648765563965,-13.386857032775879,-0.07177972793579102,-0.5819708704948425,-0.8099594712257385,-0.2639867961406708,-1.042244791984558,-1.1824321746826172,1.7308340072631836
350,282121,282122,-0.01429751142859459,-0.2123601883649826,1.0104347467422485,-20.506149291992188,-22.101137161254883,0.49697384238243103,-0.562471866607666,-0.8384580612182617,-0.2594870328903198,-0.8601211905479431,-1.2996960878372192,1.7357553243637085
351,282131,282132,-0.22651691734790802,-0.1638169288635254,0.9941697120666504,-12.474405288696289,-21.830677032470703,1.3414360284805298,-0.5789710283279419,-0.8459576964378357,-0.26998651027679443,-0.5618799328804016,-1.5034316778182983,1.7481110095977783
352,282141,282142,-0.48155197501182556,-0.02268584631383419,1.0363938808441162,-4.7397050857543945,-18.728052139282227,0.20003892481327057,-0.5684715509414673,-0.8144592642784119,-0.2654867172241211,-0.32093170285224915,-1.6426053047180176,1.7641394138336182
353,282151,282152,-0.1250055730342865,-0.05868447944521904,0.9552079439163208,3.8728275299072266,-11.213284492492676,-2.095165491104126,-0.5864706635475159,-0.8324583768844604,-0.2654867172241211,-0.246913880109787,-1.505639672279358,1.7639442682266235
354,282161,282162,-0.1282169371843338,-0.12937457859516144,1.0486314296722412,13.516687393188477,-0.42866653203964233,-5.16763162612915,-0.5789710283279419,-0.8399580121040344,-0.2639867961406708,-0.1830614060163498,-1.3691610097885132,1.725087285041809
355,282171,282172,-0.28371164202690125,0.049367353320121765,0.9841902852058411,20.451488494873047,13.656074523925781,-8.624271392822266,-0.5744712948799133,-0.8384580612182617,-0.26848655939102173,-0.31739160418510437,-1.1697216033935547,1.6677175760269165
356,282181,282182,-0.6990366578102112,-0.057114046066999435,0.9883908629417419,22.892173767089844,25.369705200195312,-10.791975021362305,-0.5864706635475159,-0.8384580612182617,-0.26248687505722046,-0.6734222769737244,-0.9742454290390015,1.5889419317245483
357,282191,282192,-0.6777390837669373,-0.05987536162137985,1.030087947845459,22.755695343017578,28.938480377197266,-12.34410572052002,-0.5864706635475159,-0.8384580612182617,-0.26248687505722046,-1.0484809875488281,-0.7687709927558899,1.4838197231292725
358,282201,282202,-0.38585859537124634,0.03409180790185928,1.034995198249817,19.979869842529297,23.01901626586914,-12.70456314086914,-0.5864706635475159,-0.8384580612182617,-0.26248687505722046,-1.169400930404663,-0.5184328556060791,1.3369317054748535
359,282211,282212,-0.28422608971595764,-0.05600426346063614,0.9786999225616455,10.466994285583496,7.865976810455322,-14.102002143859863,-0.6014699339866638,-0.8414579033851624,-0.2744862735271454,-1.2960212230682373,-0.38574883341789246,1.193270206451416
360,282221,282222,-0.11763783544301987,-0.1319090574979782,0.9071763157844543,-2.065246343612671,-6.349020957946777,-15.69259262084961,-0.5924703478813171,-0.8324583768844604,-0.2654867172241211,-1.2386082410812378,-0.38095706701278687,1.0294119119644165
361,282231,282232,-0.06620921939611435,-0.030324842780828476,0.9408719539642334,-12.93100643157959,-13.562689781188965,-16.113649368286133,-0.5819708704948425,-0.8399580121040344,-0.2639867961406708,-1.050896167755127,-0.5612984299659729,0.8496508002281189
362,282241,282242,-0.12642639875411987,0.010959532111883163,0.97449791431427,-15.963692665100098,-19.062702178955078,-17.54793357849121,-0.5909704566001892,-0.8339582681655884,-0.26998651027679443,-0.9137340188026428,-0.7450029850006104,0.6843775510787964
363,282251,282252,-0.02120303362607956,-0.06699912250041962,0.945946455001831,-16.348247528076172,-24.21966552734375,-18.524314880371094,-0.577471137046814,-0.8264586329460144,-0.2654867172241211,-0.6000417470932007,-1.030418872833252,0.47945746779441833
364,282261,282262,-0.2332751750946045,-0.05310758203268051,0.9823812246322632,-8.570260047912598,-25.98984718322754,-17.78733253479004,-0.5684715509414673,-0.8414579033851624,-0.2744862735271454,-0.3882054388523102,-0.9339277744293213,0.32831376791000366
365,282271,282272,-0.5135404467582703,-0.5045343637466431,1.0093538761138916,5.085165977478027,-26.722929000854492,-16.357318878173828,-0.5789710283279419,-0.8429578542709351,-0.27898603677749634,-0.02055646851658821,-0.942768394947052,0.1482253223657608
366,282281,282282,-0.18980465829372406,-0.28504303097724915,0.9876581430435181,16.78205680847168,-22.2697696685791,-14.534796714782715,-0.5729713439941406,-0.8459576964378357,-0.2759861946105957,0.16436392068862915,-0.7353478074073792,0.015475846827030182
367,282291,282292,-0.28373730182647705,-0.17667533457279205,0.9776793718338013,18.58707618713379,-13.712442398071289,-12.543279647827148,-0.5759711861610413,-0.8399580121040344,-0.2639867961406708,0.30639588832855225,-0.5819627642631531,-0.10720700025558472
368,282301,282302,-1.1840153932571411,-0.4531550407409668,1.0237189531326294,13.329461097717285,2.0196897983551025,-11.411189079284668,-0.5804709792137146,-0.8474575877189636,-0.26248687505722046,0.21923230588436127,-0.4259619414806366,-0.1987779587507248
369,282311,282312,-1.0493546724319458,-0.06957865506410599,0.9673349261283875,10.607781410217285,16.275976181030273,-12.182768821716309,-0.5789710283279419,-0.836958110332489,-0.27298635244369507,0.03454180806875229,-0.2541152834892273,-0.3026551306247711
370,282321,282322,-0.3109666705131531,-0.08266346901655197,0.8995245099067688,8.304610252380371,21.763315200805664,-13.053962707519531,-0.577471137046814,-0.8474575877189636,-0.26848655939102173,-0.021806875243782997,-0.19753266870975494,-0.46215298771858215
371,282331,282332,-0.06732344627380371,-0.4285396635532379,0.9879137873649597,6.587941646575928,15.354280471801758,-12.617706298828125,-0.5789710283279419,-0.8399580121040344,-0.27898603677749634,-0.23926734924316406,-0.16754764318466187,-0.5927306413650513
372,282341,282342,-0.06298686563968658,-0.11467894166707993,0.9557209014892578,-0.4236465096473694,2.751216173171997,-12.094749450683594,-0.5819708704948425,-0.8429578542709351,-0.26998651027679443,-0.1947750449180603,-0.15118436515331268,-0.7358384728431702
373,282351,282352,-0.05767321214079857,0.03806000575423241,0.9905199408531189,-8.573610305786133,-4.378345966339111,-11.709277153015137,-0.5744712948799133,-0.844457745552063,-0.2654867172241211,-0.14272984862327576,-0.18487879633903503,-0.8601927757263184
374,282361,282362,-0.08482880890369415,0.05460893362760544,1.0289000272750854,-17.691726684570312,-1.7091081142425537,-13.335219383239746,-0.5819708704948425,-0.8549572229385376,-0.26998651027679443,-0.08175505697727203,-0.44666537642478943,-0.9872153997421265
375,282371,282372,-0.6360450387001038,-0.3795158565044403,0.989159345626831,-22.401885986328125,2.6596500873565674,-15.097151756286621,-0.5729713439941406,-0.851957380771637,-0.26098695397377014,-0.10017157346010208,-0.5855359435081482,-1.1285332441329956
376,282381,282382,-0.8128244280815125,-0.8600014448165894,0.9676510095596313,-16.832246780395508,8.482261657714844,-16.109172821044922,-0.5744712948799133,-0.8594570159912109,-0.26848655939102173,-0.20869332551956177,-0.7657384276390076,-1.280981421470642
377,282391,282392,-0.2858318090438843,-0.23668016493320465,1.0345557928085327,-5.88810396194458,17.34273910522461,-16.440540313720703,-0.5909704566001892,-0.8489575386047363,-0.2759861946105957,-0.42634785175323486,-0.7871018648147583,-1.436194896697998
378,282401,282402,-0.1628408432006836,0.021183528006076813,1.0353983640670776,3.586920738220215,20.153789520263672,-17.588912963867188,-0.5909704566001892,-0.8609569072723389,-0.26098695397377014,-0.7412280440330505,-0.7153092622756958,-1.60105299949646
379,282411,282412,-1.0305014848709106,-0.5402975678443909,1.0390825271606445,11.600682258605957,11.981831550598145,-17.790870666503906,-0.6029698252677917,-0.8609569072723389,-0.26998651027679443,-0.9567792415618896,-0.6500722169876099,-1.769351840019226
380,282421,282422,-0.9822899699211121,-0.5081092715263367,0.9861007928848267,16.631101608276367,0.7309202551841736,-16.298091888427734,-0.5939702987670898,-0.8489575386047363,-0.26098695397377014,-0.9314136505126953,-0.4191986620426178,-1.9509085416793823
381,282431,282432,-0.13144896924495697,-0.06447665393352509,0.9647793769836426,21.79041862487793,-15.437302589416504,-13.563945770263672,-0.5999699831008911,-0.851957380771637,-0.2639867961406708,-0.7390828728675842,-0.2553567886352539,-2.1137475967407227
382,282441,282442,-0.10807748138904572,0.04352366179227829,1.0502307415008545,19.854087829589844,-26.0151424407959,-11.122255325317383,-0.5939702987670898,-0.8459576964378357,-0.27898603677749634,-0.3509838283061981,0.059683457016944885,-2.255978584289551
383,282451,282452,-0.25925198197364807,-0.02454792521893978,0.9913399815559387,12.425210952758789,-28.69156265258789,-7.848785877227783,-0.5894705057144165,-0.8384580612182617,-0.26848655939102173,0.1193244680762291,0.13097000122070312,-2.3739726543426514
384,282461,282462,-0.30072563886642456,-0.17211994528770447,1.0163556337356567,5.271606922149658,-24.95270347595215,-5.63203763961792,-0.5879706144332886,-0.8459576964378357,-0.28198590874671936,0.5446887612342834,0.23097389936447144,-2.46053409576416
385,282471,282472,-0.3018895089626312,-0.14898359775543213,1.0218243598937988,-3.3902039527893066,-14.89848804473877,-3.5496838092803955,-0.5744712948799133,-0.8534573316574097,-0.2744862735271454,0.46041885018348694,0.0527074933052063,-2.4768829345703125
386,282481,282482,-0.2570352256298065,-0.09403405338525772,1.0604454278945923,-8.346024513244629,-7.1352009773254395,-2.8442223072052,-0.5759711861610413,-0.851957380771637,-0.28798559308052063,0.5574942231178284,-0.06163548305630684,-2.500455379486084
387,282491,282492,-0.2377973198890686,-0.07608477771282196,1.0649477243423462,-12.727826118469238,1.1733424663543701,-2.9910480976104736,-0.5834708213806152,-0.850457489490509,-0.277486115694046,0.5742507576942444,0.37751349806785583,-2.5399789810180664
388,282501,282502,-0.19870975613594055,-0.1755620241165161,1.0578811168670654,-14.245675086975098,11.924633026123047,-2.1758618354797363,-0.5804709792137146,-0.8414579033851624,-0.28048595786094666,0.4252345860004425,0.09801981598138809,-2.559751033782959
389,282511,282512,-0.17189563810825348,-0.1474384069442749,0.9904313683509827,-13.1227388381958,19.346269607543945,-0.9731358289718628,-0.5759711861610413,-0.8459576964378357,-0.2759861946105957,0.22627228498458862,0.12306687235832214,-2.578922986984253
390,282521,282522,-0.1140391007065773,0.13060644268989563,1.053330659866333,-11.673131942749023,22.823060989379883,-1.7272610664367676,-0.5864706635475159,-0.8534573316574097,-0.26848655939102173,0.08174522966146469,-0.12409421801567078,-2.5876121520996094
391,282531,282532,-0.05354193225502968,0.1502511203289032,1.104238748550415,-6.66019868850708,24.32402801513672,-1.9487993717193604,-0.6014699339866638,-0.8414579033851624,-0.2654867172241211,-0.24247205257415771,-0.2886984050273895,-2.602428674697876
392,282541,282542,-0.06044197827577591,0.01559926476329565,1.0194483995437622,-6.24160099029541,21.210920333862305,-2.020716667175293,-0.5969701409339905,-0.8429578542709351,-0.26998651027679443,-0.3796423375606537,-0.281353235244751,-2.62773060798645
393,282551,282552,-0.21371835470199585,-0.4768795967102051,1.0210720300674438,-7.425599575042725,18.9902286529541,-4.5140814781188965,-0.5894705057144165,-0.8354582190513611,-0.27148643136024475,-0.5486874580383301,-0.4433000981807709,-2.6634578704833984
394,282561,282562,-0.12530620396137238,-0.0977075919508934,1.036934494972229,-3.1852357387542725,16.604087829589844,-8.097247123718262,-0.6044697761535645,-0.8354582190513611,-0.27148643136024475,-0.5552399754524231,-0.4175831079483032,-2.7365808486938477
395,282571,282572,-0.10826559364795685,0.026906181126832962,1.0600324869155884,1.9949673414230347,11.72033977508545,-11.643465042114258,-0.616469144821167,-0.8264586329460144,-0.26248687505722046,-0.6436986327171326,-0.44999632239341736,-2.8359291553497314
396,282581,282582,-0.1128983423113823,0.042992003262043,1.0334833860397339,8.370806694030762,3.3940329551696777,-13.351004600524902,-0.6014699339866638,-0.8414579033851624,-0.25348731875419617,-0.7657467722892761,-0.38769835233688354,-2.960753917694092
397,282591,282592,-0.13950392603874207,-0.09830877929925919,0.9914455413818359,17.741300582885742,-0.7496582865715027,-14.987069129943848,-0.6179690957069397,-0.8429578542709351,-0.26098695397377014,-0.7928521037101746,-0.18165430426597595,-3.111956834793091
398,282601,282602,-0.15036630630493164,-0.1455758661031723,0.9879663586616516,22.233104705810547,-4.531392574310303,-15.472943305969238,-0.5924703478813171,-0.8204589486122131,-0.25348731875419617,-0.7533954977989197,0.04729599133133888,-3.2724533081054688
399,282611,282612,-0.054258011281490326,-0.055650744587183,0.9501044750213623,17.38495445251465,-10.29125690460205,-14.06659984588623,-0.6059696674346924,-0.8219588994979858,-0.2549872398376465,-0.6061694622039795,0.11257271468639374,-3.424553155899048
400,282621,282622,-0.4710293114185333,-0.3460288643836975,0.9455179572105408,9.59922981262207,-11.645523071289062,-12.949383735656738,-0.6089695692062378,-0.8309584259986877,-0.2759861946105957,-0.3593156337738037,0.26092633605003357,-3.5621328353881836
401,282631,282632,-1.2494510412216187,-0.78105229139328,1.0066871643066406,11.681889533996582,-9.360739707946777,-11.240560531616211,-0.5924703478813171,-0.8384580612182617,-0.26248687505722046,-0.21402986347675323,0.33710429072380066,-3.6832339763641357
402,282641,282642,-0.6156372427940369,-0.5385918021202087,1.0019950866699219,8.266283988952637,-3.6426069736480713,-10.339441299438477,-0.6089695692062378,-0.8339582681655884,-0.26998651027679443,-0.285520076751709,0.45407116413116455,-3.787173271179199
403,282651,282652,-0.32434770464897156,-0.28292250633239746,1.000813364982605,6.330311298370361,1.6144886016845703,-10.897061347961426,-0.6059696674346924,-0.8309584259986877,-0.24898754060268402,-0.20840732753276825,0.5381723046302795,-3.8966236114501953
404,282661,282662,-0.3772939443588257,-0.2472497671842575,1.0111881494522095,-1.2038395404815674,8.445138931274414,-8.887357711791992,-0.6029698252677917,-0.8249587416648865,-0.2549872398376465,-0.301290899515152,0.5268808603286743,-3.998262405395508
405,282671,282672,-0.6183727979660034,-0.657960057258606,0.9393700957298279,-10.280622482299805,19.76665496826172,-8.098556518554688,-0.6119694113731384,-0.8279585838317871,-0.26098695397377014,-0.4109242856502533,0.375829815864563,-4.077340602874756
406,282681,282682,-0.30804598331451416,-0.3475310206413269,0.9237715601921082,-16.347368240356445,30.990158081054688,-7.771175384521484,-0.6134693026542664,-0.8324583768844604,-0.2654867172241211,-0.7534065246582031,0.24556423723697662,-4.1538166999816895
407,282691,282692,-0.19125092029571533,-0.2685033679008484,0.8995031714439392,-21.50313377380371,29.657812118530273,-7.152224063873291,-0.6149692535400391,-0.8339582681655884,-0.27298635244369507,-1.0313715934753418,-0.045550309121608734,-4.22446870803833
408,282701,282702,-0.18586349487304688,-0.5548507571220398,0.9386754631996155,-19.996902465820312,20.478248596191406,-5.065809726715088,-0.6149692535400391,-0.836958110332489,-0.2669866383075714,-1.3352140188217163,-0.26674237847328186,-4.289988040924072
409,282711,282712,-0.2142842411994934,-0.4164646863937378,0.9923481941223145,-21.74970054626465,7.116901397705078,-3.589484930038452,-0.6119694113731384,-0.8249587416648865,-0.2669866383075714,-1.3640681505203247,-0.3456105887889862,-4.321505546569824
410,282721,282722,-0.4581979215145111,-0.18827451765537262,0.9410237073898315,-23.949493408203125,-6.310574531555176,-1.6060833930969238,-0.6089695692062378,-0.836958110332489,-0.2639867961406708,-1.18100106716156,-0.6805828213691711,-4.341039657592773
411,282731,282732,-0.6043533086776733,-0.2347792237997055,0.9800220131874084,-25.837268829345703,-20.39144515991211,-0.5528622269630432,-0.6074696183204651,-0.8384580612182617,-0.27148643136024475,-1.06153404712677,-0.8391115069389343,-4.337161540985107
412,282741,282742,-0.254503071308136,-0.0916125699877739,0.9258339405059814,-17.7510986328125,-27.823566436767578,-2.1156346797943115,-0.5954701900482178,-0.8294585347175598,-0.26248687505722046,-0.6595353484153748,-1.1233493089675903,-4.347360610961914
413,282751,282752,-0.15601728856563568,0.14645268023014069,1.0259743928909302,-10.074662208557129,-28.386926651000977,-2.7846519947052,-0.5984700918197632,-0.8384580612182617,-0.26848655939102173,-0.35755330324172974,-1.2672278881072998,-4.36540412902832
414,282761,282762,-0.11648940294981003,0.03528815135359764,1.0371007919311523,0.3451099991798401,-21.29840850830078,-4.6879096031188965,-0.6059696674346924,-0.8309584259986877,-0.26098695397377014,-0.19696365296840668,-1.1290744543075562,-4.380051136016846
415,282771,282772,-0.10762615501880646,-0.08812665194272995,0.9976200461387634,8.668106079101562,-5.725490570068359,-5.063168525695801,-0.6014699339866638,-0.8354582190513611,-0.26848655939102173,-0.11772985756397247,-1.0677374601364136,-4.427806854248047
416,282781,282782,-0.6529442667961121,-0.1952766627073288,0.9977874159812927,17.89082908630371,7.676645755767822,-6.300272464752197,-0.6119694113731384,-0.8459576964378357,-0.2669866383075714,-0.18297557532787323,-0.8517147302627563,-4.482814788818359
417,282791,282792,-0.5367791652679443,-0.1506064087152481,0.9381865859031677,24.963777542114258,21.10358428955078,-8.453121185302734,-0.6134693026542664,-0.8234587907791138,-0.26248687505722046,-0.3972298502922058,-0.5809657573699951,-4.552512168884277
418,282801,282802,-0.16538390517234802,-0.030248459428548813,0.9341272115707397,26.971513748168945,25.442018508911133,-8.345418930053711,-0.6194689869880676,-0.8414579033851624,-0.26848655939102173,-0.7256959676742554,-0.31979456543922424,-4.627492904663086
419,282811,282812,-0.1725793480873108,0.035080958157777786,0.9420550465583801,24.451528549194336,24.98263168334961,-8.518214225769043,-0.6149692535400391,-0.8429578542709351,-0.2639867961406708,-0.8630648255348206,-0.08224677294492722,-4.71596097946167
420,282821,282822,-0.13588523864746094,-0.059416916221380234,1.00697660446167,18.119361877441406,20.27071189880371,-7.5448689460754395,-0.6119694113731384,-0.8309584259986877,-0.2579870820045471,-1.0974317789077759,0.13305330276489258,-4.792893886566162
421,282831,282832,-0.2855694890022278,0.03351953625679016,0.9898303747177124,8.367615699768066,13.570646286010742,-6.9868550300598145,-0.6149692535400391,-0.8399580121040344,-0.28198590874671936,-1.2181025743484497,0.1315910667181015,-4.875942230224609
422,282841,282842,-0.49993303418159485,-0.1803811639547348,0.9553306102752686,2.0910181999206543,2.985145092010498,-4.751510143280029,-0.6119694113731384,-0.8489575386047363,-0.2639867961406708,-1.2506557703018188,0.1578800529241562,-4.931399345397949
423,282851,282852,-0.2430764138698578,-0.20565079152584076,0.9659451842308044,-0.2683224380016327,-9.984776496887207,-1.0709786415100098,-0.6074696183204651,-0.8474575877189636,-0.26848655939102173,-1.142993688583374,0.27574053406715393,-4.944791793823242
424,282861,282862,-0.16417276859283447,-0.16005052626132965,0.9819395542144775,-5.89938497543335,-16.306751251220703,1.8671247959136963,-0.6119694113731384,-0.8429578542709351,-0.2459876984357834,-0.9040374755859375,0.177109032869339,-4.9409379959106445
425,282871,282872,-0.8707391619682312,-0.6229756474494934,0.9298865795135498,-13.90848159790039,-15.385007858276367,4.0203166007995605,-0.6014699339866638,-0.8354582190513611,-0.2744862735271454,-0.7384910583496094,-0.045605119317770004,-4.9202799797058105
426,282881,282882,-0.5158865451812744,-0.6909540891647339,0.9487181305885315,-13.767702102661133,-16.085277557373047,8.211762428283691,-0.5819708704948425,-0.836958110332489,-0.2669866383075714,-0.6966536045074463,0.06239427998661995,-4.825683116912842
427,282891,282892,-0.49527183175086975,-0.20245540142059326,1.0372915267944336,-17.64596939086914,-14.530137062072754,10.7994384765625,-0.5879706144332886,-0.8399580121040344,-0.26998651027679443,-0.4458405077457428,-0.24964147806167603,-4.73543643951416
428,282901,282902,-0.6850953102111816,0.09669841825962067,1.0376754999160767,-18.78356170654297,-8.796868324279785,11.242301940917969,-0.5909704566001892,-0.8399580121040344,-0.2669866383075714,-0.2992880940437317,-0.37600812315940857,-4.61290979385376
429,282911,282912,-1.0694085359573364,0.05324739217758179,1.0388178825378418,-15.955439567565918,-5.697465896606445,12.678046226501465,-0.6074696183204651,-0.8324583768844604,-0.2654867172241211,-0.2899039387702942,-0.5447153449058533,-4.489640712738037
430,282921,282922,-0.5485456585884094,0.01541268639266491,1.0323927402496338,-14.275598526000977,-3.872128963470459,13.326896667480469,-0.6059696674346924,-0.8309584259986877,-0.27298635244369507,-0.24941743910312653,-0.6842294931411743,-4.363945484161377
431,282931,282932,-1.0163326263427734,-0.023057779297232628,1.0199859142303467,-11.096906661987305,-5.063918113708496,12.966219902038574,-0.6014699339866638,-0.8234587907791138,-0.2654867172241211,-0.17413772642612457,-0.7680465579032898,-4.226259231567383
432,282941,282942,-0.3375449776649475,0.011312351562082767,0.9739064574241638,-6.844910144805908,-3.643444538116455,11.58482837677002,-0.5969701409339905,-0.851957380771637,-0.28198590874671936,-0.12768778204917908,-0.8660624027252197,-4.105287075042725
433,282951,282952,-0.0739750936627388,-0.06532498449087143,1.0248825550079346,2.0046143531799316,0.2923862338066101,11.171475410461426,-0.5939702987670898,-0.8279585838317871,-0.27298635244369507,-0.1409497708082199,-0.7826402187347412,-3.984935760498047
434,282961,282962,-0.1753074824810028,-0.24249938130378723,1.0204004049301147,13.44941234588623,8.370939254760742,11.305991172790527,-0.5999699831008911,-0.8399580121040344,-0.2759861946105957,-0.24223792552947998,-0.655351459980011,-3.86772084236145
435,282971,282972,-0.46877360343933105,-0.21677489578723907,0.9905481934547424,18.802335739135742,16.831266403198242,13.325434684753418,-0.5999699831008911,-0.8489575386047363,-0.2759861946105957,-0.4786292016506195,-0.48159870505332947,-3.7460594177246094
436,282981,282982,-0.4072008728981018,-0.3014914095401764,1.0204453468322754,13.557494163513184,16.990293502807617,15.083343505859375,-0.5954701900482178,-0.850457489490509,-0.2864856719970703,-0.6792029738426208,-0.3406102955341339,-3.600126266479492
437,282991,282992,-0.4612911641597748,-0.3027399480342865,0.9788010120391846,7.567910671234131,11.398699760437012,16.32289695739746,-0.5834708213806152,-0.8474575877189636,-0.2744862735271454,-0.6693280339241028,-0.22335371375083923,-3.4425928592681885
438,283001,283002,-0.21867284178733826,-0.027616627514362335,1.0262190103530884,1.7021384239196777,6.427402973175049,17.72748374938965,-0.5999699831008911,-0.8459576964378357,-0.28498575091362,-0.7928951978683472,-0.21276795864105225,-3.2659027576446533
439,283011,283012,-0.5668176412582397,0.020975003018975258,1.0164533853530884,-3.3488337993621826,5.433572292327881,20.770034790039062,-0.6089695692062378,-0.8549572229385376,-0.27898603677749634,-0.6659575700759888,-0.20305731892585754,-3.0762178897857666
440,283021,283022,-0.5711038708686829,0.04325471445918083,1.0214587450027466,-11.08082103729248,3.8321304321289062,23.950340270996094,-0.5864706635475159,-0.8654567003250122,-0.2864856719970703,-0.7504333257675171,-0.3032037913799286,-2.846872329711914
441,283031,283032,-0.08820845186710358,-0.00732309278100729,0.9228787422180176,-22.611051559448242,0.2341100424528122,23.499879837036133,-0.5879706144332886,-0.8549572229385376,-0.28798559308052063,-0.7124250531196594,-0.3678901195526123,-2.6050381660461426
442,283041,283042,0.0017282945336773992,-0.10835855454206467,0.9104548692703247,-34.22303009033203,-5.2462921142578125,22.033632278442383,-0.5969701409339905,-0.8339582681655884,-0.26998651027679443,-0.6704500913619995,-0.7697860598564148,-2.3827407360076904
443,283051,283052,-0.11608613282442093,-0.035171136260032654,0.9583281874656677,-39.42469024658203,-12.489408493041992,19.35034942626953,-0.5819708704948425,-0.836958110332489,-0.27298635244369507,-0.5912922024726868,-1.141672134399414,-2.1720705032348633
444,283061,283062,0.022342035546898842,0.017024802044034004,0.9583280682563782,-40.56181716918945,-17.143184661865234,16.23337745666504,-0.5909704566001892,-0.8399580121040344,-0.27298635244369507,-0.37148338556289673,-1.552402138710022,-1.9982165098190308
445,283071,283072,-0.18887996673583984,-0.06939920037984848,1.0563725233078003,-28.754884719848633,-19.497577667236328,12.210285186767578,-0.5789710283279419,-0.8249587416648865,-0.2639867961406708,-0.2417123019695282,-1.7029215097427368,-1.8485075235366821
446,283081,283082,-0.38702529668807983,-0.07886901497840881,1.027178406715393,-14.05256462097168,-20.064090728759766,10.311014175415039,-0.5879706144332886,-0.8339582681655884,-0.2669866383075714,-0.05600617453455925,-2.0473268032073975,-1.7295489311218262
447,283091,283092,-0.14604203402996063,-0.005015846341848373,1.0338873863220215,2.6023757457733154,-16.13776397705078,8.653397560119629,-0.577471137046814,-0.8324583768844604,-0.2594870328903198,0.2017524242401123,-1.974063754081726,-1.6352565288543701
448,283101,283102,0.028832782059907913,-0.122612863779068,1.0030455589294434,20.741788864135742,-3.971125602722168,7.246628761291504,-0.5849707126617432,-0.8489575386047363,-0.2549872398376465,0.27335935831069946,-1.8451714515686035,-1.5430768728256226
449,283111,283112,-0.07569955289363861,-0.1099310964345932,1.0359504222869873,33.704444885253906,10.21491527557373,5.415130138397217,-0.5984700918197632,-0.850457489490509,-0.26848655939102173,0.08262196183204651,-1.37898850440979,-1.4629143476486206
450,283121,283122,-0.1815733164548874,-0.02063644677400589,1.0443463325500488,29.099048614501953,21.17228126525879,1.860257625579834,-0.6044697761535645,-0.8414579033851624,-0.26848655939102173,-0.16019953787326813,-1.1312189102172852,-1.4229768514633179
451,283131,283132,-0.17088036239147186,-0.052907876670360565,0.9660206437110901,19.712600708007812,25.734464645385742,-1.2696458101272583,-0.6044697761535645,-0.8414579033851624,-0.26848655939102173,-0.4410409927368164,-0.8866090774536133,-1.426249623298645
452,283141,283142,-0.2608596086502075,0.03495821729302406,0.9567387104034424,9.11606502532959,22.411128997802734,-2.78531551361084,-0.6044697761535645,-0.8414579033851624,-0.26848655939102173,-0.7711939215660095,-0.8549702763557434,-1.4382292032241821
453,283151,283152,-0.1660909801721573,0.026181533932685852,0.9710067510604858,-1.7553679943084717,7.070139408111572,-3.5072038173675537,-0.6044697761535645,-0.8414579033851624,-0.26848655939102173,-0.810633659362793,-0.860081672668457,-1.4902489185333252
454,283161,283162,-0.25717753171920776,-0.09909697622060776,0.9894506931304932,-15.501486778259277,-15.387531280517578,-3.6912312507629395,-0.5864706635475159,-0.8354582190513611,-0.25348731875419617,-0.6633694767951965,-1.084496021270752,-1.538312554359436
455,283171,283172,-0.2529148459434509,-0.08274555951356888,0.9429366588592529,-21.60822296142578,-39.18106460571289,-1.9696282148361206,-0.5849707126617432,-0.8459576964378357,-0.2639867961406708,-0.3466910123825073,-1.1397889852523804,-1.5604784488677979
456,283181,283182,-0.09473403543233871,-0.05630440264940262,0.9789416193962097,-26.809772491455078,-53.036495208740234,-0.2549556493759155,-0.5864706635475159,-0.8474575877189636,-0.26848655939102173,0.3030335307121277,-1.5775543451309204,-1.588597059249878
457,283191,283192,-0.1909286081790924,-0.03088773414492607,1.0459272861480713,-25.961925506591797,-51.99713897705078,1.762563943862915,-0.5924703478813171,-0.8474575877189636,-0.2654867172241211,0.8111984133720398,-1.9419732093811035,-1.5546183586120605
458,283201,283202,-0.15165479481220245,0.047746531665325165,1.0843722820281982,-20.93656349182129,-35.43138122558594,4.807465076446533,-0.5729713439941406,-0.8309584259986877,-0.2639867961406708,1.0535387992858887,-1.9776743650436401,-1.4743093252182007
459,283211,283212,-0.660854697227478,-0.025051316246390343,1.0169129371643066,-5.213748931884766,-13.011714935302734,6.686500549316406,-0.56997150182724,-0.8399580121040344,-0.27298635244369507,1.357291340827942,-2.1692087650299072,-1.4232782125473022
460,283221,283222,-0.18059512972831726,-0.006100831087678671,0.9902827739715576,11.32248306274414,10.914717674255371,8.401382446289062,-0.5759711861610413,-0.8249587416648865,-0.2579870820045471,1.2052509784698486,-1.9987624883651733,-1.3296189308166504
461,283231,283232,-0.44842734932899475,-0.0296642929315567,0.9863664507865906,22.245712280273438,35.165283203125,9.718050956726074,-0.5939702987670898,-0.8429578542709351,-0.2639867961406708,0.7329151630401611,-1.695979356765747,-1.2138850688934326
462,283241,283242,-1.1690384149551392,-0.058467797935009,0.9729577302932739,20.628385543823242,49.875221252441406,8.95449161529541,-0.5834708213806152,-0.8294585347175598,-0.2594870328903198,0.41433191299438477,-1.5657039880752563,-1.153862476348877
463,283251,283252,-1.2099931240081787,-0.4405336380004883,1.0051274299621582,7.587276935577393,50.45843505859375,6.462957382202148,-0.5864706635475159,-0.8414579033851624,-0.26848655939102173,-0.2643198072910309,-1.528767704963684,-1.044973373413086
464,283261,283262,-0.9693707823753357,-0.23063012957572937,0.9351630210876465,-1.4842852354049683,41.70726013183594,4.1173200607299805,-0.5969701409339905,-0.8279585838317871,-0.2549872398376465,-0.8265416622161865,-1.512665033340454,-0.9801667928695679
465,283271,283272,-0.3994749188423157,0.14825154840946198,1.0307273864746094,-5.709707260131836,26.242727279663086,4.00239372253418,-0.5834708213806152,-0.8264586329460144,-0.25348731875419617,-0.9053405523300171,-1.5777876377105713,-1.0125436782836914
466,283281,283282,-0.025194453075528145,0.13415312767028809,1.0383082628250122,-9.9091215133667,5.777600288391113,3.2482106685638428,-0.5894705057144165,-0.844457745552063,-0.2594870328903198,-1.115323781967163,-1.711104154586792,-0.9698511362075806
467,283291,283292,-0.18604332208633423,-0.02290765568614006,1.0659399032592773,-12.31973648071289,-13.88971996307373,1.280531644821167,-0.5909704566001892,-0.8309584259986877,-0.2579870820045471,-0.9662361741065979,-1.8202126026153564,-0.9681715965270996
468,283301,283302,-0.07953920215368271,-0.06650421023368835,0.9969202876091003,-12.858192443847656,-22.107555389404297,2.2606751918792725,-0.5819708704948425,-0.8219588994979858,-0.26998651027679443,-0.6949268579483032,-1.8117530345916748,-0.9611535668373108
469,283311,283312,-0.2756845951080322,-0.006133201532065868,1.0433430671691895,-10.328496932983398,-21.783357620239258,3.206951856613159,-0.5909704566001892,-0.836958110332489,-0.2669866383075714,-0.3290860056877136,-1.9886459112167358,-0.9597203731536865
470,283321,283322,-0.3938308358192444,-0.040245503187179565,1.0156657695770264,-4.926568031311035,-16.405588150024414,3.5688416957855225,-0.5864706635475159,-0.8354582190513611,-0.2594870328903198,-0.271514892578125,-2.083826780319214,-0.8959905505180359
471,283331,283332,-0.1374398022890091,-0.06482715159654617,1.0048949718475342,5.070812225341797,-12.593395233154297,3.140151262283325,-0.5879706144332886,-0.8339582681655884,-0.2639867961406708,-0.1143546998500824,-2.040684938430786,-0.8586997985839844
472,283341,283342,-0.1942993551492691,-0.24779121577739716,0.9890206456184387,23.7522029876709,-3.3810057640075684,1.4784879684448242,-0.5894705057144165,-0.8234587907791138,-0.26848655939102173,-0.07942919433116913,-1.8626108169555664,-0.8178812861442566
