,timestamp_start,timestamp_end,acc.x,acc.y,acc.z,gyro.x,gyro.y,gyro.z,mag.x,mag.y,mag.z,stabilizer.pitch,stabilizer.roll,stabilizer.yaw
0,26032,26034,-0.02208232879638672,-0.14051192998886108,0.8668456673622131,-4.027342319488525,-28.071617126464844,-5.1588873863220215,-0.12149392068386078,-3.055347204208374,0.31948402523994446,-0.16701069474220276,0.2036655843257904,-5.206207752227783
1,26042,26044,-0.0985909253358841,-0.09295312315225601,0.8839914798736572,-1.1790275573730469,-19.27947425842285,-6.228839874267578,-0.11549422144889832,-3.0673465728759766,0.31948402523994446,0.25761353969573975,0.32070663571357727,-5.242563247680664
2,26052,26054,-0.20234070718288422,0.008847040124237537,0.9221163988113403,-9.47362232208252,-9.965656280517578,-6.158835411071777,-0.11699414998292923,-3.059846878051758,0.3149842321872711,0.6438385844230652,0.21891173720359802,-5.304728031158447
3,26062,26064,-0.1969868242740631,-0.013777535408735275,1.0513602495193481,-7.286593437194824,-3.7380669116973877,-4.359677314758301,-0.10799460113048553,-3.0718462467193604,0.3059847056865692,0.7822448015213013,0.21494953334331512,-5.365488529205322
4,26072,26074,-0.014399292878806591,-0.012765561230480671,1.0419197082519531,-8.88958740234375,9.650060653686523,-5.033694744110107,-0.12149392068386078,-3.0673465728759766,0.3254837095737457,0.8481424450874329,-0.03238469362258911,-5.427140712738037
5,26082,26084,-0.11436310410499573,-0.07792507857084274,0.981650173664093,-3.0202040672302246,11.471994400024414,-2.285426139831543,-0.11999399960041046,-3.0628468990325928,0.3209839463233948,0.7018780708312988,-0.16216467320919037,-5.482666015625
6,26092,26094,-0.1960202157497406,-0.1439698040485382,0.9603567123413086,1.6587547063827515,24.293460845947266,-4.591854572296143,-0.11699414998292923,-3.053847312927246,0.31798410415649414,0.4261954426765442,-0.5505539774894714,-5.531658172607422
7,26102,26104,-0.11692629754543304,-0.08804509788751602,0.9490648508071899,5.672755241394043,25.622196197509766,-3.1756503582000732,-0.1334933191537857,-3.0643467903137207,0.31948402523994446,0.40804803371429443,-0.4373895227909088,-5.564488410949707
8,26112,26114,-0.010073495097458363,-0.010075824335217476,1.0040818452835083,14.461858749389648,19.551542282104492,-3.451274871826172,-0.13649317622184753,-3.055347204208374,0.31048446893692017,0.855566143989563,-0.31749793887138367,-5.584635257720947
9,26122,26124,0.038754481822252274,-0.06054247170686722,0.93434077501297,19.81072998046875,20.2845516204834,-3.349790096282959,-0.1229938492178917,-3.0658466815948486,0.3239837884902954,0.452985018491745,-0.09189752489328384,-5.625918388366699
10,26132,26134,-0.007669820450246334,0.0941307321190834,0.9877825379371643,21.066349029541016,8.9782133102417,-2.526087522506714,-0.12599369883537292,-3.056847095489502,0.3149842321872711,0.1963675320148468,0.01667565107345581,-5.659026145935059
11,26142,26144,-0.09576338529586792,0.02594793029129505,0.9515661001205444,19.263816833496094,11.896778106689453,-2.350011110305786,-0.1229938492178917,-3.0628468990325928,0.3149842321872711,-0.0832962840795517,0.22482462227344513,-5.688724994659424
12,26152,26154,-0.08825307339429855,-0.16047757863998413,0.9539230465888977,13.065423011779785,7.939764022827148,-1.6140211820602417,-0.14099295437335968,-3.059846878051758,0.3119843900203705,-0.24662083387374878,0.44189637899398804,-5.718396186828613
13,26162,26164,-0.09631365537643433,-0.03769970312714577,0.9531646966934204,4.574472427368164,4.598227024078369,-2.446211338043213,-0.1319933980703354,-3.0448477268218994,0.3149842321872711,-0.4817594289779663,0.6209017038345337,-5.738440990447998
14,26172,26174,-0.02637292817234993,-0.03876930847764015,0.9192005395889282,-0.7644885778427124,-3.5122599601745605,-2.321427583694458,-0.1334933191537857,-3.0643467903137207,0.3134843111038208,-0.5692914128303528,0.691624104976654,-5.754772663116455
15,26182,26184,-0.03151168301701546,-0.1649804264307022,0.9251129031181335,-1.9126125574111938,-10.320055961608887,-4.447007656097412,-0.13049347698688507,-3.055347204208374,0.3044847846031189,-0.82441645860672,0.6790689826011658,-5.8005690574646
16,26192,26194,-0.06369137018918991,-0.2068072408437729,0.851822018623352,-5.747798442840576,-10.983710289001465,-4.739485263824463,-0.13499325513839722,-3.053847312927246,0.3209839463233948,-0.6706516146659851,0.5486774444580078,-5.8387556076049805
17,26202,26204,-0.08347000181674957,-0.14039494097232819,0.9294141530990601,-7.2259626388549805,-12.588394165039062,-5.353914260864258,-0.13799309730529785,-3.0658466815948486,0.30898454785346985,-0.5572264194488525,0.6003899574279785,-5.881507873535156
18,26212,26214,-0.06056538224220276,-0.060634177178144455,0.9204054474830627,-6.372656345367432,-9.08183479309082,-3.797628402709961,-0.12449377030134201,-3.0733463764190674,0.3044847846031189,-0.45441240072250366,0.481732577085495,-5.935107231140137
19,26222,26224,-0.09521228820085526,0.010777328163385391,0.9143535494804382,-6.158459663391113,-11.982799530029297,-3.189777374267578,-0.12749361991882324,-3.049347400665283,0.31048446893692017,-0.2737690210342407,0.43470633029937744,-5.9772162437438965
20,26232,26234,-0.179543599486351,-0.04087007790803909,0.9617063999176025,-5.612245559692383,-4.335146903991699,-2.4443211555480957,-0.11849407106637955,-3.0733463764190674,0.3134843111038208,-0.16843999922275543,0.6780982613563538,-5.985623836517334
21,26242,26244,-0.8470779657363892,-0.10374502092599869,0.9659225344657898,-0.045246243476867676,5.446871757507324,-2.877824068069458,-0.11699414998292923,-3.0688464641571045,0.2969851493835449,-0.14827007055282593,0.6428429484367371,-6.021454334259033
22,26252,26254,-0.28207486867904663,-0.09821496158838272,0.9299886226654053,2.155931234359741,13.638287544250488,-2.257854700088501,-0.12749361991882324,-3.0673465728759766,0.30748462677001953,-0.24961917102336884,0.5906871557235718,-6.054214000701904
23,26262,26264,-0.0811692550778389,-0.10550525784492493,0.975475549697876,3.3712069988250732,17.006549835205078,-2.514591932296753,-0.11849407106637955,-3.0703463554382324,0.31048446893692017,-0.46188074350357056,0.855278730392456,-6.070888996124268
24,26272,26274,-0.06968612223863602,-0.06509372591972351,0.9698376059532166,-0.5682774782180786,12.565828323364258,-3.377168893814087,-0.11849407106637955,-3.0673465728759766,0.30748462677001953,-0.6906139254570007,0.7365413308143616,-6.110064506530762
25,26282,26284,-0.03234186768531799,-0.039346735924482346,0.9871948957443237,-6.292721748352051,3.1846253871917725,-2.8482794761657715,-0.11549422144889832,-3.0673465728759766,0.3134843111038208,-0.8371421694755554,0.6536033153533936,-6.14478063583374
26,26292,26294,-0.04686421528458595,-0.18767748773097992,0.9618101119995117,-10.865878105163574,-11.353550910949707,-0.8801189064979553,-0.113994300365448,-3.0688464641571045,0.30898454785346985,-0.8282718062400818,0.500138521194458,-6.174534797668457
27,26302,26304,-0.31369873881340027,-0.06532108038663864,0.9811379909515381,-15.2993803024292,-21.9285945892334,0.5026267766952515,-0.113994300365448,-3.0688464641571045,0.3119843900203705,-0.64414381980896,0.6282159090042114,-6.153587341308594
28,26312,26314,-0.3594135046005249,0.04909852147102356,0.9460124373435974,-18.723371505737305,-22.354358673095703,-0.21972890198230743,-0.10949452221393585,-3.0733463764190674,0.2924853563308716,-0.9953341484069824,0.18970811367034912,-6.2447896003723145
29,26322,26324,-0.06094808876514435,-0.004093036521226168,0.8880016207695007,-15.749789237976074,-21.53807830810547,0.8862214088439941,-0.10349482297897339,-3.0763461589813232,0.2954852283000946,-0.8389353156089783,0.026581326499581337,-6.250515937805176
30,26332,26334,0.00897302571684122,-0.044386595487594604,0.9480937123298645,-6.629386901855469,-20.02592658996582,2.143089532852173,-0.10349482297897339,-3.0763461589813232,0.2954852283000946,-0.7026238441467285,-0.08984281867742538,-6.248490810394287
31,26342,26344,-0.01878448948264122,-0.01566864736378193,1.0083177089691162,2.3325250148773193,-25.23417091369629,1.2687557935714722,-0.10349482297897339,-3.0763461589813232,0.2954852283000946,-0.33411121368408203,-0.2322808802127838,-6.221345901489258
32,26352,26354,-0.17605625092983246,-0.011695928871631622,0.9895893335342407,8.779155731201172,-24.379228591918945,-0.009782889857888222,-0.10349482297897339,-3.0763461589813232,0.2954852283000946,-0.28442350029945374,-0.22393184900283813,-6.21464204788208
33,26362,26364,-0.21505534648895264,-0.08178205788135529,0.9702160954475403,9.83292293548584,-20.728361129760742,0.14406085014343262,-0.1049947515130043,-3.0748462677001953,0.30898454785346985,-0.09820109605789185,-0.1233343631029129,-6.21030330657959
34,26372,26374,-0.0628681406378746,0.08492256700992584,1.0088164806365967,9.787442207336426,-12.787150382995605,0.36564403772354126,-0.10949452221393585,-3.0763461589813232,0.30748462677001953,0.08960270881652832,0.0013363431207835674,-6.209963321685791
35,26382,26384,-0.03633542358875275,0.2136889100074768,0.9979201555252075,6.648159027099609,-5.5890398025512695,2.8669207096099854,-0.10649467259645462,-3.0733463764190674,0.29848507046699524,0.30154767632484436,0.11254367232322693,-6.205528259277344
36,26392,26394,-0.16487447917461395,0.07933451235294342,1.0330121517181396,2.9492456912994385,2.158169984817505,7.427481651306152,-0.1049947515130043,-3.083845853805542,0.3149842321872711,0.29968273639678955,0.2535225450992584,-6.188442230224609
37,26402,26404,-0.5421183705329895,-0.05521324649453163,1.0439696311950684,-5.758916854858398,10.863363265991211,11.861181259155273,-0.10199490189552307,-3.077846050262451,0.30898454785346985,0.0544695183634758,0.3025801181793213,-6.137577533721924
38,26412,26414,-0.5180633664131165,0.06122193485498428,0.9756444096565247,-12.181429862976074,13.198631286621094,14.599780082702637,-0.10949452221393585,-3.0733463764190674,0.3014849126338959,0.08934304863214493,0.22391456365585327,-6.027012348175049
39,26422,26424,-0.13813236355781555,0.00035725507768802345,1.0037370920181274,-20.150182723999023,4.895428657531738,15.658981323242188,-0.1049947515130043,-3.077846050262451,0.3119843900203705,-0.031044097617268562,0.10306208580732346,-5.888629913330078
40,26432,26434,-0.026447437703609467,-0.05693848431110382,1.0412156581878662,-25.481996536254883,-5.0241265296936035,15.98335075378418,-0.10049497336149216,-3.0733463764190674,0.29848507046699524,-0.1269640475511551,-0.12302832305431366,-5.732803821563721
41,26442,26444,-0.1003955751657486,-0.06823255121707916,1.023896336555481,-26.30366325378418,-14.315439224243164,14.684033393859863,-0.10049497336149216,-3.08534574508667,0.3014849126338959,-0.06679464876651764,-0.291036456823349,-5.568498134613037
42,26452,26454,-0.08662746846675873,-0.007198549807071686,1.0442546606063843,-24.051973342895508,-22.219690322875977,14.435286521911621,-0.10349482297897339,-3.05834698677063,0.29848507046699524,-0.001342459348961711,-0.47686201333999634,-5.412032604217529
43,26462,26464,-0.01689373329281807,0.006969889160245657,1.0737937688827515,-17.348783493041992,-27.032987594604492,12.662946701049805,-0.09899504482746124,-3.0718462467193604,0.30898454785346985,0.31676414608955383,-0.7614975571632385,-5.267533302307129
44,26472,26474,-0.2371724545955658,-0.07775610685348511,1.0627503395080566,-9.395977973937988,-28.595144271850586,10.594648361206055,-0.10049497336149216,-3.0763461589813232,0.3134843111038208,0.4245465099811554,-0.9451714754104614,-5.131771564483643
45,26482,26484,-0.24597026407718658,-0.05559530481696129,1.0563387870788574,-1.229002833366394,-23.23492431640625,8.878929138183594,-0.0944952741265297,-3.0733463764190674,0.3044847846031189,0.6970457434654236,-1.1314088106155396,-5.011935710906982
46,26492,26494,-0.09261011332273483,0.039449166506528854,1.1075613498687744,4.046051502227783,-18.373432159423828,7.095588207244873,-0.1049947515130043,-3.056847095489502,0.3059847056865692,1.0504144430160522,-1.0448083877563477,-4.917848587036133
47,26502,26504,-0.041775915771722794,-0.0009652430890128016,1.069172978401184,6.857835292816162,-11.691784858703613,6.167787075042725,-0.10949452221393585,-3.0673465728759766,0.3164841830730438,1.2248470783233643,-1.0246576070785522,-4.831429481506348
48,26512,26514,-0.0791621208190918,-0.0391237773001194,1.1421738862991333,3.734158515930176,-7.363532543182373,5.016052722930908,-0.10649467259645462,-3.0703463554382324,0.3134843111038208,1.3634487390518188,-0.9783956408500671,-4.759586811065674
49,26522,26524,-0.13838206231594086,-0.03671075403690338,1.0593129396438599,1.0132513046264648,-0.41512221097946167,5.53352689743042,-0.0944952741265297,-3.0643467903137207,0.3134843111038208,1.5405899286270142,-0.8252784013748169,-4.720279216766357
50,26532,26534,-0.07993723452091217,-0.009533099830150604,1.0115870237350464,-4.848766803741455,4.60507869720459,4.937002182006836,-0.09749512374401093,-3.055347204208374,0.31948402523994446,1.5481770038604736,-0.8854054808616638,-4.660428524017334
51,26542,26544,-0.008789402432739735,0.021123817190527916,0.9471455812454224,-7.9487433433532715,9.393184661865234,4.897932052612305,-0.113994300365448,-3.0658466815948486,0.3329833447933197,1.356284737586975,-0.930435299873352,-4.591121196746826
52,26552,26554,0.05401930958032608,0.024277064949274063,1.024919867515564,-11.709139823913574,11.612238883972168,1.8866509199142456,-0.09749512374401093,-3.055347204208374,0.3254837095737457,1.3107783794403076,-1.0336799621582031,-4.543146133422852
53,26562,26564,0.030527587980031967,0.06032554805278778,1.017963171005249,-11.792390823364258,8.353693962097168,2.1288979053497314,-0.10349482297897339,-3.05834698677063,0.33448326587677,1.225227952003479,-1.1007858514785767,-4.518625736236572
54,26572,26574,-0.10127439349889755,0.02798314206302166,1.0226048231124878,-7.921844005584717,2.757016658782959,-0.3252013027667999,-0.0944952741265297,-3.052347421646118,0.32848358154296875,1.1569174528121948,-1.2416306734085083,-4.507103443145752
55,26582,26584,-0.08124928921461105,-0.25909870862960815,1.0646469593048096,-3.222825050354004,2.417323112487793,-3.169839859008789,-0.10199490189552307,-3.0478475093841553,0.3209839463233948,1.158599615097046,-1.333544373512268,-4.510411262512207
56,26592,26594,0.017975544556975365,-0.13390040397644043,1.0051463842391968,5.0861711502075195,-3.732196092605591,-4.384209156036377,-0.11099445074796677,-3.0628468990325928,0.3239837884902954,1.0978354215621948,-1.2651987075805664,-4.549129962921143
57,26602,26604,-0.052609752863645554,0.02720666490495205,0.9629176259040833,14.597319602966309,-11.194001197814941,-5.818619251251221,-0.11099445074796677,-3.059846878051758,0.32698363065719604,1.2513070106506348,-1.208874225616455,-4.618622779846191
58,26612,26614,-0.336940199136734,0.033290501683950424,1.0000306367874146,18.271331787109375,-13.526090621948242,-6.118088722229004,-0.11099445074796677,-3.0448477268218994,0.3239837884902954,1.3322725296020508,-1.155531883239746,-4.654232978820801
59,26622,26624,-0.31328365206718445,-0.00996473990380764,0.9774365425109863,21.492406845092773,-13.258081436157227,-5.188008785247803,-0.11699414998292923,-3.0688464641571045,0.31798410415649414,1.4445356130599976,-0.959372878074646,-4.714568138122559
60,26632,26634,-0.0891849622130394,-0.010732430033385754,1.0264275074005127,17.0747127532959,-8.830686569213867,-2.5080935955047607,-0.10049497336149216,-3.052347421646118,0.33448326587677,1.6930440664291382,-0.7482092976570129,-4.787142276763916
61,26642,26644,0.018750835210084915,0.03423852100968361,0.9522330164909363,7.773686408996582,-1.4849876165390015,-0.526345431804657,-0.10199490189552307,-3.0688464641571045,0.3209839463233948,1.7394070625305176,-0.5909150838851929,-4.804987907409668
62,26652,26654,0.10430686175823212,0.006918033584952354,1.0797336101531982,-3.889826774597168,3.4351420402526855,1.7344824075698853,-0.10049497336149216,-3.0433478355407715,0.31948402523994446,1.874637484550476,-0.5021814107894897,-4.827663898468018
63,26662,26664,-0.027432763949036598,0.006477909162640572,1.0860710144042969,-15.700105667114258,9.041616439819336,4.2293171882629395,-0.11099445074796677,-3.050847291946411,0.32998350262641907,1.8350948095321655,-0.596627414226532,-4.795499801635742
64,26672,26674,-0.10245213657617569,-0.0939989909529686,0.963919460773468,-22.096351623535156,15.463784217834473,5.95150089263916,-0.10799460113048553,-3.053847312927246,0.3209839463233948,1.7848819494247437,-0.792061448097229,-4.745832920074463
65,26682,26684,-0.03140581026673317,-0.03231947124004364,0.9615954160690308,-21.19301986694336,14.404745101928711,7.6066484451293945,-0.10199490189552307,-3.050847291946411,0.32698363065719604,1.5765025615692139,-1.0629743337631226,-4.666374206542969
66,26692,26694,-0.7297840714454651,-0.23356328904628754,0.9582569003105164,-12.373637199401855,13.668535232543945,8.146785736083984,-0.11249437183141708,-3.049347400665283,0.31948402523994446,1.3492106199264526,-1.1704577207565308,-4.61942720413208
67,26702,26704,-0.3663732707500458,-0.15359292924404144,0.9242246747016907,-2.209230661392212,12.8762788772583,9.022655487060547,-0.08849557489156723,-3.0463476181030273,0.32848358154296875,1.2577341794967651,-1.163390874862671,-4.58696985244751
68,26712,26714,-0.016629308462142944,-0.07306793332099915,0.893979549407959,8.975066184997559,7.534936904907227,8.91470718383789,-0.1049947515130043,-3.056847095489502,0.3239837884902954,1.117695689201355,-1.205250859260559,-4.502918243408203
69,26722,26724,-0.17194239795207977,-0.12779021263122559,1.0047626495361328,14.253437995910645,6.676972389221191,7.823188304901123,-0.11999399960041046,-3.0658466815948486,0.3239837884902954,0.9922434091567993,-1.3677085638046265,-4.362950801849365
70,26732,26734,-0.05358012020587921,-0.0958607941865921,0.9754470586776733,15.585307121276855,8.42317008972168,6.720806121826172,-0.113994300365448,-3.0418479442596436,0.3119843900203705,1.0509963035583496,-1.2077014446258545,-4.307246208190918
71,26742,26744,0.030081462115049362,-0.09654050320386887,0.891610324382782,11.796281814575195,5.583738327026367,2.473741292953491,-0.09749512374401093,-3.0643467903137207,0.3254837095737457,1.2274600267410278,-0.9769500494003296,-4.294248580932617
72,26752,26754,-0.35039037466049194,-0.02209494262933731,0.9264242649078369,11.140382766723633,4.21260929107666,0.2493201494216919,-0.10649467259645462,-3.055347204208374,0.32848358154296875,1.104222059249878,-0.7798755168914795,-4.260551452636719
73,26762,26764,-0.2243846356868744,-0.17176716029644012,0.8934774398803711,13.7972412109375,6.752279758453369,-0.14043369889259338,-0.09749512374401093,-3.055347204208374,0.31948402523994446,1.014285683631897,-0.6686898469924927,-4.248946666717529
74,26772,26774,-0.14573246240615845,-0.13753168284893036,0.9136912226676941,12.400172233581543,8.911331176757812,-0.9161121845245361,-0.11699414998292923,-3.056847095489502,0.3239837884902954,1.0538283586502075,-0.48009636998176575,-4.277250289916992
75,26782,26784,-0.40647730231285095,-0.060731083154678345,0.9201017618179321,8.948934555053711,9.057701110839844,-1.160290002822876,-0.0944952741265297,-3.0613467693328857,0.3164841830730438,0.9058411121368408,-0.43592891097068787,-4.252587795257568
76,26792,26794,-0.3253090977668762,-0.025317292660474777,0.9473038911819458,5.328795433044434,14.343900680541992,0.017558012157678604,-0.10349482297897339,-3.0673465728759766,0.3044847846031189,0.689391553401947,-0.2994438111782074,-4.260189533233643
77,26802,26804,-0.1798280030488968,-0.09078400582075119,1.0460522174835205,-1.7514348030090332,19.890308380126953,0.4831843972206116,-0.09599519520998001,-3.0718462467193604,0.3029848337173462,0.4979230463504791,-0.40037617087364197,-4.231359958648682
78,26812,26814,-0.06382279843091965,-0.1244518831372261,0.9617584347724915,-8.512907981872559,22.256258010864258,0.21387365460395813,-0.08849557489156723,-3.0643467903137207,0.3134843111038208,0.2714664340019226,-0.5726775527000427,-4.194574356079102
79,26822,26824,-0.03175188601016998,0.05067754164338112,0.9928290247917175,-12.748374938964844,16.620635986328125,0.8455603122711182,-0.10649467259645462,-3.0643467903137207,0.29848507046699524,0.08165713399648666,-0.3399483263492584,-4.22848653793335
80,26832,26834,-0.03981826826930046,-0.023034391924738884,0.9575304388999939,-10.593663215637207,9.015042304992676,2.6665570735931396,-0.10049497336149216,-3.0733463764190674,0.3134843111038208,0.23852446675300598,-0.5210767984390259,-4.239647388458252
81,26842,26844,-0.09735231101512909,-0.07449036091566086,0.9583587050437927,-7.031254768371582,2.0993099212646484,3.837735414505005,-0.09899504482746124,-3.0628468990325928,0.30898454785346985,0.21003791689872742,-0.6910778880119324,-4.225131988525391
82,26852,26854,-0.08610785752534866,-0.12376061826944351,0.9938080906867981,-4.629860877990723,1.980454921722412,4.654472351074219,-0.10199490189552307,-3.0688464641571045,0.3119843900203705,0.14571338891983032,-0.7931581139564514,-4.182829856872559
83,26862,26864,0.013692204840481281,-0.02713836543262005,0.9348993301391602,-4.646921157836914,5.134708881378174,5.39853048324585,-0.10349482297897339,-3.0643467903137207,0.30748462677001953,0.1390964537858963,-0.7213179469108582,-4.151281356811523
84,26872,26874,-0.006462272722274065,0.06912806630134583,0.9770815968513489,-1.0017380714416504,10.665210723876953,5.105810165405273,-0.11249437183141708,-3.0673465728759766,0.29848507046699524,0.10457778722047806,-0.762925922870636,-4.1033101081848145
85,26882,26884,-0.08856198936700821,-0.06406821310520172,0.9736016392707825,0.12687374651432037,16.838457107543945,5.481821537017822,-0.10199490189552307,-3.0658466815948486,0.31798410415649414,-0.061218082904815674,-0.7714501619338989,-4.0528950691223145
86,26892,26894,-0.10823207348585129,0.03796454891562462,1.0303453207015991,-2.64335560798645,20.946210861206055,4.774141788482666,-0.11549422144889832,-3.0733463764190674,0.3134843111038208,-0.22113704681396484,-0.7808963656425476,-3.998185873031616
87,26902,26904,-0.20138850808143616,0.0006177801406010985,1.026167869567871,-1.809576153755188,21.525999069213867,3.555084705352783,-0.10199490189552307,-3.0688464641571045,0.3119843900203705,-0.4234285056591034,-0.7861826419830322,-3.9496827125549316
88,26912,26914,-0.3262546956539154,-0.14415991306304932,1.0027952194213867,-0.005337373353540897,14.676271438598633,3.67099666595459,-0.09899504482746124,-3.0688464641571045,0.3029848337173462,-0.41381922364234924,-0.799084484577179,-3.9364657402038574
89,26922,26924,-0.09835538268089294,-0.09368941187858582,0.9955071210861206,3.958787202835083,5.274348258972168,3.7347381114959717,-0.10349482297897339,-3.082345724105835,0.30748462677001953,-0.6586119532585144,-0.7717916369438171,-3.9015626907348633
90,26932,26934,-0.15304157137870789,0.027079515159130096,1.0230735540390015,1.9452261924743652,-5.331757068634033,2.473098039627075,-0.10799460113048553,-3.083845853805542,0.3119843900203705,-0.7056901454925537,-0.7730441689491272,-3.8678932189941406
91,26942,26944,-0.1364130973815918,0.027893735095858574,0.9986785054206848,-2.109227180480957,-12.76657772064209,-0.12605558335781097,-0.10649467259645462,-3.0703463554382324,0.3014849126338959,-0.663911759853363,-0.7414447665214539,-3.840538740158081
92,26952,26954,-0.2689269483089447,0.04184811934828758,1.047338604927063,-5.316168785095215,-15.936395645141602,-2.6745502948760986,-0.10049497336149216,-3.0643467903137207,0.30748462677001953,-0.4970947802066803,-0.6965270042419434,-3.830739974975586
93,26962,26964,-0.7245476841926575,0.005085485056042671,0.9999163150787354,-8.767874717712402,-16.862823486328125,-3.2220299243927,-0.11249437183141708,-3.0733463764190674,0.3164841830730438,-0.27624526619911194,-0.7812216281890869,-3.853517770767212
94,26972,26974,-0.6407548189163208,-0.07749579846858978,1.060650110244751,-4.8838958740234375,-13.207777976989746,-3.091064691543579,-0.09899504482746124,-3.053847312927246,0.3119843900203705,-0.13480819761753082,-0.8122341632843018,-3.872310161590576
95,26982,26984,-0.09697375446557999,0.02307039126753807,1.0578049421310425,4.502923011779785,3.7276177406311035,-3.015885829925537,-0.11699414998292923,-3.059846878051758,0.3059847056865692,-0.02974509447813034,-0.8501667380332947,-3.8868589401245117
96,26992,26994,-0.2619757652282715,-0.08943377435207367,0.9860257506370544,15.799202919006348,24.625686645507812,-3.5653929710388184,-0.11699414998292923,-3.0748462677001953,0.3239837884902954,-0.16048315167427063,-0.7499527931213379,-3.901198625564575
97,27002,27004,-0.31308767199516296,-0.033969007432460785,0.9968160390853882,22.873586654663086,38.622222900390625,-4.280477046966553,-0.11549422144889832,-3.0763461589813232,0.3164841830730438,-0.374825119972229,-0.6385364532470703,-3.9311141967773438
98,27012,27014,-0.0629768893122673,-0.025709832087159157,1.0226547718048096,23.506258010864258,45.96330642700195,-5.632572650909424,-0.1049947515130043,-3.0718462467193604,0.30898454785346985,-0.6100344657897949,-0.4925982356071472,-3.9835495948791504
99,27022,27024,-0.06951082497835159,-0.028309747576713562,1.0145689249038696,20.18226432800293,37.86192321777344,-6.735929012298584,-0.10049497336149216,-3.0673465728759766,0.31048446893692017,-1.2645567655563354,-0.1876976490020752,-4.017340660095215
100,27032,27034,-0.30330148339271545,-0.019438140094280243,0.9969037175178528,15.27989673614502,25.71477508544922,-5.52498722076416,-0.12449377030134201,-3.0673465728759766,0.3134843111038208,-1.3147544860839844,-0.14777736365795135,-4.126384735107422
101,27042,27044,-0.3031461238861084,0.04030724987387657,1.0577424764633179,10.14291000366211,10.644628524780273,-4.268355846405029,-0.113994300365448,-3.056847095489502,0.31798410415649414,-1.670790195465088,0.10855681449174881,-4.169510364532471
102,27052,27054,-0.4340159595012665,0.005841600708663464,1.0480999946594238,5.312864780426025,-4.468564510345459,-3.5154483318328857,-0.13649317622184753,-3.0613467693328857,0.3044847846031189,-1.720139503479004,0.21364520490169525,-4.225069522857666
103,27062,27064,-0.3197484314441681,-0.01599857583642006,0.9723752737045288,-1.760211706161499,-15.823301315307617,-3.930844783782959,-0.12449377030134201,-3.0763461589813232,0.3224838674068451,-1.68496835231781,0.22656859457492828,-4.274168014526367
104,27072,27074,-0.05984825640916824,-0.004472852218896151,1.0014554262161255,-9.457395553588867,-17.653398513793945,-4.368771076202393,-0.12599369883537292,-3.0688464641571045,0.3149842321872711,-1.5033023357391357,0.21145892143249512,-4.318910121917725
105,27082,27084,-0.005514507181942463,0.016761846840381622,1.0223946571350098,-16.221031188964844,-17.55263328552246,-4.046388149261475,-0.11699414998292923,-3.059846878051758,0.3119843900203705,-1.414556860923767,0.07269997894763947,-4.37783145904541
106,27092,27094,-0.0815405622124672,-0.0006040104781277478,0.9884161949157715,-18.05394172668457,-11.762223243713379,-3.4888365268707275,-0.10199490189552307,-3.077846050262451,0.3119843900203705,-1.342534065246582,-0.15513628721237183,-4.4407877922058105
107,27102,27104,-0.3365113139152527,-0.011257057078182697,1.0008509159088135,-13.036264419555664,-2.703939199447632,-4.376751899719238,-0.12449377030134201,-3.0643467903137207,0.3134843111038208,-1.1972934007644653,-0.32021644711494446,-4.472225189208984
108,27112,27114,-0.5090742111206055,-0.018285248428583145,1.0298614501953125,-4.627140522003174,3.635075569152832,-2.723801851272583,-0.11099445074796677,-3.056847095489502,0.3209839463233948,-1.1726831197738647,-0.33361926674842834,-4.483188629150391
109,27122,27124,-0.13309408724308014,0.0058953105472028255,0.9820349812507629,2.803577423095703,4.7926740646362305,-0.7435352802276611,-0.113994300365448,-3.053847312927246,0.32998350262641907,-1.2468847036361694,-0.38047900795936584,-4.5093841552734375
110,27132,27134,-0.030093593522906303,0.00300220912322402,0.9863444566726685,7.668585777282715,4.5685715675354,1.2797396183013916,-0.11549422144889832,-3.05834698677063,0.3224838674068451,-1.2696340084075928,-0.31653910875320435,-4.508350372314453
111,27142,27144,-0.09236021339893341,0.008017370477318764,1.011284351348877,8.719559669494629,4.539375305175781,2.2295775413513184,-0.11999399960041046,-3.056847095489502,0.31798410415649414,-1.3538081645965576,-0.18691669404506683,-4.489564418792725
112,27152,27154,-0.1471191942691803,0.008919206447899342,0.9965422749519348,9.38214111328125,5.342097282409668,2.463057041168213,-0.1229938492178917,-3.059846878051758,0.3119843900203705,-1.3096468448638916,-0.09760815650224686,-4.468939304351807
113,27162,27164,-0.8293397426605225,-0.0472823902964592,0.9519960880279541,8.590941429138184,5.733948707580566,4.4458489418029785,-0.12899354100227356,-3.0478475093841553,0.30898454785346985,-1.420697808265686,-0.015049624256789684,-4.447896957397461
114,27172,27174,-0.542006254196167,-0.012211793102324009,0.985506534576416,5.0263543128967285,3.425975799560547,6.6804986000061035,-0.1319933980703354,-3.059846878051758,0.31798410415649414,-1.5112972259521484,-0.026411375030875206,-4.438520908355713
115,27182,27184,-0.0813189446926117,0.06448251754045486,0.9966611862182617,3.2808148860931396,-2.313614845275879,6.947136402130127,-0.12899354100227356,-3.0688464641571045,0.3119843900203705,-1.5472412109375,0.07416749000549316,-4.367262840270996
116,27192,27194,-0.3227313458919525,-0.022268792614340782,0.988118588924408,1.4498088359832764,-11.160938262939453,7.6390275955200195,-0.12449377030134201,-3.0703463554382324,0.29848507046699524,-1.4946880340576172,0.14131416380405426,-4.288845062255859
117,27202,27204,-0.5239792466163635,0.06524588167667389,1.102105736732483,-4.726801872253418,-13.767866134643555,7.866805553436279,-0.1334933191537857,-3.0643467903137207,0.31048446893692017,-1.4231679439544678,0.07961301505565643,-4.235476016998291
118,27212,27214,-0.24296998977661133,0.011488311924040318,0.9976974129676819,-9.413421630859375,-11.73770809173584,7.675996780395508,-0.11099445074796677,-3.0628468990325928,0.3239837884902954,-1.2750335931777954,0.0015570672694593668,-4.172264099121094
119,27222,27224,-0.08235275000333786,-0.06109541282057762,0.9765994548797607,-14.587685585021973,-9.874236106872559,7.334846496582031,-0.1229938492178917,-3.056847095489502,0.30898454785346985,-1.1452767848968506,-0.13755814731121063,-4.104779243469238
120,27232,27234,0.007828365080058575,-0.051729846745729446,0.999637246131897,-18.467647552490234,-3.0905961990356445,8.063207626342773,-0.113994300365448,-3.053847312927246,0.30898454785346985,-1.027868390083313,-0.27195385098457336,-4.029023170471191
121,27242,27244,-0.17800147831439972,-0.09799790382385254,1.0751363039016724,-16.816574096679688,8.784994125366211,8.868108749389648,-0.11099445074796677,-3.059846878051758,0.30898454785346985,-1.0370090007781982,-0.3936214745044708,-3.932741165161133
122,27252,27254,-0.2795657217502594,-0.09138423204421997,1.122056245803833,-14.33939266204834,17.75162696838379,7.518211364746094,-0.11699414998292923,-3.0658466815948486,0.29998499155044556,-1.1543675661087036,-0.5029741525650024,-3.832423210144043
123,27262,27264,-0.4668365716934204,-0.006497191730886698,0.9664278030395508,-9.631269454956055,20.138105392456055,6.371458530426025,-0.113994300365448,-3.053847312927246,0.31798410415649414,-1.4062858819961548,-0.6302554607391357,-3.7504780292510986
124,27272,27274,-0.23053249716758728,0.08437766134738922,0.9406929612159729,-2.3324546813964844,16.494260787963867,4.2528557777404785,-0.1229938492178917,-3.0448477268218994,0.3209839463233948,-1.48148775100708,-0.6723724007606506,-3.6617956161499023
125,27282,27284,-0.153059720993042,-0.004002767615020275,1.008556604385376,5.6416754722595215,5.803289413452148,3.445927381515503,-0.13049347698688507,-3.05834698677063,0.31048446893692017,-1.671265959739685,-0.6091912984848022,-3.593337059020996
126,27292,27294,-0.16563628613948822,-0.04078759625554085,0.9915385842323303,12.166312217712402,-5.585253715515137,3.9740171432495117,-0.12149392068386078,-3.0643467903137207,0.3164841830730438,-1.6834863424301147,-0.5760843753814697,-3.559389591217041
127,27302,27304,-0.07342714071273804,0.06928358227014542,0.8928543329238892,10.665759086608887,-14.612363815307617,5.6299943923950195,-0.12899354100227356,-3.056847095489502,0.30898454785346985,-1.5577176809310913,-0.5974588990211487,-3.552490234375
128,27312,27314,-0.053756073117256165,0.07495433837175369,0.9963945746421814,4.437779426574707,-24.45138931274414,5.244850158691406,-0.12899354100227356,-3.0658466815948486,0.31798410415649414,-1.319804072380066,-0.4901962876319885,-3.4979653358459473
129,27322,27324,0.0009749419987201691,-0.016919054090976715,1.1040453910827637,-0.0007732844678685069,-32.522491455078125,4.2653045654296875,-0.10649467259645462,-3.0673465728759766,0.3014849126338959,-1.2703406810760498,-0.5523930191993713,-3.4796254634857178
130,27332,27334,-0.09254487603902817,-0.07440373301506042,1.007940411567688,-1.1139847040176392,-34.12180709838867,0.8518959879875183,-0.10199490189552307,-3.059846878051758,0.3119843900203705,-0.873462438583374,-0.5312857627868652,-3.4262187480926514
131,27342,27344,-0.07276952266693115,-0.06408093869686127,1.0038427114486694,0.312974750995636,-33.11128616333008,-2.1162309646606445,-0.11849407106637955,-3.0673465728759766,0.31948402523994446,-0.46197715401649475,-0.5011084079742432,-3.3901376724243164
132,27352,27354,-0.09104222059249878,0.0707145556807518,0.9857812523841858,4.464886665344238,-24.914566040039062,-2.416842222213745,-0.10949452221393585,-3.0733463764190674,0.31048446893692017,-0.3962213397026062,-0.5153076648712158,-3.4060184955596924
133,27362,27364,-0.2064117044210434,-0.15805555880069733,0.963186502456665,10.618846893310547,-10.23477840423584,-4.149840354919434,-0.11549422144889832,-3.0613467693328857,0.30748462677001953,-0.16535340249538422,-0.4064974784851074,-3.413548231124878
134,27372,27374,-0.12923195958137512,-0.11599656194448471,1.0312137603759766,12.240379333496094,2.3795931339263916,-5.249087333679199,-0.11699414998292923,-3.053847312927246,0.3059847056865692,0.020372265949845314,-0.21962015330791473,-3.42618727684021
135,27382,27384,-0.2935539186000824,0.03163604065775871,0.9699277877807617,21.014297485351562,11.128377914428711,-6.298930644989014,-0.1229938492178917,-3.059846878051758,0.3329833447933197,-0.16285449266433716,-0.0956633910536766,-3.4806466102600098
136,27392,27394,-0.4852024018764496,-0.10623994469642639,1.0222562551498413,28.475561141967773,14.630188941955566,-8.635459899902344,-0.11099445074796677,-3.0628468990325928,0.31798410415649414,-0.29945656657218933,0.1297329068183899,-3.531836986541748
137,27402,27404,-0.2451336830854416,-0.18027250468730927,0.9180203080177307,30.033496856689453,11.223581314086914,-9.837959289550781,-0.12149392068386078,-3.0733463764190674,0.30748462677001953,-0.24156278371810913,0.30774182081222534,-3.62038254737854
138,27412,27414,-0.11380507051944733,-0.05773575231432915,0.9561861157417297,24.50277328491211,3.8850107192993164,-10.664816856384277,-0.113994300365448,-3.0718462467193604,0.3029848337173462,-0.38266822695732117,0.6560729146003723,-3.706155300140381
139,27422,27424,-0.029271868988871574,-0.014415671117603779,0.9779327511787415,14.341763496398926,-0.9787818789482117,-9.697035789489746,-0.11249437183141708,-3.0703463554382324,0.3134843111038208,-0.4816596210002899,0.832788348197937,-3.825984477996826
140,27432,27434,-0.11105494201183319,-0.054350852966308594,1.018536925315857,3.4439353942871094,-5.698934555053711,-9.705592155456543,-0.1229938492178917,-3.0718462467193604,0.30898454785346985,-0.42093178629875183,0.9993675947189331,-3.927290201187134
141,27442,27444,-0.08265753090381622,-0.12159797549247742,0.9765363931655884,-7.170111179351807,-8.409968376159668,-8.655959129333496,-0.11099445074796677,-3.0718462467193604,0.31798410415649414,-0.29473379254341125,1.0120346546173096,-4.035279750823975
142,27452,27454,-0.1251695603132248,-0.03876921534538269,0.9392170906066895,-16.75555419921875,-10.363476753234863,-7.612485885620117,-0.10949452221393585,-3.049347400665283,0.29848507046699524,-0.2934393584728241,0.9237030148506165,-4.138749599456787
143,27462,27464,-0.3023115396499634,0.10650951415300369,0.9700027704238892,-25.13616943359375,-12.789758682250977,-6.6163434982299805,-0.11549422144889832,-3.0643467903137207,0.3044847846031189,-0.09165386110544205,0.7447100877761841,-4.215588092803955
144,27472,27474,-0.3888469934463501,0.05047854408621788,1.00062096118927,-26.92369842529297,-15.635645866394043,-8.207512855529785,-0.10349482297897339,-3.0703463554382324,0.3134843111038208,0.018793810158967972,0.5824184417724609,-4.282859802246094
145,27482,27484,-0.39417386054992676,-0.025546766817569733,0.910327672958374,-23.568458557128906,-18.56204605102539,-8.343341827392578,-0.08849557489156723,-3.0643467903137207,0.3014849126338959,0.17094212770462036,0.13304689526557922,-4.375829696655273
146,27492,27494,-0.14331234991550446,0.10525386780500412,1.0158791542053223,-15.311331748962402,-17.149885177612305,-8.728663444519043,-0.10349482297897339,-3.0643467903137207,0.29848507046699524,0.305178165435791,0.03124607913196087,-4.453735828399658
147,27502,27504,-0.21112746000289917,0.01624349318444729,1.1489907503128052,-6.033127307891846,-14.321765899658203,-10.92406940460205,-0.10199490189552307,-3.0718462467193604,0.30898454785346985,0.5337151885032654,-0.18650108575820923,-4.535233020782471
148,27512,27514,-0.09292962402105331,-0.037634413689374924,1.0349098443984985,8.366392135620117,-14.195962905883789,-12.60949420928955,-0.11249437183141708,-3.0703463554382324,0.31048446893692017,0.6500824689865112,-0.23329660296440125,-4.630001544952393
149,27522,27524,-0.08800691366195679,-0.014338154345750809,1.0148906707763672,23.31591033935547,-13.0263090133667,-12.94868278503418,-0.09599519520998001,-3.059846878051758,0.3059847056865692,0.8847491145133972,-0.05174197629094124,-4.738956928253174
150,27532,27534,-0.1673305332660675,0.017985980957746506,0.8850180506706238,36.85248947143555,-7.25100564956665,-12.702287673950195,-0.10649467259645462,-3.0763461589813232,0.3014849126338959,1.035037875175476,0.3382296860218048,-4.878091812133789
151,27542,27544,-0.3764309287071228,-0.015722190961241722,0.9869545698165894,47.295780181884766,4.619309902191162,-11.931352615356445,-0.11249437183141708,-3.0763461589813232,0.3044847846031189,1.145975112915039,0.39193248748779297,-4.990082740783691
152,27552,27554,-0.1835542917251587,-0.04547806456685066,1.0003269910812378,48.485267639160156,16.815176010131836,-12.659067153930664,-0.113994300365448,-3.0748462677001953,0.3059847056865692,1.0631026029586792,0.9462478160858154,-5.128844261169434
153,27562,27564,-0.07204517722129822,-0.012482400983572006,0.9827262163162231,40.54493713378906,22.272058486938477,-12.767141342163086,-0.10199490189552307,-3.0718462467193604,0.3029848337173462,0.8838981986045837,1.3552740812301636,-5.246042251586914
154,27572,27574,-0.07845118641853333,0.03791866824030876,0.9971867203712463,27.104801177978516,21.6937313079834,-12.335004806518555,-0.10799460113048553,-3.077846050262451,0.3059847056865692,0.833801805973053,1.6476495265960693,-5.332388877868652
155,27582,27584,-0.0354742668569088,0.032401178032159805,0.9548972249031067,10.49803352355957,17.822851181030273,-10.727133750915527,-0.1049947515130043,-3.086845636367798,0.30898454785346985,0.4979589283466339,1.9986611604690552,-5.47078275680542
156,27592,27594,-0.03544960170984268,0.12215901911258698,0.9466432332992554,-7.193938255310059,13.302348136901855,-7.650766849517822,-0.09899504482746124,-3.0898454189300537,0.29998499155044556,0.3582618832588196,2.160365581512451,-5.5639214515686035
157,27602,27604,-0.04115625098347664,0.12027361989021301,1.0274782180786133,-24.47295379638672,12.139966011047363,-6.013134002685547,-0.10349482297897339,-3.082345724105835,0.29848507046699524,0.12765778601169586,2.0525546073913574,-5.644589424133301
158,27612,27614,-0.024763476103544235,-0.08101335912942886,1.1324200630187988,-35.72456359863281,11.654163360595703,-5.73693323135376,-0.09899504482746124,-3.0898454189300537,0.29098543524742126,0.07188935577869415,1.7338253259658813,-5.6689133644104
159,27622,27624,-0.12276803702116013,-0.1815672218799591,1.0502277612686157,-38.57685852050781,0.46520811319351196,-5.110888481140137,-0.11099445074796677,-3.0748462677001953,0.3029848337173462,-0.047392118722200394,1.4680650234222412,-5.7363739013671875
160,27632,27634,-0.20889140665531158,-0.03038632683455944,1.0099579095840454,-33.587745666503906,-8.247876167297363,-3.777338981628418,-0.11099445074796677,-3.0748462677001953,0.3029848337173462,-0.0754317045211792,1.050201177597046,-5.770365238189697
161,27642,27644,-0.08563949912786484,-0.01954249106347561,1.0342200994491577,-21.81075668334961,-9.131309509277344,-3.1804373264312744,-0.11099445074796677,-3.0748462677001953,0.3029848337173462,-0.007447929121553898,0.914610743522644,-5.826634407043457
162,27652,27654,-0.9048059582710266,-0.29666998982429504,1.0434632301330566,-10.63601016998291,-7.14254093170166,-1.2295981645584106,-0.11099445074796677,-3.0748462677001953,0.3029848337173462,0.001795222400687635,0.5742079019546509,-5.886146545410156
163,27662,27664,-0.46334946155548096,-0.15235339105129242,1.0613107681274414,-3.116952896118164,-2.380885362625122,1.551490306854248,-0.10949452221393585,-3.0613467693328857,0.3134843111038208,0.03430581092834473,0.47980865836143494,-5.922460079193115
164,27672,27674,-0.10318043828010559,-0.05137213319540024,1.001581072807312,3.8526296615600586,1.1610779762268066,3.6720168590545654,-0.12449377030134201,-3.0703463554382324,0.30748462677001953,0.02019546553492546,0.4399358630180359,-5.931458950042725
165,27682,27684,-0.4512174427509308,-0.020609475672245026,0.9769776463508606,7.495802402496338,1.7134826183319092,4.3008198738098145,-0.11249437183141708,-3.0613467693328857,0.30748462677001953,0.04566681385040283,0.6385754942893982,-5.9194793701171875
166,27692,27694,-0.20788612961769104,0.19080835580825806,0.9748749732971191,9.06033706665039,2.7076363563537598,3.736353874206543,-0.11549422144889832,-3.0763461589813232,0.30748462677001953,-0.04558052867650986,0.6781336665153503,-5.895230770111084
167,27702,27704,-0.06709939986467361,0.018367690965533257,1.0859302282333374,4.320742130279541,4.067676067352295,1.8637418746948242,-0.11549422144889832,-3.0613467693328857,0.29848507046699524,-0.06955525279045105,0.7810655832290649,-5.855772972106934
168,27712,27714,-0.04267353191971779,-0.06447266787290573,0.9866998195648193,-1.3671320676803589,-0.6149683594703674,0.7088533043861389,-0.09599519520998001,-3.083845853805542,0.29098543524742126,-0.0991353839635849,0.8139022588729858,-5.824427127838135
169,27722,27724,-0.22269685566425323,-0.003291561733931303,0.9213274717330933,-11.12559986114502,-2.0401763916015625,0.37597814202308655,-0.10949452221393585,-3.082345724105835,0.31048446893692017,-0.08026823401451111,0.6695433855056763,-5.790585994720459
170,27732,27734,-0.4263482093811035,-0.03832552209496498,1.0235440731048584,-18.955171585083008,-3.3358895778656006,0.9927665591239929,-0.10949452221393585,-3.0673465728759766,0.3014849126338959,-0.01416407898068428,0.5944348573684692,-5.77997350692749
171,27742,27744,-0.10870055109262466,-0.0035345342475920916,0.9624878168106079,-19.031070709228516,-1.2292107343673706,2.260115146636963,-0.09899504482746124,-3.0688464641571045,0.3119843900203705,0.05208064243197441,0.589307427406311,-5.786960124969482
172,27752,27754,0.08359378576278687,-0.01940559223294258,1.0263843536376953,-11.844008445739746,-1.0471915006637573,3.0284197330474854,-0.09599519520998001,-3.0628468990325928,0.3149842321872711,0.07083861529827118,0.3154255747795105,-5.759957313537598
173,27762,27764,-0.015364604070782661,-0.004265910014510155,1.113205075263977,1.7320187091827393,-6.957864284515381,5.51840877532959,-0.09899504482746124,-3.083845853805542,0.29998499155044556,0.03907361254096031,0.22238266468048096,-5.745727062225342
174,27772,27774,-0.05015934631228447,-0.11443913727998734,1.0545732975006104,13.87797737121582,-9.993850708007812,8.547152519226074,-0.113994300365448,-3.077846050262451,0.3059847056865692,0.1675877869129181,0.24595434963703156,-5.6870036125183105
175,27782,27784,-0.14526553452014923,-0.0373578779399395,0.9865646958351135,20.29701042175293,-8.648929595947266,10.989151954650879,-0.11999399960041046,-3.0718462467193604,0.2969851493835449,0.23254317045211792,0.4476753771305084,-5.6179304122924805
176,27792,27794,-0.13294130563735962,0.08734729886054993,0.9713147282600403,15.981107711791992,-6.177601337432861,14.6415376663208,-0.11099445074796677,-3.0748462677001953,0.2939853072166443,0.24519972503185272,0.7121838331222534,-5.536855220794678
177,27802,27804,-0.3284839391708374,-0.05908624827861786,0.9793448448181152,4.285360813140869,2.0690178871154785,17.301923751831055,-0.11099445074796677,-3.0628468990325928,0.3119843900203705,0.3663090467453003,0.7503398656845093,-5.392287254333496
178,27812,27814,-0.5875062346458435,-0.09871550649404526,0.9677520990371704,-9.874397277832031,10.635697364807129,18.256338119506836,-0.10049497336149216,-3.0763461589813232,0.29848507046699524,0.3404625654220581,0.8288689851760864,-5.234410285949707
179,27822,27824,-0.18301193416118622,0.14548581838607788,0.9659144878387451,-24.618013381958008,13.049407958984375,18.243165969848633,-0.11249437183141708,-3.0763461589813232,0.29848507046699524,0.18264153599739075,0.6850380301475525,-5.054835319519043
180,27832,27834,0.024962900206446648,0.06587481498718262,1.0287717580795288,-37.61830139160156,11.829635620117188,16.297672271728516,-0.10349482297897339,-3.0763461589813232,0.2954852283000946,-0.018112685531377792,0.43864312767982483,-4.875699520111084
181,27842,27844,-0.12109129130840302,-0.0017646339256316423,1.0598585605621338,-35.225582122802734,4.4736738204956055,14.380038261413574,-0.10949452221393585,-3.0913453102111816,0.3044847846031189,-0.022194357588887215,0.2554584741592407,-4.705047607421875
182,27852,27854,-0.3008579611778259,-0.1824604719877243,1.0480502843856812,-27.1959171295166,-5.852606773376465,12.218962669372559,-0.09749512374401093,-3.0763461589813232,0.30748462677001953,-0.10485588014125824,-0.18021529912948608,-4.55076265335083
183,27862,27864,-0.06309444457292557,-0.06930062919855118,1.0642716884613037,-16.571989059448242,-12.676115036010742,12.22632884979248,-0.09599519520998001,-3.0688464641571045,0.3029848337173462,-0.003397768596187234,-0.4104423224925995,-4.418868541717529
184,27872,27874,0.045423779636621475,0.01603284291923046,1.0424281358718872,-5.30127477645874,-11.684103012084961,11.411831855773926,-0.10649467259645462,-3.0673465728759766,0.31048446893692017,0.10718663781881332,-0.6790755391120911,-4.2911481857299805
185,27882,27884,-0.06616044789552689,0.012904448434710503,0.9894891977310181,1.68010675907135,-10.533223152160645,12.687768936157227,-0.11099445074796677,-3.0748462677001953,0.30898454785346985,0.28510743379592896,-0.791924774646759,-4.1769514083862305
186,27892,27894,-0.12071080505847931,-0.10985120385885239,1.0263997316360474,4.005621433258057,-10.112953186035156,14.77568244934082,-0.10349482297897339,-3.055347204208374,0.31948402523994446,0.26979467272758484,-0.6605544090270996,-4.065181732177734
187,27902,27904,-0.0912151038646698,-0.05683266744017601,0.9779868721961975,5.357976913452148,-6.465704441070557,17.616901397705078,-0.11099445074796677,-3.0718462467193604,0.30898454785346985,0.43321114778518677,-0.4929361641407013,-3.933215379714966
188,27912,27914,-0.1027817502617836,-0.04975306987762451,0.9482358694076538,2.009216547012329,-0.3355639576911926,19.404003143310547,-0.10949452221393585,-3.0733463764190674,0.3044847846031189,0.5067627429962158,-0.5234655737876892,-3.7527546882629395
189,27922,27924,-0.010040328837931156,-0.03172115236520767,0.9009960889816284,-8.226378440856934,2.0700507164001465,21.021146774291992,-0.08999549597501755,-3.059846878051758,0.30898454785346985,0.4850129783153534,-0.5783585906028748,-3.563603401184082
190,27932,27934,-0.03271296247839928,-0.06156919151544571,1.0023375749588013,-19.135639190673828,5.516119480133057,21.602863311767578,-0.09899504482746124,-3.053847312927246,0.3149842321872711,0.38409551978111267,-0.5725499391555786,-3.3624491691589355
191,27942,27944,-0.23351822793483734,-0.17351014912128448,1.0356217622756958,-26.513090133666992,8.961565017700195,21.221567153930664,-0.09749512374401093,-3.0733463764190674,0.29848507046699524,0.31611302495002747,-0.8027917742729187,-3.14286732673645
192,27952,27954,-0.3448649048805237,-0.24265487492084503,1.1122163534164429,-27.91754913330078,11.767682075500488,20.305946350097656,-0.0944952741265297,-3.0673465728759766,0.3014849126338959,0.1987142264842987,-1.0275856256484985,-2.9263291358947754
193,27962,27964,-0.22971831262111664,-0.07617032527923584,1.044838786125183,-20.325414657592773,12.446210861206055,20.141006469726562,-0.10799460113048553,-3.0718462467193604,0.31798410415649414,0.07335644215345383,-1.2568209171295166,-2.7261743545532227
194,27972,27974,0.011789167299866676,0.12283632904291153,1.099185824394226,-9.298837661743164,11.209314346313477,18.57931137084961,-0.09599519520998001,-3.0628468990325928,0.3119843900203705,-0.13952650129795074,-1.441828727722168,-2.518842935562134
195,27982,27984,-0.12475515156984329,0.2569047510623932,1.0752918720245361,1.7901891469955444,1.6466529369354248,17.69914436340332,-0.09299534559249878,-3.0688464641571045,0.3149842321872711,-0.27816128730773926,-1.604447603225708,-2.3379769325256348
196,27992,27994,-0.2704974412918091,0.22109496593475342,1.0392359495162964,8.850522994995117,-5.866585731506348,17.986785888671875,-0.1049947515130043,-3.056847095489502,0.3209839463233948,-0.27659890055656433,-1.5990508794784546,-2.168004035949707
197,28002,28004,-0.8924559950828552,-0.008474928326904774,1.0403767824172974,8.630656242370605,-6.53834342956543,20.779638290405273,-0.09749512374401093,-3.0673465728759766,0.3164841830730438,-0.1552625298500061,-1.4943844079971313,-2.0063345432281494
198,28012,28014,-0.5069940686225891,0.048526421189308167,1.0302892923355103,0.5512259006500244,-1.5516160726547241,19.86553382873535,-0.10649467259645462,-3.0733463764190674,0.3254837095737457,-0.18772445619106293,-1.4191834926605225,-1.7901568412780762
199,28022,28024,-0.17073465883731842,-0.08094162493944168,1.028052568435669,-6.670598983764648,8.94839859008789,17.303939819335938,-0.09899504482746124,-3.053847312927246,0.3149842321872711,-0.1568034589290619,-1.439074993133545,-1.580491542816162
200,28032,28034,-0.043577224016189575,-0.12487692385911942,1.0829585790634155,-9.194806098937988,17.021486282348633,13.891162872314453,-0.10349482297897339,-3.052347421646118,0.29848507046699524,-0.1352977156639099,-1.553036093711853,-1.4094915390014648
201,28042,28044,0.013429977931082249,0.040855199098587036,1.0792561769485474,-5.181944847106934,14.461732864379883,12.48285961151123,-0.0944952741265297,-3.052347421646118,0.31948402523994446,-0.3008452355861664,-1.6844196319580078,-1.2637628316879272
202,28052,28054,-0.1295006424188614,0.11044259369373322,1.0215389728546143,1.4454151391983032,5.721415042877197,9.701459884643555,-0.10199490189552307,-3.0478475093841553,0.31798410415649414,-0.36792904138565063,-1.753352165222168,-1.1563588380813599
203,28062,28064,-0.18692909181118011,0.17330129444599152,1.1222572326660156,14.658594131469727,-4.75908088684082,6.065766334533691,-0.1049947515130043,-3.0448477268218994,0.32698363065719604,-0.43395835161209106,-1.6927818059921265,-1.0521202087402344
204,28072,28074,-0.092967689037323,0.21807102859020233,1.153959035873413,26.368072509765625,-16.87098503112793,4.648207664489746,-0.1049947515130043,-3.053847312927246,0.3329833447933197,-0.3327347934246063,-1.5194240808486938,-1.001106858253479
205,28082,28084,-0.8171505928039551,0.2137909084558487,1.0193032026290894,34.64581298828125,-23.409868240356445,3.9724690914154053,-0.10799460113048553,-3.056847095489502,0.30898454785346985,-0.2059502899646759,-1.381453275680542,-0.947100043296814
206,28092,28094,-0.5685490965843201,0.24459584057331085,0.9768339395523071,34.3525505065918,-22.34282684326172,2.424293279647827,-0.11249437183141708,-3.0643467903137207,0.3224838674068451,0.02808459848165512,-0.9831435680389404,-0.8985921144485474
207,28102,28104,-0.16534563899040222,0.15575970709323883,1.0391427278518677,25.788442611694336,-15.238765716552734,1.2272952795028687,-0.10949452221393585,-3.0643467903137207,0.31048446893692017,0.17827357351779938,-0.6732093691825867,-0.8445866703987122
208,28112,28114,-0.16102057695388794,0.17343366146087646,1.0534833669662476,13.789828300476074,-5.824955940246582,0.3655785620212555,-0.09599519520998001,-3.056847095489502,0.30898454785346985,0.4906867444515228,-0.34729817509651184,-0.8599676489830017
209,28122,28124,-0.14523279666900635,-0.09306509792804718,1.0229321718215942,-0.8411375284194946,5.499908447265625,-2.710428476333618,-0.0944952741265297,-3.055347204208374,0.3134843111038208,0.49489450454711914,-0.2913624048233032,-0.8317224979400635
210,28132,28134,-0.17990227043628693,-0.0545620359480381,0.9629954695701599,-7.808239459991455,12.417567253112793,-5.537447452545166,-0.10049497336149216,-3.0463476181030273,0.3224838674068451,0.4672699272632599,-0.4252959191799164,-0.8492515087127686
211,28142,28144,-0.10017917305231094,-0.16977187991142273,1.0196948051452637,-5.515649318695068,14.273331642150879,-7.026094436645508,-0.10199490189552307,-3.0658466815948486,0.3149842321872711,0.25978532433509827,-0.43261420726776123,-0.8780360817909241
212,28152,28154,-0.6841906309127808,-0.03257905691862106,0.9082679152488708,0.2304059863090515,11.257301330566406,-7.332749366760254,-0.10349482297897339,-3.05834698677063,0.3254837095737457,0.1666521579027176,-0.4919483959674835,-0.958335280418396
213,28162,28164,-0.6235866546630859,0.005332103464752436,0.9151445627212524,7.16278076171875,3.1557254791259766,-7.437697887420654,-0.09899504482746124,-3.0388479232788086,0.31798410415649414,0.004966472741216421,-0.5279840230941772,-1.0175164937973022
214,28172,28174,-0.5180068612098694,0.003703069407492876,0.9979194402694702,8.165061950683594,-5.055201530456543,-6.930826663970947,-0.10949452221393585,-3.0733463764190674,0.31948402523994446,0.05986493080854416,-0.5487262606620789,-1.1115573644638062
215,28182,28184,-0.7252256274223328,-0.016863297671079636,0.9455873370170593,6.8336687088012695,-8.451713562011719,-6.365599155426025,-0.11099445074796677,-3.0718462467193604,0.31798410415649414,0.08321397006511688,-0.5420353412628174,-1.1706836223602295
216,28192,28194,-0.3332383334636688,-0.04850170388817787,0.8945077657699585,5.541164398193359,-5.496413707733154,-6.898839950561523,-0.0944952741265297,-3.0463476181030273,0.3224838674068451,0.1355041265487671,-0.4650321304798126,-1.230370283126831
217,28202,28204,-0.040130164474248886,-0.008282647468149662,0.9621880650520325,3.9876773357391357,0.8347160220146179,-6.553340435028076,-0.09149542450904846,-3.05834698677063,0.30748462677001953,0.22109323740005493,-0.415139764547348,-1.292999029159546
218,28212,28214,-0.043339475989341736,0.021481448784470558,0.9529892206192017,-1.1808488368988037,5.311191082000732,-5.493707180023193,-0.10799460113048553,-3.059846878051758,0.29998499155044556,0.2165631502866745,-0.4086458086967468,-1.3562904596328735
219,28222,28224,-0.17204073071479797,-0.11953221261501312,0.938256025314331,-4.5554585456848145,8.706825256347656,-4.544853687286377,-0.11249437183141708,-3.0673465728759766,0.3164841830730438,0.20336489379405975,-0.38001397252082825,-1.418121337890625
220,28232,28234,-0.08890628814697266,0.03632371872663498,0.9875082969665527,-4.696422576904297,16.662572860717773,-5.262007713317871,-0.09749512374401093,-3.05834698677063,0.3134843111038208,0.03979221358895302,-0.5430461764335632,-1.4452159404754639
221,28242,28244,0.010284660384058952,0.05282733216881752,0.9047903418540955,-3.503750801086426,19.776430130004883,-5.561450004577637,-0.10949452221393585,-3.052347421646118,0.32848358154296875,-0.08225519955158234,-0.5062041282653809,-1.5023823976516724
222,28252,28254,-0.3366718590259552,-0.23087717592716217,0.9821817874908447,1.671465516090393,15.65280818939209,-4.858433723449707,-0.10049497336149216,-3.0613467693328857,0.3044847846031189,-0.25018659234046936,-0.5045565366744995,-1.563463807106018
223,28262,28264,-0.23167316615581512,-0.2046351283788681,1.0182641744613647,5.280019760131836,7.054880619049072,-3.533682107925415,-0.09599519520998001,-3.0718462467193604,0.3149842321872711,-0.4896649718284607,-0.4979793429374695,-1.6124438047409058
224,28272,28274,-0.1291278749704361,0.1444510668516159,0.9884280562400818,7.363917827606201,-3.3348114490509033,-2.8641958236694336,-0.10949452221393585,-3.0643467903137207,0.3044847846031189,-0.5906426906585693,-0.4347810447216034,-1.6574780941009521
225,28282,28284,-0.48228317499160767,0.001154638477601111,0.9619196057319641,8.145085334777832,-13.187533378601074,-3.365525722503662,-0.10349482297897339,-3.079345941543579,0.3164841830730438,-0.5137847065925598,-0.3410199284553528,-1.692307710647583
226,28292,28294,-0.2255670428276062,0.01123359240591526,1.0561329126358032,5.664987564086914,-17.36821937561035,-5.564398765563965,-0.10049497336149216,-3.0733463764190674,0.3044847846031189,-0.30033499002456665,-0.25664493441581726,-1.7321734428405762
227,28302,28304,-0.07180386036634445,-0.14893916249275208,1.0424799919128418,4.7653584480285645,-14.637554168701172,-8.349344253540039,-0.09749512374401093,-3.088345527648926,0.31048446893692017,-0.12359283864498138,-0.19716747105121613,-1.7680977582931519
228,28312,28314,-0.286584734916687,0.06109749898314476,0.9803695678710938,6.574649810791016,-8.147196769714355,-8.691716194152832,-0.08999549597501755,-3.0748462677001953,0.2939853072166443,-0.0020339975599199533,-0.1397508829832077,-1.8415173292160034
229,28322,28324,-0.17865777015686035,0.07588216662406921,1.0989233255386353,9.410444259643555,-5.252127647399902,-7.725618839263916,-0.08699564635753632,-3.080845832824707,0.3029848337173462,0.0606909841299057,-0.13174229860305786,-1.927467703819275
230,28332,28334,-0.43033745884895325,0.07511935383081436,1.0254199504852295,13.414789199829102,1.6578359603881836,-5.852757930755615,-0.0944952741265297,-3.0763461589813232,0.29848507046699524,0.15429136157035828,0.00999643374234438,-2.0138092041015625
231,28342,28344,-0.40855032205581665,0.05617053434252739,1.0696436166763306,11.560937881469727,8.541193962097168,-4.540848255157471,-0.08699564635753632,-3.0748462677001953,0.29998499155044556,0.1174321398139,0.11655410379171371,-2.074904680252075
232,28352,28354,-0.1436460018157959,0.1463926136493683,1.0523107051849365,0.598700761795044,16.641754150390625,-3.5582211017608643,-0.09599519520998001,-3.0748462677001953,0.29998499155044556,-0.031055673956871033,0.16606487333774567,-2.119324207305908
233,28362,28364,-0.3675781786441803,-0.14576783776283264,1.1072527170181274,-12.803403854370117,18.9477596282959,-2.5876858234405518,-0.085495725274086,-3.0643467903137207,0.3134843111038208,-0.2007007598876953,0.03427021950483322,-2.148146152496338
234,28372,28374,-0.21310949325561523,-0.10521705448627472,1.010029673576355,-18.242477416992188,18.204851150512695,-1.7446056604385376,-0.10349482297897339,-3.0703463554382324,0.31048446893692017,-0.3476647138595581,-0.019939133897423744,-2.175818681716919
235,28382,28384,-0.1484273225069046,0.011991668492555618,1.0291357040405273,-14.092982292175293,13.687603950500488,-3.928640127182007,-0.09899504482746124,-3.059846878051758,0.3029848337173462,-0.6296247839927673,-0.06566435843706131,-2.1892600059509277
236,28392,28394,-0.8901460766792297,0.09729568660259247,1.014908790588379,-7.050366401672363,3.3917603492736816,-5.777995586395264,-0.10649467259645462,-3.0703463554382324,0.3014849126338959,-0.6579946875572205,-0.16886164247989655,-2.2222390174865723
237,28402,28404,-0.2533205449581146,0.0354839488863945,1.0480785369873047,0.2865076959133148,-6.756898880004883,-7.471108436584473,-0.1049947515130043,-3.059846878051758,0.3059847056865692,-0.6885383725166321,-0.24613454937934875,-2.2635984420776367
238,28412,28414,0.0278062354773283,-0.035463232547044754,1.0723240375518799,7.965104103088379,-16.15482521057129,-9.84004020690918,-0.10949452221393585,-3.0673465728759766,0.31048446893692017,-0.5647943615913391,-0.2552565932273865,-2.3323633670806885
239,28422,28424,0.01768738403916359,0.12341777235269547,1.0050262212753296,22.35190773010254,-20.666637420654297,-12.070063591003418,-0.09899504482746124,-3.0688464641571045,0.30898454785346985,-0.30649295449256897,-0.1930733621120453,-2.4201157093048096
240,28432,28434,-0.06527888029813766,-0.06831043213605881,1.2056598663330078,35.740936279296875,-23.886293411254883,-12.908148765563965,-0.10199490189552307,-3.0688464641571045,0.31798410415649414,-0.11518430709838867,0.06214851513504982,-2.519174575805664
241,28442,28444,-0.15910950303077698,-0.20252351462841034,1.0553871393203735,44.56467819213867,-19.903522491455078,-11.588871002197266,-0.0944952741265297,-3.052347421646118,0.30748462677001953,0.0269386675208807,0.37048766016960144,-2.6471567153930664
242,28452,28454,-0.1427472084760666,-0.182742640376091,1.0041273832321167,47.62749099731445,-7.869334697723389,-10.559164047241211,-0.11549422144889832,-3.0733463764190674,0.29848507046699524,0.35887211561203003,0.4975909888744354,-2.773339033126831
243,28462,28464,-0.05013388767838478,0.04766683652997017,1.0296920537948608,42.025272369384766,3.2516307830810547,-9.901598930358887,-0.11099445074796677,-3.0748462677001953,0.3149842321872711,0.3964581787586212,1.0925430059432983,-2.8942625522613525
244,28472,28474,-0.10397865623235703,-0.048107046633958817,1.0386168956756592,33.20779800415039,11.12135124206543,-6.723374843597412,-0.11549422144889832,-3.082345724105835,0.31048446893692017,0.4246830344200134,1.5335875749588013,-3.000368595123291
245,28482,28484,-0.25579604506492615,-0.042293958365917206,0.9825645089149475,23.97182846069336,18.347036361694336,-3.7089784145355225,-0.10049497336149216,-3.0763461589813232,0.3044847846031189,0.21079802513122559,1.9773598909378052,-3.0913212299346924
246,28492,28494,-0.15765881538391113,-0.03888597711920738,0.9823123216629028,6.966550350189209,18.753143310546875,-1.5101077556610107,-0.11249437183141708,-3.0703463554382324,0.3014849126338959,0.05666963756084442,2.0206902027130127,-3.1379897594451904
247,28502,28504,-0.027626754716038704,0.10710069537162781,1.0918689966201782,-14.525078773498535,13.836313247680664,0.27161699533462524,-0.10949452221393585,-3.0643467903137207,0.30748462677001953,-0.07452217489480972,2.1438374519348145,-3.1468873023986816
248,28512,28514,-0.005681995302438736,-0.00027545186458155513,1.0084906816482544,-31.364795684814453,8.221487045288086,-0.46643349528312683,-0.10049497336149216,-3.0643467903137207,0.31048446893692017,-0.2186608910560608,1.9569581747055054,-3.1476917266845703
249,28522,28524,-0.5501935482025146,0.007694786414504051,0.9241991639137268,-36.7275505065918,0.788100004196167,-1.3341543674468994,-0.10199490189552307,-3.0748462677001953,0.3059847056865692,-0.3568040132522583,1.7625656127929688,-3.146430730819702
250,28532,28534,-1.0404903888702393,-0.17863249778747559,0.992660641670227,-29.324417114257812,-5.6882123947143555,-1.2765902280807495,-0.1049947515130043,-3.0688464641571045,0.30898454785346985,-0.3216041624546051,1.3536925315856934,-3.1352670192718506
251,28542,28544,-0.28414589166641235,-0.3038715124130249,0.9969024658203125,-21.62543296813965,-11.310810089111328,-0.8820204138755798,-0.10199490189552307,-3.0928452014923096,0.3149842321872711,-0.2387232631444931,1.0728771686553955,-3.1385393142700195
252,28552,28554,-0.2147083729505539,-0.22621209919452667,1.0285277366638184,-10.335005760192871,-13.667033195495605,-0.6538816690444946,-0.11249437183141708,-3.079345941543579,0.3134843111038208,-0.07679647207260132,0.9321025013923645,-3.131859540939331
253,28562,28564,-0.0904536172747612,0.02341223508119583,0.9202786684036255,8.198667526245117,-10.83515739440918,-1.37178635597229,-0.10349482297897339,-3.0673465728759766,0.3044847846031189,-0.09595668315887451,0.8454975485801697,-3.170173406600952
254,28572,28574,-0.04934239760041237,0.06339644640684128,1.051047921180725,19.28036880493164,-9.69106388092041,-0.29503247141838074,-0.10349482297897339,-3.0703463554382324,0.3134843111038208,-0.02933826483786106,0.9927439093589783,-3.1933200359344482
255,28582,28584,-0.688814103603363,-0.06001250073313713,0.9861763119697571,21.279478073120117,-3.0954666137695312,-1.1669036149978638,-0.08849557489156723,-3.0763461589813232,0.30748462677001953,0.13424815237522125,1.2303096055984497,-3.201956033706665
256,28592,28594,-0.4566062092781067,0.034668564796447754,0.8878631591796875,15.588400840759277,4.888836860656738,-3.088085174560547,-0.10649467259645462,-3.082345724105835,0.3044847846031189,0.1711234450340271,1.502590298652649,-3.2110745906829834
257,28602,28604,-0.13332635164260864,0.0944347009062767,0.9187138676643372,6.549619197845459,11.476715087890625,-4.12212610244751,-0.10799460113048553,-3.083845853805542,0.31798410415649414,0.183146134018898,1.6126261949539185,-3.2385218143463135
258,28612,28614,-0.07705619931221008,-0.05035589635372162,0.9942122101783752,-2.490586519241333,20.104801177978516,-4.640796661376953,-0.10199490189552307,-3.080845832824707,0.3029848337173462,-0.0030649288091808558,1.7214065790176392,-3.30198073387146
259,28622,28624,-0.10847432911396027,-0.061081431806087494,0.9769595265388489,-7.43090295791626,27.05518913269043,-5.556763648986816,-0.10649467259645462,-3.082345724105835,0.29848507046699524,-0.03860939294099808,1.7025070190429688,-3.312701463699341
260,28632,28634,-0.1507692188024521,0.06150464341044426,1.1119353771209717,-9.739709854125977,28.398332595825195,-6.039005756378174,-0.09749512374401093,-3.0763461589813232,0.3014849126338959,-0.4499443471431732,1.5740002393722534,-3.4010634422302246
261,28642,28644,-0.17270925641059875,0.021654978394508362,1.0664358139038086,-7.587554931640625,23.247966766357422,-5.386516094207764,-0.11249437183141708,-3.0913453102111816,0.29848507046699524,-0.6516566872596741,1.499180555343628,-3.438602924346924
262,28652,28654,-0.0389036126434803,-0.1306721270084381,1.0684854984283447,-8.49357795715332,12.216103553771973,-5.887629508972168,-0.113994300365448,-3.077846050262451,0.2969851493835449,-1.0017485618591309,1.4407802820205688,-3.5046684741973877
263,28662,28664,-0.22709865868091583,0.018302643671631813,0.8719857931137085,-8.232800483703613,1.4547477960586548,-6.977293968200684,-0.11249437183141708,-3.0763461589813232,0.3044847846031189,-0.9276376366615295,1.3017423152923584,-3.481954574584961
264,28672,28674,-0.24478062987327576,0.06342795491218567,0.880334734916687,-8.357565879821777,-10.972042083740234,-8.921842575073242,-0.11549422144889832,-3.08534574508667,0.3014849126338959,-1.0214121341705322,1.2331947088241577,-3.5515332221984863
265,28682,28684,-0.1079244613647461,0.06744956225156784,0.9522795081138611,0.8689126968383789,-15.993610382080078,-9.829568862915039,-0.10199490189552307,-3.080845832824707,0.30898454785346985,-1.0055878162384033,1.137636661529541,-3.636892318725586
266,28692,28694,-0.022126885131001472,-0.10484352707862854,1.014646053314209,8.437675476074219,-13.442049026489258,-9.04257583618164,-0.10799460113048553,-3.0688464641571045,0.3149842321872711,-0.901114284992218,1.21998929977417,-3.738605499267578
267,28702,28704,-0.015801306813955307,-0.06675775349140167,1.0009359121322632,12.992897033691406,-15.546936988830566,-9.222593307495117,-0.09899504482746124,-3.0628468990325928,0.3059847056865692,-0.6698089241981506,1.3379888534545898,-3.8014488220214844
268,28712,28714,-0.0643763616681099,-0.050786104053258896,0.9266058802604675,11.76187515258789,-20.275484085083008,-8.664724349975586,-0.10649467259645462,-3.0763461589813232,0.3044847846031189,-0.47434213757514954,1.4379206895828247,-3.885343551635742
269,28722,28724,-0.10166265070438385,-0.18894338607788086,0.9925612807273865,1.3303488492965698,-20.068967819213867,-7.638968467712402,-0.09899504482746124,-3.0748462677001953,0.3029848337173462,-0.3045482933521271,1.5586704015731812,-3.982041358947754
270,28732,28734,-0.05833643674850464,-0.06716202199459076,0.912078857421875,-16.598390579223633,-13.898759841918945,-5.7314982414245605,-0.09749512374401093,-3.0733463764190674,0.3044847846031189,-0.14866036176681519,1.5138760805130005,-4.088724613189697
271,28742,28744,-0.22648973762989044,0.1952388435602188,0.9126636981964111,-40.61768341064453,-6.770839214324951,-2.8440380096435547,-0.08999549597501755,-3.083845853805542,0.2939853072166443,-0.15117740631103516,1.4536305665969849,-4.19376802444458
272,28752,28754,-0.511803388595581,-0.008492299355566502,0.9787468910217285,-49.83916091918945,1.0965616703033447,0.2379116415977478,-0.08099594712257385,-3.0688464641571045,0.2969851493835449,-0.11235912889242172,1.0689117908477783,-4.251271724700928
273,28762,28764,-0.604754626750946,-0.12437299638986588,0.9006873369216919,-51.93446731567383,11.919854164123535,1.3876042366027832,-0.09599519520998001,-3.050847291946411,0.2969851493835449,-0.12408392131328583,0.6768819093704224,-4.261234283447266
274,28772,28774,-0.11959552764892578,-0.08730459213256836,1.0167953968048096,-46.95903015136719,16.033462524414062,1.9501444101333618,-0.09599519520998001,-3.0688464641571045,0.2939853072166443,-0.2850787937641144,0.12929116189479828,-4.273595809936523
275,28782,28784,-0.047462888062000275,0.0543389692902565,1.0849953889846802,-25.552173614501953,14.187737464904785,1.4405663013458252,-0.07949602603912354,-3.0703463554382324,0.31048446893692017,-0.4279770255088806,-0.1698213666677475,-4.239374160766602
276,28792,28794,-0.004494113847613335,0.026923829689621925,1.0591470003128052,-0.7532543540000916,7.899025917053223,-1.1203477382659912,-0.10199490189552307,-3.080845832824707,0.2939853072166443,-0.5390928983688354,-0.43800002336502075,-4.211768627166748
277,28802,28804,-0.4530164897441864,-0.1539086550474167,1.157096266746521,14.97066593170166,-4.013197422027588,-4.82725715637207,-0.10649467259645462,-3.079345941543579,0.30748462677001953,-0.6022135019302368,-0.5083461999893188,-4.208203315734863
278,28812,28814,-0.27114608883857727,0.010017597116529942,1.0965611934661865,26.323659896850586,-10.158698081970215,-6.547832012176514,-0.0944952741265297,-3.079345941543579,0.2954852283000946,-0.6540917158126831,-0.31734350323677063,-4.245631694793701
279,28822,28824,-0.03658028692007065,-0.011020409874618053,1.0667791366577148,28.61457633972168,-10.840002059936523,-7.237736225128174,-0.11849407106637955,-3.0673465728759766,0.2954852283000946,-0.467132031917572,0.04074032977223396,-4.286904811859131
280,28832,28834,0.0006445797625929117,0.13884761929512024,1.1154834032058716,16.80727195739746,-8.501904487609863,-8.131872177124023,-0.09299534559249878,-3.0658466815948486,0.3059847056865692,-0.40659648180007935,0.25295963883399963,-4.3695855140686035
281,28842,28844,-0.11225100606679916,-0.03732185810804367,1.073030948638916,-1.1540504693984985,-3.0318522453308105,-8.374159812927246,-0.1049947515130043,-3.0718462467193604,0.3119843900203705,-0.3830065131187439,0.34934091567993164,-4.459360122680664
282,28852,28854,-0.10635985434055328,-0.03551964461803436,1.0436149835586548,-12.062822341918945,-0.7442509531974792,-7.101410865783691,-0.10949452221393585,-3.0703463554382324,0.31048446893692017,-0.2879732847213745,0.27729928493499756,-4.544920921325684
283,28862,28864,-0.0972137302160263,-0.04735296592116356,1.0651379823684692,-23.195035934448242,1.8851423263549805,-4.25262975692749,-0.09749512374401093,-3.0673465728759766,0.31048446893692017,-0.3886859118938446,0.2203860580921173,-4.627989768981934
284,28872,28874,-0.022451216354966164,-0.00961007084697485,1.0739794969558716,-31.393911361694336,3.3076634407043457,-3.0829076766967773,-0.11249437183141708,-3.049347400665283,0.30748462677001953,-0.29838472604751587,-0.06917786598205566,-4.681068420410156
285,28882,28884,-0.09095372259616852,-0.02459120564162731,1.0365819931030273,-31.748428344726562,3.077172040939331,-1.5443085432052612,-0.10949452221393585,-3.0643467903137207,0.3134843111038208,-0.31000325083732605,-0.24870820343494415,-4.707968711853027
286,28892,28894,-0.04235362261533737,-0.012320944108068943,1.0532686710357666,-21.992624282836914,1.461493730545044,0.3948296904563904,-0.10649467259645462,-3.0643467903137207,0.30748462677001953,-0.3883071839809418,-0.4938644766807556,-4.724983215332031
287,28902,28904,-0.026609528809785843,0.002139695454388857,1.0619301795959473,-8.184821128845215,-4.194572448730469,2.5256340503692627,-0.10949452221393585,-3.05834698677063,0.30748462677001953,-0.35645273327827454,-0.6602768301963806,-4.723440647125244
288,28912,28914,-0.17904454469680786,-0.011932801455259323,1.0240225791931152,4.25193977355957,-9.415635108947754,4.814676284790039,-0.10949452221393585,-3.05834698677063,0.30748462677001953,-0.39108070731163025,-0.761094331741333,-4.704981803894043
289,28922,28924,-0.12084759026765823,-0.0020276515278965235,1.0513052940368652,7.2528228759765625,-10.376825332641602,7.454823017120361,-0.10949452221393585,-3.05834698677063,0.30748462677001953,-0.2036619484424591,-0.7805348634719849,-4.667391777038574
290,28932,28934,-0.20800025761127472,0.008843336254358292,0.92683345079422,7.81392765045166,-11.9266996383667,9.694401741027832,-0.10949452221393585,-3.05834698677063,0.30748462677001953,-0.14361472427845,-0.7160338163375854,-4.596808910369873
291,28942,28944,-0.38763779401779175,-0.07196465134620667,0.9836758375167847,0.34831276535987854,-13.466282844543457,11.916316986083984,-0.11099445074796677,-3.059846878051758,0.31798410415649414,-0.06580647081136703,-0.664745569229126,-4.504481315612793
292,28952,28954,-0.23285117745399475,-0.15481910109519958,1.1103218793869019,-4.892490863800049,-12.072083473205566,12.613259315490723,-0.09899504482746124,-3.056847095489502,0.3149842321872711,0.04211429879069328,-0.7064727544784546,-4.390235424041748
293,28962,28964,-0.09750920534133911,-0.10444185882806778,0.9302646517753601,-10.111265182495117,-6.746354579925537,12.745841979980469,-0.10799460113048553,-3.053847312927246,0.31798410415649414,-0.022648004814982414,-0.6222271919250488,-4.244203090667725
294,28972,28974,-0.0914752334356308,-0.0933702141046524,0.9560864567756653,-13.874788284301758,-7.336377143859863,12.95060920715332,-0.10799460113048553,-3.053847312927246,0.31798410415649414,0.14396867156028748,-0.7649728655815125,-4.123683929443359
295,28982,28984,-0.11481645703315735,-0.10248804092407227,0.8658698797225952,-14.7200288772583,-10.535088539123535,14.65223217010498,-0.10199490189552307,-3.050847291946411,0.3239837884902954,0.19141864776611328,-0.8913493752479553,-3.9972338676452637
296,28992,28994,-0.13183319568634033,-0.2047313153743744,0.9697246551513672,-16.900827407836914,-5.204416275024414,14.296459197998047,-0.1049947515130043,-3.056847095489502,0.3239837884902954,0.24266579747200012,-1.1184420585632324,-3.8434414863586426
297,29002,29004,-0.06799261271953583,0.10568942874670029,0.8683589100837708,-17.099620819091797,0.10084958374500275,15.946173667907715,-0.10349482297897339,-3.05834698677063,0.3224838674068451,0.283849835395813,-1.2173657417297363,-3.698312759399414
298,29012,29014,-0.21233397722244263,0.15355220437049866,1.116235613822937,-12.292914390563965,6.251075267791748,17.383148193359375,-0.10649467259645462,-3.05834698677063,0.3134843111038208,0.24784542620182037,-1.3737642765045166,-3.5334279537200928
299,29022,29024,-0.047124769538640976,0.00830658059567213,1.0751763582229614,-4.748173713684082,12.330963134765625,20.634235382080078,-0.10649467259645462,-3.049347400665283,0.3254837095737457,0.26194825768470764,-1.4521852731704712,-3.3815994262695312
300,29032,29034,-0.09611964225769043,-0.049236953258514404,0.9916287064552307,0.6960580348968506,9.091005325317383,23.26165008544922,-0.10199490189552307,-3.050847291946411,0.3149842321872711,0.14005492627620697,-1.55770742893219,-3.180790424346924
301,29042,29044,-2.526233856769977e-06,0.09459435194730759,1.0822415351867676,2.763601064682007,-2.8111424446105957,27.037748336791992,-0.09899504482746124,-3.056847095489502,0.3119843900203705,0.00695396214723587,-1.5286678075790405,-2.958184242248535
302,29052,29054,-0.39681878685951233,0.011916875839233398,0.9936671257019043,4.556402683258057,-14.127131462097168,28.58074951171875,-0.1049947515130043,-3.056847095489502,0.30898454785346985,0.10885787010192871,-1.4602402448654175,-2.7231295108795166
303,29062,29064,-0.33835265040397644,-0.14475280046463013,1.058244228363037,7.114731311798096,-19.117891311645508,30.97226333618164,-0.10049497336149216,-3.0613467693328857,0.3224838674068451,0.3713245093822479,-1.3484033346176147,-2.4747204780578613
304,29072,29074,-0.05665081366896629,-0.19476348161697388,1.0348131656646729,5.960460186004639,-19.34507942199707,33.82282638549805,-0.08849557489156723,-3.052347421646118,0.3164841830730438,0.6236158013343811,-1.2923836708068848,-2.186569929122925
305,29082,29084,-0.03745098039507866,-0.011745933443307877,1.015504240989685,0.9715693593025208,-16.886932373046875,36.27997970581055,-0.09599519520998001,-3.0628468990325928,0.30898454785346985,0.5211297869682312,-1.26541268825531,-1.7822860479354858
306,29092,29094,0.028785772621631622,-0.037372786551713943,0.9875178337097168,-11.010186195373535,-7.171211242675781,38.14537811279297,-0.09149542450904846,-3.055347204208374,0.29848507046699524,0.8039018511772156,-1.3353970050811768,-1.4411578178405762
307,29102,29104,-0.0379248671233654,0.053193531930446625,0.9390726089477539,-26.03167724609375,-1.3072319030761719,37.88296127319336,-0.08849557489156723,-3.0463476181030273,0.31948402523994446,0.8808048963546753,-1.3061002492904663,-1.0641679763793945
308,29112,29114,-0.09365841001272202,0.15300387144088745,1.0526106357574463,-36.22771072387695,-0.11509469896554947,36.077354431152344,-0.07199639827013016,-3.0688464641571045,0.31798410415649414,0.8818953037261963,-1.494188904762268,-0.6713338494300842
309,29122,29124,-0.07639770954847336,0.05567606911063194,1.025457501411438,-38.70277404785156,-0.6801097393035889,33.963661193847656,-0.08399579674005508,-3.0448477268218994,0.31798410415649414,0.9242948889732361,-2.107584238052368,-0.2870326042175293
310,29132,29134,-0.052072130143642426,-0.00286231841892004,1.011240839958191,-31.396257400512695,-1.2359884977340698,31.015275955200195,-0.08399579674005508,-3.050847291946411,0.32698363065719604,0.9382753968238831,-2.4384701251983643,0.04722053185105324
311,29142,29144,-0.017986953258514404,0.005542667116969824,1.0487382411956787,-18.249187469482422,0.03720353916287422,29.248046875,-0.07199639827013016,-3.050847291946411,0.3209839463233948,0.8877643346786499,-2.8599331378936768,0.3862222135066986
312,29152,29154,-0.04807315394282341,-0.04231719672679901,1.0039925575256348,-0.28010454773902893,-0.6698225140571594,26.480098724365234,-0.08399579674005508,-3.053847312927246,0.3059847056865692,0.8989171981811523,-2.7824535369873047,0.6379098296165466
313,29162,29164,-0.06152836233377457,0.18986235558986664,0.9673959612846375,18.29208755493164,6.442685127258301,23.998476028442383,-0.08699564635753632,-3.050847291946411,0.32998350262641907,0.8178917169570923,-2.8569042682647705,0.9374770522117615
314,29172,29174,-0.10540873557329178,-0.0023672874085605145,0.9817250370979309,32.254493713378906,15.03900146484375,23.501384735107422,-0.09299534559249878,-3.0478475093841553,0.3149842321872711,0.7732393741607666,-2.71537446975708,1.1770350933074951
315,29182,29184,-0.22810989618301392,0.001962716691195965,1.011122226715088,40.129703521728516,22.524473190307617,23.585660934448242,-0.09299534559249878,-3.032848358154297,0.32698363065719604,0.7383999824523926,-2.491245746612549,1.3793197870254517
316,29192,29194,-0.49527254700660706,0.15978769958019257,1.0588973760604858,38.60798263549805,27.644832611083984,23.858110427856445,-0.09899504482746124,-3.050847291946411,0.32698363065719604,0.43839025497436523,-2.0281505584716797,1.6264007091522217
317,29202,29204,-1.3552991151809692,0.018428374081850052,1.023240566253662,31.246583938598633,23.94841194152832,25.278120040893555,-0.09149542450904846,-3.0433478355407715,0.32848358154296875,0.2504955530166626,-1.8581809997558594,1.850661039352417
318,29212,29214,-0.7887647747993469,0.06379803270101547,0.955949604511261,18.436019897460938,16.426137924194336,27.566617965698242,-0.08999549597501755,-3.0478475093841553,0.3209839463233948,-0.09967511147260666,-1.5214221477508545,2.1292262077331543
319,29222,29224,-0.30240675806999207,0.17428334057331085,0.9093173742294312,2.7637462615966797,4.94055700302124,28.572683334350586,-0.10049497336149216,-3.0463476181030273,0.3404829800128937,-0.1736631989479065,-1.4469069242477417,2.3641653060913086
320,29232,29234,-0.17403700947761536,0.017703669145703316,0.9845260381698608,-6.865681171417236,-8.184548377990723,30.164329528808594,-0.09749512374401093,-3.052347421646118,0.3254837095737457,-0.2153903990983963,-1.508178949356079,2.6372642517089844
321,29242,29244,-1.1098564863204956,0.03158452361822128,0.9907118082046509,-14.52171516418457,-17.771154403686523,32.52080154418945,-0.09299534559249878,-3.0448477268218994,0.31798410415649414,-0.06519598513841629,-1.585324764251709,2.8939671516418457
322,29252,29254,-0.2937549948692322,0.019247353076934814,0.9647327065467834,-17.599843978881836,-24.06695556640625,34.65475845336914,-0.09749512374401093,-3.05834698677063,0.3164841830730438,0.09164069592952728,-1.7742680311203003,3.218921422958374
323,29262,29264,-0.04883549362421036,-0.030863968655467033,0.9216609597206116,-12.422914505004883,-25.407365798950195,33.77631378173828,-0.07049647718667984,-3.0403478145599365,0.3164841830730438,0.4634210467338562,-1.984047770500183,3.5141959190368652
324,29272,29274,-0.1479922980070114,0.13271589577198029,0.9429101347923279,-2.8319272994995117,-21.142635345458984,32.26447296142578,-0.08099594712257385,-3.050847291946411,0.31798410415649414,0.6283282041549683,-2.043630361557007,3.8879175186157227
325,29282,29284,-0.07599659264087677,0.21815542876720428,1.0975717306137085,11.008285522460938,-13.409268379211426,30.793842315673828,-0.08249587565660477,-3.052347421646118,0.3224838674068451,0.8625599145889282,-2.086707592010498,4.219585418701172
326,29292,29294,0.0868586003780365,-0.0037542562931776047,0.9894838929176331,19.42707633972168,-12.438881874084473,30.51289939880371,-0.08249587565660477,-3.05834698677063,0.3254837095737457,0.9295104742050171,-1.9476213455200195,4.554705619812012
327,29302,29304,-0.06074026972055435,-0.028488727286458015,0.9083467125892639,19.579620361328125,-17.510408401489258,28.158523559570312,-0.07349632680416107,-3.05834698677063,0.3254837095737457,1.1514018774032593,-2.0937814712524414,4.854935646057129
328,29312,29314,-0.061903469264507294,0.16251182556152344,1.0558252334594727,22.202543258666992,-14.434676170349121,25.58596420288086,-0.08849557489156723,-3.05834698677063,0.3164841830730438,1.2465689182281494,-1.83553147315979,5.164012908935547
329,29322,29324,-0.5184964537620544,-0.10691478103399277,0.938329815864563,32.26137161254883,-8.41468334197998,23.68531608581543,-0.0944952741265297,-3.052347421646118,0.3164841830730438,1.364274263381958,-1.8646050691604614,5.4642438888549805
330,29332,29334,-0.4672797620296478,-0.06198819726705551,0.9625732898712158,34.95571517944336,5.639752388000488,21.552419662475586,-0.08099594712257385,-3.050847291946411,0.32698363065719604,1.3737398386001587,-1.6841940879821777,5.753922462463379
331,29342,29344,-0.06561803817749023,0.0024711356963962317,0.9752697944641113,34.47675323486328,21.071178436279297,19.68736457824707,-0.07349632680416107,-3.052347421646118,0.30748462677001953,1.3103710412979126,-1.233548879623413,5.980495929718018
332,29352,29354,-0.05338451266288757,-0.041106030344963074,0.9669674038887024,28.873214721679688,36.50956344604492,18.125732421875,-0.07499624788761139,-3.053847312927246,0.3149842321872711,1.221382737159729,-0.9508721828460693,6.1673383712768555
333,29362,29364,-0.1340588629245758,0.2103969007730484,1.0272672176361084,23.919363021850586,46.39813232421875,16.702190399169922,-0.07499624788761139,-3.0628468990325928,0.31798410415649414,0.6897463798522949,-0.5316550135612488,6.401031494140625
334,29372,29374,-0.03160285949707031,0.02046920359134674,0.992323637008667,16.06140899658203,42.74390411376953,13.968632698059082,-0.07499624788761139,-3.053847312927246,0.31798410415649414,0.41024693846702576,-0.6229694485664368,6.572726726531982
335,29382,29384,-0.4807371199131012,-0.18568038940429688,0.9087966084480286,12.460617065429688,35.48985290527344,12.766613960266113,-0.0764961764216423,-3.0673465728759766,0.3224838674068451,-0.04368836060166359,-0.29723063111305237,6.703792095184326
336,29392,29394,-0.33604317903518677,-0.10327599197626114,1.0185900926589966,14.293689727783203,27.996212005615234,11.10965633392334,-0.08699564635753632,-3.0688464641571045,0.3119843900203705,-0.25302332639694214,-0.09931189566850662,6.786109447479248
337,29402,29404,-0.09871114045381546,0.028560562059283257,0.9915830492973328,14.804737091064453,8.146726608276367,9.409575462341309,-0.08099594712257385,-3.0718462467193604,0.3149842321872711,-0.509276807308197,-0.25016236305236816,6.915184497833252
338,29412,29414,0.005644843447953463,-0.00635076779872179,0.9170752167701721,13.572064399719238,-6.453348636627197,6.160523414611816,-0.08849557489156723,-3.0703463554382324,0.3164841830730438,-0.5939051508903503,-0.0187307670712471,6.995944023132324
339,29422,29424,-0.03845025971531868,0.04595959186553955,1.001235008239746,14.635049819946289,-12.9305419921875,2.3108415603637695,-0.08699564635753632,-3.0718462467193604,0.3059847056865692,-0.5247735977172852,0.06181688979268074,7.064609527587891
340,29432,29434,-0.046281278133392334,-0.014380896463990211,0.9965664744377136,20.064319610595703,-11.451559066772461,-0.6858052611351013,-0.08249587565660477,-3.0643467903137207,0.30748462677001953,-0.2889382839202881,0.3786838948726654,7.076895713806152
341,29442,29444,-0.49455153942108154,0.07035224884748459,1.0255786180496216,24.937475204467773,-3.947445869445801,-2.691234827041626,-0.08849557489156723,-3.082345724105835,0.3014849126338959,-0.2249038964509964,0.5407821536064148,7.087208271026611
342,29452,29454,-0.08364958316087723,-0.16654875874519348,1.0140645503997803,25.759559631347656,6.35007905960083,-5.055478096008301,-0.08399579674005508,-3.0748462677001953,0.3029848337173462,-0.22055023908615112,0.6315346360206604,7.073495864868164
343,29462,29464,-0.04179934039711952,-0.045241858810186386,0.9994925260543823,22.4787540435791,15.680154800415039,-8.371856689453125,-0.08399579674005508,-3.086845636367798,0.2969851493835449,-0.3575654923915863,0.9536209106445312,7.039209842681885
344,29472,29474,-0.04282666742801666,-0.19173477590084076,0.9748926162719727,20.64938735961914,26.292268753051758,-10.256604194641113,-0.08099594712257385,-3.0748462677001953,0.3059847056865692,-0.5588994026184082,1.096919059753418,6.970272064208984
345,29482,29484,-0.04827999323606491,0.00316832703538239,0.9946980476379395,21.83442497253418,34.52467346191406,-10.386214256286621,-0.0764961764216423,-3.079345941543579,0.3044847846031189,-0.8523210287094116,1.4290233850479126,6.880067825317383
346,29492,29494,-0.013953065499663353,0.017555972561240196,1.0003434419631958,18.83883285522461,33.49248504638672,-8.826125144958496,-0.07949602603912354,-3.0763461589813232,0.3044847846031189,-1.1728744506835938,1.4671072959899902,6.771894931793213
347,29502,29504,-0.48402929306030273,-0.02243565395474434,0.9972490668296814,12.406088829040527,22.565513610839844,-6.990468978881836,-0.08999549597501755,-3.086845636367798,0.29098543524742126,-1.4735041856765747,1.808133840560913,6.699249267578125
348,29512,29514,-0.21896836161613464,-0.012803241610527039,1.011138916015625,8.393649101257324,2.7475969791412354,-5.412742614746094,-0.08849557489156723,-3.0703463554382324,0.2924853563308716,-1.6606547832489014,1.773657202720642,6.622417449951172
349,29522,29524,-0.11778402328491211,0.06633850187063217,0.958339512348175,6.95933198928833,-19.784732818603516,-3.514949321746826,-0.0944952741265297,-3.0733463764190674,0.31048446893692017,-1.669852375984192,1.8340879678726196,6.574253559112549
350,29532,29534,0.03600126877427101,-0.17008379101753235,0.9847104549407959,6.140632629394531,-27.400381088256836,-0.5709323287010193,-0.07499624788761139,-3.083845853805542,0.3059847056865692,-1.4754524230957031,2.071918487548828,6.563068866729736
351,29542,29544,-0.08102899044752121,0.027789171785116196,0.996061384677887,6.912897109985352,-31.27570915222168,0.6052364706993103,-0.09149542450904846,-3.079345941543579,0.3014849126338959,-1.2590473890304565,2.004229784011841,6.513570785522461
352,29552,29554,-0.05882550776004791,0.20700255036354065,1.0695136785507202,4.037259578704834,-23.24164581298828,3.002140522003174,-0.10349482297897339,-3.079345941543579,0.3014849126338959,-0.8806444406509399,2.074634313583374,6.517464637756348
353,29562,29564,-0.20060452818870544,0.06349467486143112,0.9914209246635437,0.22165310382843018,-15.317621231079102,3.7459278106689453,-0.07349632680416107,-3.0643467903137207,0.31048446893692017,-0.7523156404495239,2.104573965072632,6.494079113006592
354,29572,29574,-0.09031137079000473,-0.055944327265024185,0.8840498328208923,-4.397217750549316,-10.0697021484375,3.480403184890747,-0.09149542450904846,-3.0763461589813232,0.28948551416397095,-0.6005136370658875,2.1382689476013184,6.521572113037109
355,29582,29584,-0.00043667451245710254,0.027511954307556152,0.963318407535553,-5.2269511222839355,-7.282861709594727,2.740579843521118,-0.085495725274086,-3.088345527648926,0.3134843111038208,-0.5158848166465759,2.047703504562378,6.535593032836914
356,29592,29594,-0.04535965994000435,0.08753051608800888,0.9671927094459534,-2.9824771881103516,-2.948603868484497,2.702960968017578,-0.07799609750509262,-3.077846050262451,0.2939853072166443,-0.476755291223526,2.090200662612915,6.564388275146484
357,29602,29604,-0.08115687221288681,0.06849002093076706,0.977263331413269,3.289726972579956,-0.983942449092865,3.203336477279663,-0.08849557489156723,-3.0703463554382324,0.30748462677001953,-0.41883113980293274,2.1654703617095947,6.613918781280518
358,29612,29614,-0.38717517256736755,0.011064755730330944,0.9025014042854309,4.886401176452637,-2.1233866214752197,3.9150843620300293,-0.08849557489156723,-3.088345527648926,0.29848507046699524,-0.3812704086303711,2.155402421951294,6.645511150360107
359,29622,29624,-0.24692748486995697,-0.13561469316482544,0.8921577334403992,1.5286810398101807,-5.4626688957214355,7.025802135467529,-0.08399579674005508,-3.077846050262451,0.3059847056865692,-0.3236066401004791,2.1711230278015137,6.687061309814453
360,29632,29634,-0.2190607339143753,0.04042549431324005,0.9112852215766907,-4.322598934173584,-9.758413314819336,7.472860336303711,-0.07799609750509262,-3.0928452014923096,0.29998499155044556,-0.21446235477924347,2.278524398803711,6.780235290527344
361,29642,29644,-0.30893674492836,0.06639492511749268,0.8694820404052734,-10.01830005645752,-16.45113754272461,5.1155219078063965,-0.08099594712257385,-3.0748462677001953,0.29998499155044556,-0.23337480425834656,2.214700937271118,6.807697772979736
362,29652,29654,-0.29558494687080383,0.1421877145767212,1.0655746459960938,-11.876527786254883,-17.14845848083496,4.147191524505615,-0.0659966990351677,-3.083845853805542,0.28798559308052063,-0.040380582213401794,2.059415578842163,6.868206977844238
363,29662,29664,-0.41618040204048157,-0.05047953501343727,0.9964919686317444,-7.317966461181641,-13.063404083251953,1.7398595809936523,-0.058497074991464615,-3.08534574508667,0.30748462677001953,0.21046042442321777,1.9702601432800293,6.943171977996826
364,29672,29674,-0.4353153109550476,0.049988146871328354,0.9553160071372986,-4.185999393463135,-6.10180139541626,-0.12380021065473557,-0.06449677050113678,-3.0913453102111816,0.3134843111038208,0.110906682908535,1.860840082168579,6.865766525268555
365,29682,29684,-0.16258367896080017,0.07635734230279922,1.0232521295547485,3.662668228149414,6.392522811889648,-0.5447578430175781,-0.06299684941768646,-3.0898454189300537,0.28498575091362,0.13540589809417725,1.833466649055481,6.8453898429870605
366,29692,29694,-0.16105826199054718,0.05524555221199989,1.0457062721252441,12.821000099182129,23.99225616455078,-0.7126229405403137,-0.07349632680416107,-3.0973451137542725,0.3014849126338959,0.027910476550459862,1.9130765199661255,6.807343006134033
367,29702,29704,-0.09441769868135452,0.1178884357213974,1.0262118577957153,19.070606231689453,32.2184944152832,0.34547722339630127,-0.07049647718667984,-3.0913453102111816,0.2864856719970703,-0.3093734383583069,2.045686721801758,6.742519378662109
368,29712,29714,-0.05753372982144356,0.05635782703757286,1.00275719165802,16.83108139038086,35.34596633911133,0.9784005284309387,-0.07049647718667984,-3.0913453102111816,0.2924853563308716,-0.43676283955574036,2.2488961219787598,6.824759006500244
369,29722,29724,-0.4260883927345276,-0.22882139682769775,0.8993682861328125,9.071761131286621,22.887231826782227,-2.043727397918701,-0.0764961764216423,-3.088345527648926,0.28948551416397095,-0.8557592630386353,2.4155077934265137,6.817410945892334
370,29732,29734,-0.3777379095554352,-0.0016467291861772537,0.9966245889663696,-4.134862422943115,1.7910515069961548,-5.03101110458374,-0.08399579674005508,-3.086845636367798,0.2969851493835449,-1.1450629234313965,2.5762391090393066,6.820405960083008
371,29742,29744,-0.009124461561441422,-0.034756992012262344,1.034002661705017,-11.694870948791504,-21.074493408203125,-6.918946743011475,-0.06749662756919861,-3.088345527648926,0.2954852283000946,-1.1114485263824463,2.4173169136047363,6.821703910827637
372,29752,29754,-0.03379378840327263,-0.10395120829343796,1.0266417264938354,-15.862959861755371,-40.494991302490234,-10.027854919433594,-0.05999699980020523,-3.0928452014923096,0.29098543524742126,-0.8010162711143494,2.285846471786499,6.830961227416992
373,29762,29764,-0.03830012306571007,-0.12131338566541672,1.0046014785766602,-15.032425880432129,-49.75459671020508,-14.339385986328125,-0.07049647718667984,-3.103344678878784,0.2864856719970703,-0.42535752058029175,2.0959057807922363,6.738791465759277
374,29772,29774,-0.47737178206443787,-0.007593533489853144,1.0121028423309326,-8.481348991394043,-49.792015075683594,-16.866716384887695,-0.04949752241373062,-3.1003448963165283,0.2924853563308716,0.10246816277503967,1.9305944442749023,6.6180195808410645
375,29782,29784,-0.6648911237716675,0.08901917189359665,1.0023373365402222,5.872613430023193,-36.211875915527344,-16.38501739501953,-0.07349632680416107,-3.079345941543579,0.28048595786094666,0.5263270139694214,1.8910325765609741,6.412975311279297
376,29792,29794,-0.1387542337179184,-0.004703915677964687,1.0611555576324463,18.90315055847168,-13.351781845092773,-15.564805030822754,-0.058497074991464615,-3.082345724105835,0.2954852283000946,0.8499737977981567,1.774317741394043,6.179873466491699
377,29802,29804,-0.08080080896615982,-0.22776171565055847,1.0334138870239258,26.850791931152344,16.86192512512207,-15.751832008361816,-0.0659966990351677,-3.0928452014923096,0.29098543524742126,0.9328647255897522,2.002223014831543,5.968036651611328
378,29812,29814,-0.12459566444158554,-0.1538344770669937,1.0077606439590454,25.283607482910156,37.640708923339844,-15.330703735351562,-0.06749662756919861,-3.079345941543579,0.28948551416397095,0.7430473566055298,2.254622220993042,5.757166385650635
379,29822,29824,-0.19607971608638763,-0.24172279238700867,1.0046801567077637,15.06942081451416,43.84427261352539,-17.216156005859375,-0.06149692460894585,-3.0943453311920166,0.28948551416397095,0.333631306886673,2.682333469390869,5.580718517303467
380,29832,29834,-0.030144596472382545,-0.203174889087677,0.9974187016487122,2.1607728004455566,34.428619384765625,-16.879375457763672,-0.05999699980020523,-3.0958452224731445,0.28798559308052063,0.056594062596559525,2.6504287719726562,5.491353988647461
381,29842,29844,-0.11633498966693878,-0.02154889516532421,0.9003406167030334,-11.965688705444336,9.351223945617676,-19.652780532836914,-0.06749662756919861,-3.0913453102111816,0.3014849126338959,-0.19612814486026764,2.708193778991699,5.4043426513671875
382,29852,29854,-0.09539077430963516,-0.0021010690834373236,0.9689427614212036,-23.374732971191406,-15.941597938537598,-23.850975036621094,-0.07049647718667984,-3.1003448963165283,0.28048595786094666,-0.31574463844299316,2.5518009662628174,5.262454509735107
383,29862,29864,0.058159906417131424,0.025837412104010582,1.138222575187683,-31.212268829345703,-30.445220947265625,-26.582523345947266,-0.06749662756919861,-3.103344678878784,0.28048595786094666,-0.3013128340244293,2.3522093296051025,5.0187225341796875
384,29872,29874,-0.09658223390579224,-0.048770397901535034,1.071885585784912,-31.296321868896484,-35.95562744140625,-29.4859676361084,-0.07049647718667984,-3.0973451137542725,0.277486115694046,0.04256504774093628,2.0447986125946045,4.799081325531006
385,29882,29884,-0.3137175142765045,0.02631731703877449,1.0547837018966675,-20.66400718688965,-28.63418197631836,-30.882034301757812,-0.06449677050113678,-3.0943453311920166,0.2864856719970703,0.36401766538619995,1.760721206665039,4.487677574157715
386,29892,29894,-0.43190380930900574,-0.007799140177667141,1.062361717224121,-3.958174467086792,-15.51074504852295,-30.032089233398438,-0.07049647718667984,-3.0943453311920166,0.2744862735271454,0.7151312232017517,1.4984683990478516,4.191948413848877
387,29902,29904,-0.30629780888557434,0.1399133801460266,1.0274907350540161,10.432432174682617,-1.3916397094726562,-28.794357299804688,-0.07199639827013016,-3.080845832824707,0.3029848337173462,0.8074604272842407,1.6316426992416382,3.8410637378692627
388,29912,29914,-0.19560034573078156,0.10229405015707016,1.0966273546218872,13.899898529052734,9.388372421264648,-27.939212799072266,-0.08399579674005508,-3.0898454189300537,0.2939853072166443,0.7735770344734192,1.7222850322723389,3.5101609230041504
389,29922,29924,-0.1121404767036438,0.07217268645763397,1.0957984924316406,12.578424453735352,19.56304168701172,-26.584169387817383,-0.07949602603912354,-3.088345527648926,0.2924853563308716,0.6248437762260437,1.8104785680770874,3.1944565773010254
390,29932,29934,-0.1037219762802124,-0.07604390382766724,1.0689502954483032,-0.8500986099243164,21.141870498657227,-26.489755630493164,-0.07499624788761139,-3.083845853805542,0.28498575091362,0.42389145493507385,1.9089844226837158,2.91957426071167
391,29942,29944,-0.10456059873104095,-0.07222915440797806,1.0583676099777222,-12.447794914245605,18.3182430267334,-25.65206527709961,-0.07349632680416107,-3.079345941543579,0.3134843111038208,0.23966027796268463,1.906416654586792,2.672668933868408
392,29952,29954,-0.06806989759206772,-0.08128838986158371,1.0197324752807617,-19.302417755126953,1.1519943475723267,-26.776103973388672,-0.085495725274086,-3.0763461589813232,0.30748462677001953,0.1448337733745575,1.7877020835876465,2.46215558052063
393,29962,29964,0.09741685539484024,-0.036249347031116486,1.0860897302627563,-23.292428970336914,-14.928885459899902,-27.69085693359375,-0.09149542450904846,-3.08534574508667,0.30748462677001953,0.044750045984983444,1.4793418645858765,2.195927381515503
394,29972,29974,0.029823366552591324,0.1956632286310196,0.9167415499687195,-16.384767532348633,-37.16653060913086,-26.051965713500977,-0.09599519520998001,-3.080845832824707,0.3119843900203705,0.28511470556259155,1.6421853303909302,1.9559297561645508
395,29982,29984,-0.1468336135149002,0.17053429782390594,1.0173829793930054,-7.215527057647705,-51.49713897705078,-25.033058166503906,-0.08249587565660477,-3.079345941543579,0.3044847846031189,0.5659459829330444,1.376888632774353,1.6784005165100098
396,29992,29994,-0.08287788927555084,0.02633683942258358,1.0779768228530884,1.4085274934768677,-45.614864349365234,-22.48135757446289,-0.08249587565660477,-3.0763461589813232,0.3044847846031189,1.2567404508590698,1.1999107599258423,1.4809885025024414
397,30002,30004,-0.15795090794563293,-0.021299274638295174,1.00803804397583,5.613390922546387,-28.105274200439453,-18.908475875854492,-0.09899504482746124,-3.080845832824707,0.30898454785346985,1.7813172340393066,1.4275264739990234,1.2359025478363037
398,30012,30014,-0.10135191679000854,-0.02253127284348011,1.0303692817687988,7.047076225280762,0.6220964193344116,-14.730793952941895,-0.09299534559249878,-3.077846050262451,0.31798410415649414,2.002556085586548,1.2820574045181274,1.0149221420288086
399,30022,30024,-0.12742410600185394,-0.04320601746439934,0.9848760366439819,5.343731880187988,26.747421264648438,-10.195013046264648,-0.09599519520998001,-3.0628468990325928,0.31798410415649414,1.5331908464431763,1.5191432237625122,0.6871734261512756
400,30032,30034,-0.07773075252771378,0.011235689744353294,1.0159924030303955,6.566831111907959,46.352760314941406,-6.279984951019287,-0.08699564635753632,-3.0688464641571045,0.31798410415649414,1.3135887384414673,1.5926856994628906,0.5672518014907837
401,30042,30044,-0.07230342924594879,0.04301614314317703,1.0224392414093018,7.555776596069336,49.030426025390625,-4.350455284118652,-0.09599519520998001,-3.0718462467193604,0.3209839463233948,0.7668069005012512,1.6693074703216553,0.4694766700267792
402,30052,30054,-0.10207602381706238,-0.028038671240210533,1.0605480670928955,8.326172828674316,35.826637268066406,-2.378204822540283,-0.09749512374401093,-3.0703463554382324,0.3134843111038208,0.3482483923435211,1.7714921236038208,0.44739919900894165
403,30062,30064,-0.07424910366535187,-0.051280394196510315,0.99942946434021,6.305247783660889,19.13553237915039,-3.029644250869751,-0.10349482297897339,-3.05834698677063,0.3134843111038208,0.23746344447135925,1.716707706451416,0.5184337496757507
404,30072,30074,-0.04968269169330597,-0.0023480027448385954,0.9872231483459473,3.552490234375,0.9344703555107117,-3.6342978477478027,-0.10799460113048553,-3.0718462467193604,0.3119843900203705,-0.045186031609773636,1.852415680885315,0.4832141399383545
405,30082,30084,-0.06763695925474167,-0.013879417441785336,0.832219123840332,0.6955069899559021,-11.440103530883789,-2.7003724575042725,-0.1229938492178917,-3.0718462467193604,0.3029848337173462,-0.06685411930084229,1.8776237964630127,0.4682793915271759
406,30092,30094,-0.07158557325601578,-0.013967650942504406,0.9176547527313232,-9.620166778564453,-18.656423568725586,-1.248716115951538,-0.10949452221393585,-3.05834698677063,0.3164841830730438,0.11527398973703384,1.817874789237976,0.46816548705101013
407,30102,30104,-0.2260906994342804,0.0040780347771942616,0.9827665090560913,-28.786348342895508,-19.085115432739258,-0.9569815993309021,-0.10199490189552307,-3.0688464641571045,0.2969851493835449,0.33188629150390625,1.784019112586975,0.45283201336860657
408,30112,30114,-0.400471955537796,-0.016917947679758072,0.9668968319892883,-41.8682746887207,-16.615211486816406,-1.2313495874404907,-0.10199490189552307,-3.0688464641571045,0.3149842321872711,0.5530222654342651,1.4905768632888794,0.45157068967819214
409,30122,30124,-0.0639427974820137,0.03553028777241707,0.9833883047103882,-44.862430572509766,-11.671599388122559,-1.6629400253295898,-0.08399579674005508,-3.0658466815948486,0.31798410415649414,0.5814398527145386,1.0080524682998657,0.4152054786682129
410,30132,30134,-0.7799763083457947,0.23926588892936707,1.0148385763168335,-41.13077163696289,-3.967597246170044,-0.13743796944618225,-0.08849557489156723,-3.0673465728759766,0.30748462677001953,0.8332371711730957,0.8112109303474426,0.39667877554893494
411,30142,30144,-0.8712290525436401,0.10548869520425797,1.059559941291809,-25.937450408935547,4.621707439422607,-1.4166463613510132,-0.09599519520998001,-3.0688464641571045,0.31798410415649414,0.8963668942451477,0.2866634130477905,0.39935818314552307
412,30152,30154,-0.3867173492908478,0.013164876960217953,1.0277999639511108,-4.817573547363281,16.83281707763672,-1.2430005073547363,-0.08399579674005508,-3.0688464641571045,0.3239837884902954,0.8380814790725708,0.09105075150728226,0.3686654269695282
413,30162,30164,-0.7921624779701233,0.1571245789527893,0.9942818880081177,6.424676895141602,21.741771697998047,-1.9694312810897827,-0.10049497336149216,-3.0643467903137207,0.3254837095737457,0.6993667483329773,0.007361566182225943,0.3531605005264282
414,30172,30174,-0.6264932751655579,0.029584094882011414,0.9513505101203918,14.942577362060547,19.32526969909668,-2.0507853031158447,-0.11699414998292923,-3.050847291946411,0.30898454785346985,0.4302445352077484,0.07120781391859055,0.3265594244003296
415,30182,30184,-0.438375860452652,0.1094873771071434,0.9365713596343994,15.629105567932129,17.735471725463867,-1.4347727298736572,-0.10349482297897339,-3.055347204208374,0.3254837095737457,0.1630539745092392,0.1850801557302475,0.30130404233932495
416,30192,30194,-1.5482358932495117,0.2376396209001541,0.9367388486862183,6.339323997497559,16.72290802001953,-2.2874808311462402,-0.11549422144889832,-3.052347421646118,0.3134843111038208,0.06757155805826187,0.33670374751091003,0.2896323502063751
417,30202,30204,-0.8953315615653992,0.20559623837471008,1.0754444599151611,-4.350097179412842,12.619107246398926,-2.7145867347717285,-0.10199490189552307,-3.059846878051758,0.3239837884902954,-0.1794205605983734,0.3587992191314697,0.2747131586074829
418,30212,30214,-0.23348018527030945,-0.16461844742298126,0.9211350083351135,-14.171870231628418,9.443662643432617,-4.06083345413208,-0.10199490189552307,-3.059846878051758,0.3239837884902954,-0.23990027606487274,0.3780628740787506,0.252390593290329
419,30222,30224,0.051740821450948715,-0.19666354358196259,0.9120574593544006,-19.71836280822754,5.784332275390625,-4.901239395141602,-0.10199490189552307,-3.059846878051758,0.3239837884902954,-0.4181230664253235,0.25518590211868286,0.21812689304351807
420,30232,30234,0.06568222492933273,-0.004512977786362171,0.8915409445762634,-20.10237693786621,1.763838529586792,-4.330305576324463,-0.10199490189552307,-3.059846878051758,0.3239837884902954,-0.3135004937648773,0.2361239492893219,0.16377292573451996
421,30242,30244,-0.4912734925746918,0.19388101994991302,0.8916751146316528,-16.828655242919922,-2.783508539199829,-3.8055944442749023,-0.10949452221393585,-3.052347421646118,0.33448326587677,-0.33312860131263733,-0.00724750803783536,0.1178896352648735
422,30252,30254,-0.5640616416931152,-0.17111451923847198,0.896302342414856,-9.279828071594238,-6.645834922790527,0.5284647345542908,-0.10949452221393585,-3.0433478355407715,0.32848358154296875,-0.36011451482772827,-0.2236456722021103,0.07945583760738373
423,30262,30264,0.008152421563863754,-0.2189527004957199,0.9138503074645996,-2.8263487815856934,0.14268256723880768,2.7719860076904297,-0.113994300365448,-3.053847312927246,0.31798410415649414,-0.2641146779060364,-0.34595733880996704,0.07061444222927094
424,30272,30274,0.12078971415758133,-0.1302882730960846,0.890992283821106,3.1218934059143066,-0.1630418449640274,5.460559844970703,-0.09749512374401093,-3.052347421646118,0.3314834237098694,-0.24641557037830353,-0.2511703073978424,0.09034322947263718
425,30282,30284,-0.3701668679714203,-0.11323488503694534,0.9390081763267517,14.189571380615234,-0.37689459323883057,7.729004383087158,-0.11099445074796677,-3.050847291946411,0.3209839463233948,-0.30805131793022156,-0.22613920271396637,0.14705780148506165
426,30292,30294,-0.5125641822814941,0.03947071731090546,0.963742196559906,13.759779930114746,6.3942551612854,8.380708694458008,-0.09749512374401093,-3.0703463554382324,0.3224838674068451,-0.2945789694786072,-0.08644220978021622,0.21511301398277283
427,30302,30304,-0.08568068593740463,0.16052287817001343,0.9576230049133301,5.321164131164551,9.12633991241455,11.70782470703125,-0.10649467259645462,-3.055347204208374,0.30748462677001953,-0.4119222164154053,-0.11646082997322083,0.29811713099479675
428,30312,30314,0.006818611640483141,0.18209391832351685,1.0659884214401245,-4.416802406311035,12.084425926208496,14.947267532348633,-0.09749512374401093,-3.05834698677063,0.3224838674068451,-0.47743695974349976,-0.11665818095207214,0.3969390392303467
429,30322,30324,-0.11256444454193115,-0.08632921427488327,1.024240255355835,-10.171175956726074,17.66699981689453,18.10917854309082,-0.10649467259645462,-3.052347421646118,0.3224838674068451,-0.5436933636665344,-0.024540381506085396,0.5355995297431946
430,30332,30334,0.01583186537027359,-0.27730152010917664,0.9843412041664124,-12.87389850616455,21.33064079284668,21.204227447509766,-0.10799460113048553,-3.0628468990325928,0.31798410415649414,-0.7119090557098389,-0.028016114607453346,0.7107495665550232
431,30342,30344,0.14514902234077454,-0.2341075837612152,0.9628908038139343,-16.39923095703125,18.56505584716797,21.697294235229492,-0.09899504482746124,-3.0628468990325928,0.3059847056865692,-0.9923372268676758,-0.15432822704315186,0.9263004660606384
432,30352,30354,-0.027609147131443024,-0.1697654128074646,0.801110565662384,-22.107254028320312,8.576730728149414,20.727191925048828,-0.1049947515130043,-3.059846878051758,0.3209839463233948,-1.1233357191085815,-0.27852195501327515,1.1354124546051025
433,30362,30364,-0.09820500016212463,0.014111579395830631,0.8103238344192505,-24.426212310791016,-0.3951913118362427,19.818859100341797,-0.10949452221393585,-3.0703463554382324,0.3164841830730438,-1.1125010251998901,-0.5512520670890808,1.3165568113327026
434,30372,30374,-0.08369455486536026,0.17153707146644592,0.9664691686630249,-25.506086349487305,-9.691060066223145,19.773412704467773,-0.10799460113048553,-3.0448477268218994,0.3209839463233948,-1.0297222137451172,-0.726569652557373,1.5057971477508545
435,30382,30384,-0.08912594616413116,0.15914282202720642,0.9704104065895081,-21.1051025390625,-19.606807708740234,19.872398376464844,-0.11099445074796677,-3.0688464641571045,0.3119843900203705,-1.0090447664260864,-1.1862996816635132,1.6826682090759277
436,30392,30394,-0.09607351571321487,0.19698843359947205,0.9821873903274536,-13.239779472351074,-26.934513092041016,19.9252872467041,-0.09749512374401093,-3.0613467693328857,0.3224838674068451,-0.8420642018318176,-1.3478766679763794,1.8912299871444702
437,30402,30404,0.05209801346063614,0.12928475439548492,1.0483019351959229,-6.475653171539307,-30.757484436035156,19.04876136779785,-0.10049497336149216,-3.05834698677063,0.3134843111038208,-0.4934670925140381,-1.3916432857513428,2.0908682346343994
438,30412,30414,-0.10408520698547363,-0.11046577244997025,0.8863848447799683,-3.74771785736084,-28.38510513305664,18.186655044555664,-0.09299534559249878,-3.0658466815948486,0.3119843900203705,-0.25003042817115784,-1.405558705329895,2.315082550048828
439,30422,30424,-0.4121747314929962,-0.1657506674528122,0.8946077823638916,-2.5163557529449463,-21.262733459472656,16.655027389526367,-0.09599519520998001,-3.059846878051758,0.30898454785346985,0.11415734887123108,-1.4367467164993286,2.4911680221557617
440,30432,30434,-0.13224011659622192,-0.15503166615962982,1.0330244302749634,-5.8647308349609375,-7.527920246124268,16.395992279052734,-0.09149542450904846,-3.0733463764190674,0.31048446893692017,0.3394516408443451,-1.5459879636764526,2.6642866134643555
441,30442,30444,-0.16190126538276672,0.059960365295410156,1.0177844762802124,-11.771733283996582,15.493330001831055,15.744357109069824,-0.08399579674005508,-3.056847095489502,0.3029848337173462,0.2660723030567169,-1.5796763896942139,2.890869617462158
442,30452,30454,-0.11385289579629898,-0.011983048170804977,0.9716222882270813,-14.266469955444336,30.60442543029785,12.728967666625977,-0.07949602603912354,-3.0613467693328857,0.3134843111038208,0.12185575813055038,-1.8224865198135376,3.0531482696533203
443,30462,30464,0.07119599729776382,0.01058869156986475,0.9736416935920715,-11.802424430847168,32.84710693359375,9.87682819366455,-0.08099594712257385,-3.056847095489502,0.3119843900203705,-0.23056921362876892,-1.9944781064987183,3.2240335941314697
444,30472,30474,-0.01480219978839159,0.02273254096508026,0.9964114427566528,-7.144143581390381,30.68379783630371,7.703376293182373,-0.07199639827013016,-3.0658466815948486,0.3059847056865692,-0.4575132131576538,-2.2007927894592285,3.2832701206207275
445,30482,30484,-0.10478492826223373,0.05823761597275734,0.994414746761322,3.0246129035949707,21.135276794433594,6.0471601486206055,-0.08849557489156723,-3.05834698677063,0.3134843111038208,-0.8622769117355347,-2.172537326812744,3.4001667499542236
446,30492,30494,-0.048598553985357285,0.045193690806627274,1.0131314992904663,16.061819076538086,5.84221887588501,3.741403818130493,-0.09149542450904846,-3.049347400665283,0.30748462677001953,-0.963450014591217,-2.1298978328704834,3.4048264026641846
447,30502,30504,-0.024484282359480858,-0.01609225384891033,1.005772590637207,26.325550079345703,-13.434804916381836,2.5055713653564453,-0.09299534559249878,-3.0478475093841553,0.3149842321872711,-1.0200836658477783,-1.9571154117584229,3.4293622970581055
448,30512,30514,-0.025115838274359703,0.13794299960136414,1.0647529363632202,28.750869750976562,-25.610942840576172,2.419222831726074,-0.09299534559249878,-3.0748462677001953,0.3059847056865692,-0.8899988532066345,-1.7193373441696167,3.4367804527282715
449,30522,30524,-0.01804536208510399,0.0014317854074761271,1.0300465822219849,23.570104598999023,-31.222227096557617,2.0479044914245605,-0.10199490189552307,-3.077846050262451,0.29998499155044556,-0.7768792510032654,-1.5170661211013794,3.4983577728271484
450,30532,30534,-0.13072332739830017,0.1554979830980301,1.102001667022705,10.584824562072754,-25.20705795288086,0.2809421718120575,-0.08999549597501755,-3.077846050262451,0.2939853072166443,-0.5329928398132324,-1.257446527481079,3.550464391708374
451,30542,30544,-0.050648659467697144,0.055261481553316116,1.1322795152664185,-5.139404773712158,-14.726435661315918,-1.3939865827560425,-0.07949602603912354,-3.0703463554382324,0.2954852283000946,-0.24201354384422302,-1.2067030668258667,3.543621778488159
452,30552,30554,-0.031693607568740845,0.017685027793049812,1.0815645456314087,-14.398128509521484,-4.326714515686035,-3.6535844802856445,-0.08699564635753632,-3.0628468990325928,0.3059847056865692,-0.00882609561085701,-1.2887473106384277,3.5108041763305664
453,30562,30564,-0.10681987553834915,-0.0815340206027031,0.9679930806159973,-13.637174606323242,11.749303817749023,-6.604974746704102,-0.08249587565660477,-3.0703463554382324,0.3044847846031189,0.023462237790226936,-1.4890079498291016,3.5016396045684814
454,30572,30574,-0.02209288999438286,-0.016159530729055405,1.0043320655822754,-4.06406831741333,22.620559692382812,-8.966795921325684,-0.0764961764216423,-3.052347421646118,0.30748462677001953,-0.17586423456668854,-1.5366265773773193,3.515789747238159
455,30582,30584,-0.04572359099984169,0.0022510646376758814,1.0343166589736938,11.520447731018066,21.419788360595703,-9.249346733093262,-0.08099594712257385,-3.059846878051758,0.31798410415649414,-0.4842337667942047,-1.567989706993103,3.482558488845825
456,30592,30594,-0.08732670545578003,0.08765040338039398,0.9507048726081848,27.18687629699707,16.769325256347656,-8.756977081298828,-0.085495725274086,-3.052347421646118,0.3134843111038208,-0.7814649939537048,-1.4271517992019653,3.4276771545410156
457,30602,30604,-0.11177559196949005,0.14991869032382965,0.9755852818489075,39.078163146972656,3.896324396133423,-9.20828628540039,-0.0944952741265297,-3.055347204208374,0.3014849126338959,-0.6813114881515503,-1.0411361455917358,3.235917329788208
458,30612,30614,-0.149011492729187,0.0718582347035408,1.0151464939117432,37.71273422241211,-10.035234451293945,-9.219393730163574,-0.085495725274086,-3.0703463554382324,0.29848507046699524,-0.7728095054626465,-0.7315682768821716,3.1378917694091797
459,30622,30624,-0.09627407044172287,0.016207098960876465,1.0405656099319458,27.976259231567383,-18.9284610748291,-9.784356117248535,-0.09599519520998001,-3.0658466815948486,0.3119843900203705,-0.5836788415908813,-0.23065051436424255,3.004167079925537
460,30632,30634,-0.16835755109786987,0.21242915093898773,1.0625611543655396,14.120692253112793,-22.540836334228516,-9.360568046569824,-0.08399579674005508,-3.0718462467193604,0.3059847056865692,-0.41159477829933167,-0.31241685152053833,2.8571927547454834
461,30642,30644,-0.09798850119113922,0.0860138088464737,1.030755639076233,-0.761330783367157,-19.9162540435791,-9.1843843460083,-0.07949602603912354,-3.0703463554382324,0.30748462677001953,-0.26679322123527527,-0.2397259622812271,2.7716152667999268
462,30652,30654,0.0030591345857828856,0.19342438876628876,1.0274887084960938,-10.529993057250977,-17.026456832885742,-7.011641025543213,-0.08699564635753632,-3.0748462677001953,0.2969851493835449,-0.002432318637147546,-0.2262953370809555,2.6560800075531006
463,30662,30664,-0.03619912266731262,0.028054840862751007,1.0198287963867188,-20.95064926147461,-16.22602653503418,-4.787778854370117,-0.085495725274086,-3.0643467903137207,0.29848507046699524,0.15891559422016144,-0.3861135244369507,2.574378728866577
464,30672,30674,-0.07207763940095901,0.0386611670255661,1.0619313716888428,-19.89963150024414,-14.639245986938477,-3.0368456840515137,-0.07799609750509262,-3.0748462677001953,0.2969851493835449,0.4350129961967468,-0.5846427083015442,2.486353635787964
465,30682,30684,-0.11896554380655289,-0.003702460555359721,0.99860680103302,-7.530041217803955,-15.475893020629883,-3.623832941055298,-0.07199639827013016,-3.080845832824707,0.2969851493835449,0.6837179064750671,-0.7536610960960388,2.430830478668213
466,30692,30694,-0.08936358988285065,-0.025599168613553047,1.0500606298446655,12.442108154296875,0.24641253054141998,-4.033012390136719,-0.0764961764216423,-3.082345724105835,0.29848507046699524,0.6117250323295593,-0.7936182022094727,2.4620251655578613
467,30702,30704,-0.004257321357727051,0.03511911630630493,1.0875396728515625,31.775190353393555,13.136817932128906,-7.145249366760254,-0.06749662756919861,-3.0673465728759766,0.3134843111038208,0.588141143321991,-0.6053617000579834,2.447179079055786
468,30712,30714,-0.12440916150808334,0.039072614163160324,1.0380862951278687,46.454811096191406,24.141292572021484,-8.80334758758545,-0.08099594712257385,-3.077846050262451,0.29998499155044556,0.4370827376842499,-0.2637903392314911,2.40297269821167
469,30722,30724,-0.19538013637065887,-0.08161623775959015,0.9996570348739624,49.29800033569336,24.354835510253906,-8.813811302185059,-0.08399579674005508,-3.080845832824707,0.2969851493835449,0.21400627493858337,0.12721547484397888,2.3246207237243652
470,30732,30734,-0.14652442932128906,0.028376400470733643,1.0374159812927246,33.77371597290039,21.205385208129883,-9.228638648986816,-0.0764961764216423,-3.0943453311920166,0.2954852283000946,0.03722955286502838,0.5872729420661926,2.214262008666992
471,30742,30744,-0.02664187178015709,-0.053951162844896317,1.0394668579101562,12.940733909606934,8.777144432067871,-9.207465171813965,-0.08849557489156723,-3.0943453311920166,0.2864856719970703,-0.19423744082450867,0.8995455503463745,2.1250052452087402
472,30752,30754,-0.05298485979437828,0.05553567782044411,1.0857880115509033,-8.348003387451172,-4.055173397064209,-8.699371337890625,-0.07499624788761139,-3.080845832824707,0.2969851493835449,-0.250699520111084,1.0940805673599243,2.0224807262420654
473,30762,30764,-0.025140199810266495,-0.11645649373531342,1.0866010189056396,-24.955238342285156,-14.758971214294434,-8.989581108093262,-0.0944952741265297,-3.0913453102111816,0.28948551416397095,-0.18847396969795227,0.9677131175994873,1.9244929552078247
474,30772,30774,-0.03071739710867405,-0.14400725066661835,1.0656770467758179,-34.066471099853516,-24.443445205688477,-6.447293758392334,-0.08099594712257385,-3.0898454189300537,0.28498575091362,0.0400649718940258,0.5952158570289612,1.8262659311294556
475,30782,30784,-0.09997029602527618,-0.15545356273651123,1.0086959600448608,-31.426406860351562,-27.00394058227539,-5.236899375915527,-0.07049647718667984,-3.0943453311920166,0.2864856719970703,0.3912522494792938,0.3970324993133545,1.7437744140625
